Accelerometer-X,Accelerometer-Y,Accelerometer-Z,Gyroscope-X,Gyroscope-Y,Gyroscope-Z,Magnetometer-X,Magnetometer-Y,Magnetometer-Z,Barometer-pressure,Orientation-S,Orientation-X,Orientation-Y,Orientation-Z,Accelerometer-X,Accelerometer-Y,Accelerometer-Z,Gyroscope-X,Gyroscope-Y,Gyroscope-Z,Magnetometer-X,Magnetometer-Y,Magnetometer-Z,Barometer-pressure,Orientation-S,Orientation-X,Orientation-Y,Orientation-Z,Accelerometer-X,Accelerometer-Y,Accelerometer-Z,Gyroscope-X,Gyroscope-Y,Gyroscope-Z,Magnetometer-X,Magnetometer-Y,Magnetometer-Z,Barometer-pressure,Orientation-S,Orientation-X,Orientation-Y,Orientation-Z,jump
-9.503787,-0.122074,0.722156,-0.052058,-0.194009,0.004104,43.110769,-6.001546,11.829621,4.63583E+18,0.776469,-0.051029,0.624514,0.066886,-9.644927,-0.631203,-1.590197,0.133141,-0.0983,0.021835,41.370892,-15.381329,14.090926,4.63582E+18,0.523274,-0.505261,0.576372,0.372412,-9.12022,-0.960529,-1.772327,-0.042673,-0.072465,-0.702589,39.814765,20.178524,6.964968,4.63583E+18,0.480339,0.485297,0.565,-0.46318,0
-9.459458,-0.113082,0.834599,-0.056161,-0.199236,0.008657,43.138372,-6.025307,11.696002,4.63583E+18,0.77697,-0.051114,0.623859,0.067121,-9.565953,-0.600322,-1.520195,0.141308,-0.103232,0.019416,41.448784,-15.448095,14.188574,4.63582E+18,0.523738,-0.50471,0.576443,0.372396,-9.286314,-0.911694,-1.947734,-0.176429,-0.069991,-0.739302,39.739584,20.484705,7.043672,4.63583E+18,0.479398,0.483056,0.566725,-0.464389,0
-9.400351,-0.039205,0.873786,-0.064819,-0.209357,0.010681,43.238621,-6.079287,11.572618,4.63583E+18,0.777493,-0.051219,0.623169,0.067386,-9.54727,-0.542531,-1.346822,0.132328,-0.105557,0.009491,41.456341,-15.610342,14.108199,4.63582E+18,0.524203,-0.504199,0.576475,0.372386,-9.395205,-0.860942,-2.027393,-0.299645,-0.064173,-0.767633,39.636151,20.801099,7.028249,4.63583E+18,0.47863,0.480508,0.56875,-0.465347,0
-9.329671,0.137474,0.972726,-0.081008,-0.191653,0.010681,43.180169,-6.047813,11.608589,4.63583E+18,0.777967,-0.051381,0.622532,0.06769,-9.690848,-0.514871,-1.208203,0.116777,-0.116457,0.000756,41.37845,-15.46969,13.921509,4.63582E+18,0.524675,-0.503725,0.57644,0.372416,-9.495756,-0.786734,-2.036709,-0.413571,-0.064145,-0.789221,39.471993,21.107248,6.848353,4.63583E+18,0.478043,0.477675,0.571033,-0.466072,0
-9.350205,0.29553,1.058826,-0.10782,-0.144773,0.011468,43.017004,-6.025296,11.602861,4.63583E+18,0.778311,-0.051641,0.62204,0.068055,-9.827276,-0.501585,-1.396601,0.094915,-0.127232,-0.006815,41.370892,-15.232044,13.904232,4.63582E+18,0.525138,-0.503301,0.576332,0.372505,-9.623289,-0.690681,-2.014221,-0.510013,-0.050821,-0.800549,39.380762,21.423674,6.862811,4.63583E+18,0.477586,0.474641,0.573544,-0.466556,0
-9.47483,0.346302,1.056274,-0.137053,-0.113282,0.015571,42.940484,-6.110748,11.451211,4.63583E+18,0.778566,-0.051995,0.621642,0.068502,-9.727905,-0.533882,-1.627458,0.076379,-0.125257,-0.016239,41.515532,-15.054657,13.993242,4.63582E+18,0.525571,-0.502942,0.57618,0.372614,-9.664414,-0.469047,-2.015184,-0.597086,-0.031512,-0.806199,39.22208,21.716313,7.046864,4.63583E+18,0.477236,0.47145,0.576264,-0.466798,0
-9.632245,0.349521,1.007446,-0.164994,-0.110635,0.023047,43.052894,-6.164739,11.389507,4.63583E+18,0.778804,-0.05242,0.621247,0.069046,-9.728219,-0.637262,-1.603494,0.085479,-0.128867,-0.022932,41.540713,-15.33993,13.834998,4.63582E+18,0.526043,-0.502574,0.576019,0.372693,-9.614621,-0.233561,-2.025466,-0.677339,-0.010544,-0.80291,39.05761,21.851252,7.242182,4.63583E+18,0.476991,0.468139,0.579164,-0.46679,0
-9.748544,0.30137,0.999057,-0.18838,-0.119291,0.03131,43.126213,-6.164739,11.389507,4.63583E+18,0.779057,-0.052898,0.62082,0.069678,-9.829412,-0.70261,-1.521305,0.102093,-0.138006,-0.028366,41.463928,-15.524852,13.729791,4.63582E+18,0.526579,-0.502168,0.575854,0.37274,-9.563208,-0.107942,-2.015184,-0.746515,0.017538,-0.798217,38.838182,21.869536,7.444235,4.63583E+18,0.476813,0.464747,0.582235,-0.466542,0
-9.807038,0.195997,1.064587,-0.205418,-0.129187,0.04171,43.106884,-6.160246,11.425451,4.63583E+18,0.779327,-0.053401,0.620357,0.070391,-9.861416,-0.585658,-1.44697,0.125025,-0.160274,-0.033707,41.52309,-15.306406,13.721121,4.63582E+18,0.527224,-0.501689,0.575664,0.372766,-9.624238,-0.086413,-2.020663,-0.810631,0.036762,-0.787427,38.763987,22.119711,7.732662,4.63583E+18,0.476722,0.461281,0.585435,-0.46607,0
-9.783302,0.089352,1.137832,-0.213066,-0.118468,0.050314,43.153172,-6.183982,11.451223,4.63583E+18,0.779564,-0.05391,0.619929,0.071148,-9.796841,-0.495884,-1.418227,0.117377,-0.182798,-0.047807,41.607449,-15.139063,13.709998,4.63582E+18,0.527928,-0.501226,0.575383,0.372826,-9.68047,-0.090932,-1.944535,-0.848555,0.055821,-0.762523,38.673729,22.547073,8.088989,4.63583E+18,0.476695,0.457827,0.588686,-0.465408,0
-9.711333,-0.001268,1.130215,-0.215373,-0.079001,0.049588,43.153172,-6.269427,11.322129,4.63583E+18,0.779697,-0.054439,0.619628,0.0719,-9.63461,-0.388186,-1.549539,0.086256,-0.191603,-0.071521,41.692901,-15.191713,13.63105,4.63582E+18,0.528625,-0.500873,0.574984,0.372927,-9.670862,-0.010286,-1.832748,-0.866016,0.073247,-0.733095,38.532046,22.547073,8.186647,4.63583E+18,0.476705,0.454434,0.591936,-0.464601,0
-9.65802,-0.069315,0.943338,-0.218234,-0.071713,0.048791,43.0948,-6.292004,11.206396,4.63583E+18,0.77981,-0.054983,0.61935,0.072655,-9.652804,-0.500786,-1.684904,0.047304,-0.206866,-0.088302,41.767231,-15.27608,13.623462,4.63582E+18,0.529303,-0.500623,0.574457,0.373116,-9.557437,0.009329,-1.700401,-0.861132,0.093936,-0.695775,38.446603,22.565305,8.276619,4.63583E+18,0.476716,0.451172,0.595135,-0.463682,0
-9.628413,-0.186895,0.81719,-0.225882,-0.105782,0.055151,43.0259,-6.179619,11.273739,4.63583E+18,0.780006,-0.055524,0.61896,0.073459,-9.700549,-0.590574,-1.796939,0.058393,-0.221915,-0.095564,41.851596,-15.205806,13.712448,4.63582E+18,0.53005,-0.500341,0.573897,0.373293,-9.550987,-0.033051,-1.595332,-0.835138,0.107174,-0.646304,38.355396,22.803003,8.284295,4.63583E+18,0.47673,0.448101,0.598204,-0.462695,0
-9.625894,-0.265333,0.932796,-0.225834,-0.128791,0.050941,43.106858,-6.137639,11.358087,4.63583E+18,0.780262,-0.056069,0.618494,0.074253,-9.727127,-0.687128,-1.739972,0.08317,-0.24465,-0.100999,41.92591,-15.120372,13.810087,4.63582E+18,0.530911,-0.499982,0.573315,0.373446,-9.605308,-0.142916,-1.545543,-0.790649,0.125332,-0.591722,38.190942,23.089956,8.381954,4.63583E+18,0.476713,0.44528,0.60111,-0.461667,0
-9.572576,-0.298725,1.007467,-0.221107,-0.130769,0.043684,43.184591,-6.300824,11.196329,4.63583E+18,0.780524,-0.056617,0.618021,0.075012,-9.7293,-0.695822,-1.644477,0.096157,-0.27691,-0.110232,41.865698,-15.268469,13.640832,4.63582E+18,0.531889,-0.499565,0.572662,0.373614,-9.579937,-0.245106,-1.486429,-0.722902,0.142315,-0.523033,37.959029,23.156486,8.510257,4.63583E+18,0.476651,0.442792,0.603784,-0.460634,0
-9.547446,-0.343064,0.963128,-0.219536,-0.122507,0.04048,43.14886,-6.440303,10.943757,4.63583E+18,0.780765,-0.05717,0.617575,0.075755,-9.707059,-0.640219,-1.624671,0.111797,-0.304181,-0.113033,41.937029,-15.205825,13.534497,4.63582E+18,0.532969,-0.499076,0.571966,0.373795,-9.547146,-0.250615,-1.448854,-0.623637,0.14577,-0.450658,37.739552,23.151934,8.974585,4.63583E+18,0.47653,0.440685,0.606132,-0.459695,0
-9.584066,-0.352761,0.930996,-0.2133,-0.117213,0.035705,42.989986,-6.467416,10.756173,4.63583E+18,0.780994,-0.057717,0.617146,0.076464,-9.627052,-0.57919,-1.545751,0.117115,-0.320179,-0.122953,42.089184,-14.975836,13.43685,4.63582E+18,0.534111,-0.498574,0.571221,0.373973,-9.56127,-0.174489,-1.40002,-0.513628,0.152515,-0.380802,37.665341,23.22973,9.136639,4.63583E+18,0.476319,0.43898,0.60815,-0.458879,0
-9.616201,-0.343061,0.86171,-0.202117,-0.127202,0.031762,43.072008,-6.452504,10.565341,4.63583E+18,0.781252,-0.058235,0.616688,0.077135,-9.597196,-0.540391,-1.471419,0.109713,-0.329296,-0.143363,42.025502,-14.954069,13.250241,4.63582E+18,0.535291,-0.498121,0.570401,0.374142,-9.58641,-0.067505,-1.351195,-0.416103,0.162944,-0.306124,37.574158,23.224221,9.057893,4.63583E+18,0.476043,0.437676,0.609861,-0.458139,0
-9.622668,-0.397628,0.760093,-0.188231,-0.142849,0.033898,43.347552,-6.533466,10.449537,4.63583E+18,0.781551,-0.058697,0.616184,0.07778,-9.728446,-0.526007,-1.409294,0.074899,-0.338814,-0.156943,42.017883,-14.94295,13.054922,4.63582E+18,0.536441,-0.497761,0.569477,0.374381,-9.472718,-0.001913,-1.302366,-0.313877,0.170589,-0.232757,37.422159,23.298421,9.079892,4.63583E+18,0.475699,0.436773,0.611256,-0.457498,0
-9.63414,-0.492045,0.758109,-0.175131,-0.146555,0.037604,43.5291,-6.61119,10.557193,4.63583E+18,0.781861,-0.059105,0.615673,0.078404,-9.730392,-0.524918,-1.359386,0.043358,-0.344534,-0.172676,42.240209,-14.786234,12.959693,4.63582E+18,0.537561,-0.4975,0.568457,0.374672,-9.31786,-0.011998,-1.255452,-0.202885,0.180285,-0.163586,37.361339,23.389595,9.360631,4.63583E+18,0.475259,0.436284,0.612332,-0.456984,0
-9.702899,-0.615369,0.812673,-0.159457,-0.157674,0.044405,43.361657,-6.696642,10.706629,4.63583E+18,0.782199,-0.059441,0.615132,0.079013,-9.740418,-0.591622,-1.199379,0.017243,-0.343066,-0.182863,42.406556,-14.626432,12.863116,4.63582E+18,0.538639,-0.497321,0.567377,0.374997,-9.210859,0.145743,-1.233903,-0.093534,0.191551,-0.097946,37.452522,23.535873,9.627075,4.63583E+18,0.474715,0.4362,0.613101,-0.456598,0
-9.714597,-0.73494,0.8443,-0.136242,-0.165126,0.051882,43.121775,-6.750694,10.613459,4.63583E+18,0.782559,-0.05968,0.614577,0.079588,-9.830447,-0.720455,-1.150766,0.028573,-0.350658,-0.177885,42.2762,-14.534439,12.665398,4.63582E+18,0.539749,-0.497093,0.566307,0.375321,-9.135705,0.281725,-1.24993,0.007688,0.209459,-0.038864,37.605486,23.523458,9.717093,4.63583E+18,0.474054,0.436499,0.613606,-0.456321,0
-9.650326,-0.826116,0.769815,-0.108537,-0.144462,0.059751,43.099108,-6.750694,10.559403,4.63583E+18,0.78287,-0.059816,0.6141,0.080113,-9.928097,-0.754676,-1.147496,0.063951,-0.36212,-0.178285,42.106403,-14.371184,12.557941,4.63582E+18,0.540959,-0.496766,0.565265,0.375584,-9.044732,0.289163,-1.314775,0.106614,0.224244,0.023232,37.678531,23.371456,9.724723,4.63583E+18,0.473292,0.437181,0.613838,-0.456148,0
-9.610465,-0.907832,0.636282,-0.07464,-0.122445,0.069473,43.094876,-6.74621,10.698414,4.63583E+18,0.783128,-0.059823,0.613709,0.080577,-9.881247,-0.834671,-1.125264,0.090637,-0.370951,-0.180326,42.157823,-14.28921,12.371354,4.63582E+18,0.542246,-0.496369,0.564238,0.375796,-9.025851,0.254636,-1.422733,0.212343,0.237896,0.07567,37.599566,23.309653,9.830008,4.63583E+18,0.472401,0.43823,0.613799,-0.456116,0
-9.590535,-0.906588,0.472358,-0.042139,-0.130008,0.080438,43.025859,-6.711585,10.937834,4.63583E+18,0.783409,-0.059694,0.613308,0.080995,-9.820216,-0.820081,-1.00082,0.114325,-0.386303,-0.188297,42.39778,-14.34935,12.187172,4.63582E+18,0.543628,-0.495911,0.563197,0.375965,-8.93677,0.395545,-1.507216,0.305168,0.260974,0.139385,37.457864,23.388589,10.024334,4.63583E+18,0.471402,0.439668,0.613512,-0.456154,0
-9.533495,-0.850791,0.483543,-0.008876,-0.134001,0.086128,43.22339,-6.602476,10.825752,4.63583E+18,0.783706,-0.05944,0.612906,0.081348,-9.814753,-0.773438,-0.899883,0.138796,-0.413023,-0.190035,42.565215,-14.355906,12.170781,4.63582E+18,0.545125,-0.495358,0.562128,0.376127,-8.946122,0.620061,-1.578563,0.394456,0.279801,0.180651,37.391448,23.512241,10.185565,4.63583E+18,0.470267,0.441419,0.613013,-0.456303,0
-9.435079,-0.714019,0.609127,0.033459,-0.09642,0.083098,43.443661,-6.55711,10.601263,4.63583E+18,0.783918,-0.059069,0.612641,0.081573,-9.792523,-0.657921,-0.957828,0.140996,-0.426207,-0.19402,42.657225,-14.278104,12.259697,4.63582E+18,0.546661,-0.494787,0.561022,0.3763,-9.04816,0.713502,-1.659713,0.466092,0.301677,0.311101,37.550125,23.359114,10.058444,4.63583E+18,0.46919,0.443684,0.612178,-0.456337,0
-9.447766,-0.544376,0.4739,0.06413,-0.066267,0.078259,43.307676,-6.754886,10.551678,4.63583E+18,0.784061,-0.05862,0.612485,0.081697,-9.756994,-0.680336,-1.142218,0.12738,-0.448655,-0.203156,42.653761,-14.114851,12.090608,4.63582E+18,0.548234,-0.49423,0.559824,0.376528,-10.396332,-1.299348,-2.007603,0.689654,0.274082,0.489351,37.69551,23.139532,9.605172,4.63583E+18,0.468104,0.446782,0.610528,-0.45664,0
-9.59023,-0.388936,0.258364,0.068037,-0.0937,0.072986,43.211428,-6.913872,10.451853,4.63583E+18,0.784277,-0.058162,0.612239,0.081799,-9.698149,-0.828086,-1.215269,0.112428,-0.452703,-0.212768,42.585987,-14.021758,11.895311,4.63582E+18,0.549798,-0.493722,0.55857,0.376776,-8.922012,-1.924816,-1.084859,0.881143,0.331695,0.45989,37.690908,23.077697,9.450583,4.63583E+18,0.466451,0.450281,0.60867,-0.457374,0
-9.818926,-0.168738,0.295915,0.060384,-0.161899,0.060343,43.370123,-6.890229,10.123026,4.63583E+18,0.784668,-0.057739,0.611765,0.081897,-9.670452,-0.753406,-1.176288,0.111087,-0.456784,-0.220436,42.723891,-14.014099,11.699994,4.63582E+18,0.551378,-0.493226,0.557288,0.377016,-9.312734,-2.092281,-1.270535,0.802488,0.320054,0.384546,37.763062,23.145237,9.612788,4.63583E+18,0.464824,0.453405,0.607071,-0.458069,0
-10.04066,0.127472,0.548239,0.047878,-0.232192,0.040401,43.407832,-6.809261,9.87579,4.63583E+18,0.78524,-0.057383,0.611052,0.081977,-9.857186,-0.833556,-1.105232,0.103308,-0.47467,-0.223051,42.971492,-14.158569,11.515788,4.63582E+18,0.552985,-0.492723,0.555944,0.377303,-10.716887,-6.321273,-0.20307,0.787792,0.249259,0.311269,37.684254,23.139542,9.504558,4.63583E+18,0.463257,0.456174,0.605492,-0.458997,0
-10.205838,0.385822,0.859895,0.019609,-0.248055,0.014484,43.245902,-6.78978,9.951946,4.63583E+18,0.785855,-0.057181,0.610271,0.082049,-10.031354,-1.108993,-1.065331,0.11421,-0.487089,-0.217409,42.916693,-14.028343,11.232692,4.63582E+18,0.554631,-0.49216,0.554599,0.377601,-10.452724,-5.629758,0.678956,0.863242,0.211951,0.34272,37.688993,23.071993,9.140388,4.63583E+18,0.461694,0.459089,0.603627,-0.46012,0
-10.335639,0.583156,1.091387,-0.009016,-0.235737,-0.007732,43.211409,-6.804787,10.114674,4.63583E+18,0.786437,-0.057133,0.609516,0.082117,-10.080028,-1.068619,-1.128714,0.125083,-0.501755,-0.213917,42.286771,-13.258508,11.006387,4.63582E+18,0.556326,-0.491538,0.553241,0.37791,-10.966377,-1.063037,1.949619,0.756642,0.161821,0.355796,37.75856,23.078627,8.974449,4.63583E+18,0.460479,0.461728,0.601837,-0.461039,0
-10.417394,0.692573,1.260266,-0.033974,-0.219461,-0.024714,43.370097,-6.782049,10.132933,4.63583E+18,0.786977,-0.057215,0.608801,0.082189,-10.105538,-0.973151,-1.124177,0.129931,-0.510876,-0.214602,41.614269,-12.283954,10.875547,4.63582E+18,0.558049,-0.49089,0.551865,0.378223,-11.437294,0.113846,2.16326,0.5076,0.105258,0.386289,37.940803,23.139461,9.14997,4.63583E+18,0.45994,0.463853,0.600353,-0.461381,0
-10.389274,0.690105,1.449897,-0.060005,-0.180315,-0.039278,43.470562,-6.89888,10.003892,4.63583E+18,0.787415,-0.057433,0.608203,0.082269,-10.129948,-0.942167,-0.956447,0.129342,-0.515531,-0.217614,41.465128,-11.750838,10.764609,4.63582E+18,0.559784,-0.490239,0.55047,0.378537,-11.263529,0.467785,1.696265,0.346966,0.115058,0.433761,38.246853,22.907496,9.221215,4.63583E+18,0.459775,0.465804,0.5991,-0.461208,0
-10.305035,0.618829,1.55034,-0.082009,-0.118797,-0.048852,43.380849,-7.038449,9.820712,4.63583E+18,0.787695,-0.057769,0.607797,0.082359,-10.154365,-0.83998,-0.78443,0.121469,-0.528553,-0.220819,41.911852,-11.917991,10.676952,4.63582E+18,0.561534,-0.489591,0.549022,0.378886,-11.046563,0.59674,0.892462,0.213017,0.151859,0.449624,38.397867,22.686939,9.124513,4.63583E+18,0.459806,0.467606,0.598141,-0.460598,0
-10.21709,0.486541,1.514459,-0.088438,-0.067488,-0.049418,43.253325,-7.029709,9.7004,4.63583E+18,0.787842,-0.058145,0.607557,0.082451,-10.089898,-0.752332,-0.735736,0.105146,-0.537578,-0.229856,41.812413,-12.172154,10.591499,4.63582E+18,0.563283,-0.488984,0.547506,0.379267,-10.671538,-0.250588,-0.067477,0.15099,0.18657,0.474009,38.312414,22.60811,9.038115,4.63583E+18,0.459916,0.469415,0.597317,-0.459717,0
-10.055913,0.320135,1.434744,-0.089092,-0.052841,-0.044143,43.33105,-6.921597,9.728552,4.63583E+18,0.78795,-0.058515,0.607367,0.082559,-10.083315,-0.689114,-0.799089,0.080285,-0.541262,-0.241411,41.431603,-12.272948,10.406099,4.63582E+18,0.565004,-0.488454,0.545915,0.379683,-9.784379,-1.33412,-1.557893,0.123556,0.282156,0.472792,38.241155,22.596756,8.963167,4.63583E+18,0.459837,0.471348,0.596728,-0.458581,0
-9.884261,0.174891,1.421788,-0.101517,-0.071631,-0.031892,43.385113,-6.984376,9.794822,4.63583E+18,0.788098,-0.058889,0.607114,0.082742,-10.12775,-0.605855,-0.938991,0.060479,-0.540579,-0.263854,42.084036,-12.80275,10.144112,4.63582E+18,0.566716,-0.488018,0.544247,0.380088,-9.366446,0.719642,-4.487219,0.354996,0.408839,0.497536,38.338805,22.437055,9.165077,4.63583E+18,0.459032,0.474024,0.595887,-0.457721,0
-9.769921,0.088693,1.475097,-0.116404,-0.106006,-0.019293,43.416494,-7.092501,9.802545,4.63583E+18,0.788324,-0.059268,0.606747,0.083013,-10.732014,-0.564837,-0.941069,0.046112,-0.551175,-0.288325,43.207489,-13.220983,9.875546,4.63582E+18,0.568458,-0.487653,0.542477,0.380486,-10.501658,2.948965,-3.451282,0.402568,0.373977,0.538465,38.434575,22.138561,9.424115,4.63583E+18,0.458294,0.476822,0.594801,-0.456967,0
-9.679235,0.064282,1.594381,-0.132383,-0.115928,-0.010357,43.439194,-6.998395,9.762213,4.63583E+18,0.788567,-0.059673,0.606344,0.083356,-10.81356,-0.528218,-1.206547,0.046806,-0.551261,-0.297339,43.378512,-13.023985,9.673657,4.63582E+18,0.570211,-0.487302,0.540687,0.380858,-11.312831,-0.07444,-0.518454,0.001449,0.29842,0.452164,38.502151,22.070986,9.417502,4.63583E+18,0.458372,0.478493,0.594502,-0.45553,0
-9.620202,0.030902,1.827569,-0.137007,-0.084204,-0.001527,43.385113,-6.809255,9.656824,4.63583E+18,0.788725,-0.060082,0.606046,0.083731,-10.760223,-0.502704,-1.010803,0.044083,-0.552136,-0.335917,43.374006,-12.845383,9.567198,4.63582E+18,0.572019,-0.48704,0.538809,0.381144,-10.004909,-2.380277,-0.733388,-0.050664,0.293012,0.468917,38.521961,22.047403,9.352813,4.63583E+18,0.458596,0.480092,0.594254,-0.453942,0
-9.553915,-0.044817,1.953953,-0.137223,0.012485,0.009087,43.412002,-6.73153,9.554684,4.63583E+18,0.788634,-0.060499,0.606069,0.084118,-10.710293,-0.533825,-0.733333,0.056429,-0.560979,-0.354249,43.683906,-12.985482,9.391789,4.63582E+18,0.573896,-0.486772,0.536889,0.381374,-8.827995,-1.857133,-0.786103,0.036657,0.322498,0.469164,38.771696,21.747901,9.536848,4.63583E+18,0.45857,0.481912,0.593894,-0.452508,0
-9.622346,-0.175832,1.757753,-0.143455,0.11488,0.027458,43.458355,-6.708808,9.525471,4.63583E+18,0.788276,-0.060926,0.606431,0.084555,-10.79474,-0.559338,-0.4637,0.095579,-0.590999,-0.374157,43.925723,-12.534437,9.019897,4.63582E+18,0.575947,-0.486403,0.534915,0.381526,-9.44387,-0.811126,-1.31385,0.075659,0.320852,0.473937,38.917146,21.527256,9.717093,4.63583E+18,0.458477,0.483813,0.593445,-0.451163,0
-9.852283,-0.308886,1.409436,-0.149933,0.144905,0.047146,43.462835,-6.852508,9.5995,4.63583E+18,0.787833,-0.061335,0.606895,0.085065,-10.859074,-0.472705,-0.284004,0.121685,-0.615266,-0.394449,43.868919,-12.188354,8.718143,4.63582E+18,0.578133,-0.485974,0.532879,0.381617,-9.529272,-0.286384,-1.715668,0.023627,0.311896,0.491664,38.76412,21.448408,9.717093,4.63583E+18,0.458541,0.485638,0.593036,-0.449671,0
-10.06708,-0.436672,1.163731,-0.148649,0.114917,0.058572,43.380958,-7.00705,9.643068,4.63583E+18,0.787461,-0.0617,0.607263,0.085617,-10.875694,-0.341734,-0.279667,0.103501,-0.634879,-0.421545,43.93893,-12.236304,8.514003,4.63582E+18,0.580363,-0.485613,0.530707,0.381719,-9.486131,-0.164201,-1.966407,-0.127722,0.297433,0.440394,38.692796,21.441815,9.732163,4.63583E+18,0.458848,0.487017,0.592984,-0.447931,0
-10.15331,-0.590872,1.059586,-0.142917,0.071236,0.062736,43.253288,-6.944345,9.700407,4.63583E+18,0.787198,-0.062021,0.607492,0.08618,-10.921208,-0.507247,-0.302976,0.083015,-0.646331,-0.448342,44.090989,-12.232923,8.329809,4.63582E+18,0.582613,-0.485338,0.528416,0.38182,-9.628801,0.340848,-2.265874,-0.284141,0.277472,0.389457,38.80079,21.351669,9.911471,4.63583E+18,0.459425,0.487932,0.593287,-0.44594,0
-10.182205,-0.723928,1.026652,-0.134156,0.028401,0.062129,43.54154,-6.988441,9.697158,4.63583E+18,0.787045,-0.062299,0.607583,0.086729,-10.925626,-0.536021,-0.349596,0.072436,-0.660899,-0.470188,44.249686,-12.009761,8.046773,4.63582E+18,0.584903,-0.485107,0.526022,0.381916,-9.42972,0.106931,-2.177563,-0.389303,0.275008,0.34394,39.022386,21.192014,9.915252,4.63583E+18,0.460134,0.488526,0.593868,-0.443779,0
-10.200911,-0.797959,1.081181,-0.118597,-0.020766,0.057965,43.842436,-7.372098,9.678019,4.63583E+18,0.787022,-0.062519,0.607517,0.087238,-11.036654,-0.526023,-0.354015,0.056993,-0.68071,-0.493494,44.186325,-11.832231,7.753796,4.63582E+18,0.587235,-0.484928,0.523504,0.382025,-9.197799,-0.843304,-1.760635,-0.419451,0.281499,0.316992,39.108757,20.868982,10.133138,4.63583E+18,0.460836,0.489004,0.59457,-0.441579,0
-10.157367,-0.76092,1.238257,-0.101829,-0.075415,0.058179,43.072904,-7.433061,9.631641,4.63583E+18,0.787141,-0.062663,0.60728,0.087719,-11.103207,-0.491614,-0.453928,0.021545,-0.696146,-0.518934,44.322911,-11.583635,7.46085,4.63582E+18,0.589563,-0.484861,0.520833,0.382176,-9.122686,-1.252667,-1.340936,-0.399487,0.288811,0.299328,39.06369,20.502804,10.598843,4.63583E+18,0.461443,0.489488,0.595281,-0.439446,0
-10.077615,-0.638846,1.51455,-0.093498,-0.118851,0.064018,42.02845,-7.115277,9.595826,4.63583E+18,0.787369,-0.06275,0.606904,0.088209,-11.219751,-0.499398,-0.619301,-0.02361,-0.727613,-0.547483,44.559315,-11.260674,7.256687,4.63582E+18,0.591906,-0.484909,0.517949,0.382412,-9.186541,-0.708968,-1.185057,-0.357583,0.293494,0.275746,39.058056,20.428621,10.771624,4.63583E+18,0.461907,0.489999,0.595969,-0.43745,0
-10.042217,-0.440679,1.689098,-0.094709,-0.158942,0.07178,42.367858,-7.069718,9.493695,4.63583E+18,0.787694,-0.062806,0.606399,0.088738,-11.286318,-0.533808,-0.823508,-0.063713,-0.752955,-0.571466,44.492624,-10.997683,7.227889,4.63582E+18,0.594252,-0.485061,0.514883,0.382722,-9.444774,-0.13522,-1.370985,-0.313789,0.290865,0.264161,38.983875,20.355375,10.674904,4.63583E+18,0.462266,0.490559,0.596594,-0.43559,0
-10.03001,-0.075282,1.777396,-0.108915,-0.219753,0.077797,43.320003,-7.240617,9.316693,4.63583E+18,0.788166,-0.062871,0.60569,0.089339,-11.136466,-0.592619,-1.086482,-0.037188,-0.785286,-0.602729,44.339494,-10.830173,6.960414,4.63582E+18,0.596761,-0.485155,0.511709,0.382956,-9.857004,-0.158693,-1.713731,-0.286181,0.295548,0.253316,38.912505,20.417352,10.631701,4.63583E+18,0.462534,0.491152,0.597196,-0.433807,0
-9.964085,0.360943,2.077711,-0.132736,-0.257779,0.085096,43.508399,-7.286188,9.131138,4.63583E+18,0.788723,-0.062982,0.604849,0.090033,-11.076551,-0.698049,-1.232956,0.013404,-0.82034,-0.642542,44.54705,-10.582692,6.412178,4.63582E+18,0.599501,-0.485143,0.508439,0.383047,-10.067363,-0.298631,-1.75322,-0.302437,0.304422,0.228587,39.015763,20.344123,11.081442,4.63583E+18,0.462767,0.491666,0.597894,-0.432012,0
-9.814358,0.776764,2.463426,-0.16264,-0.23457,0.095385,43.241487,-7.088456,9.198261,4.63583E+18,0.789209,-0.063173,0.604076,0.090831,-11.094312,-0.608143,-1.111974,0.050205,-0.869184,-0.687016,44.7801,-10.326336,6.004907,4.63582E+18,0.602479,-0.485046,0.505006,0.38304,-10.014766,-0.240392,-1.525925,-0.358405,0.304093,0.215602,39.166984,20.264289,11.341616,4.63583E+18,0.463089,0.492037,0.598715,-0.430102,0
-9.662183,1.068124,2.720598,-0.187849,-0.20811,0.101474,43.109643,-6.871162,9.278453,4.63583E+18,0.789618,-0.063443,0.603381,0.091704,-11.107628,-0.675852,-1.098666,0.030101,-0.905792,-0.744503,44.80117,-10.081079,5.791845,4.63582E+18,0.605571,-0.485051,0.501322,0.382996,-9.916168,-0.538998,-1.233887,-0.389217,0.298999,0.213876,39.076837,20.105594,11.360397,4.63583E+18,0.463482,0.492333,0.599583,-0.428127,0
-9.429843,1.206493,2.915923,-0.206115,-0.203662,0.100691,43.055511,-6.82555,9.149467,4.63583E+18,0.790009,-0.063775,0.602694,0.092619,-10.698095,0.248654,-0.887796,0.020974,-0.900254,-0.81976,44.867762,-9.825833,5.418952,4.63582E+18,0.608739,-0.485233,0.497474,0.38276,-9.804439,-1.154996,-1.271407,-0.362604,0.284703,0.217162,38.949117,19.946916,11.473046,4.63583E+18,0.46386,0.49266,0.600366,-0.42624,0
-9.094595,1.240682,3.03517,-0.230322,-0.156076,0.096598,43.118139,-7.085901,9.109527,4.63583E+18,0.790275,-0.064216,0.602152,0.093569,-10.67926,0.519382,-0.900021,-0.037972,-0.895496,-0.907349,45.096382,-9.569478,5.128201,4.63582E+18,0.611902,-0.485741,0.493354,0.382405,-9.670157,-1.207652,-1.605714,-0.283647,0.279279,0.221189,39.051464,19.788219,11.743522,4.63583E+18,0.464094,0.493139,0.600987,-0.424552,0
-8.82679,1.174798,2.955868,-0.260123,-0.069413,0.087555,43.315874,-7.438317,9.241004,4.63583E+18,0.790317,-0.064812,0.601881,0.09454,-11.302916,-0.350643,-0.847862,-0.093315,-0.917441,-0.963953,45.185145,-9.168888,4.914044,4.63582E+18,0.615071,-0.486457,0.488962,0.382052,-9.535877,-0.744672,-1.84611,-0.180201,0.284867,0.222421,39.197971,19.636087,11.743522,4.63583E+18,0.464102,0.493829,0.601432,-0.423109,0
-8.787283,0.948996,2.702389,-0.285547,-0.038977,0.076588,43.497403,-7.593005,9.173903,4.63583E+18,0.790279,-0.06553,0.601697,0.095531,-11.919941,-0.173139,-0.387335,-0.086618,-0.959486,-0.991143,45.18071,-8.753841,4.45129,4.63582E+18,0.618363,-0.487129,0.484403,0.381689,-9.402548,-0.621562,-2.040469,-0.076119,0.280022,0.225625,39.192356,19.568468,11.757562,4.63583E+18,0.463913,0.494719,0.601676,-0.421929,0
-8.879622,0.549072,2.47363,-0.290863,-0.100346,0.072846,43.633258,-7.655619,8.950553,4.63583E+18,0.790393,-0.066251,0.601307,0.096539,-12.164111,-0.06881,-0.352904,-0.117494,-0.991628,-1.024449,45.024243,-8.416468,4.05177,4.63582E+18,0.62169,-0.48788,0.479628,0.381355,-9.280487,-0.940738,-2.236648,0.060831,0.268355,0.228829,39.137816,19.556316,11.949067,4.63583E+18,0.463475,0.49586,0.601648,-0.42111,0
-8.990331,0.075404,2.568763,-0.262562,-0.173772,0.079646,43.787956,-7.732601,8.729136,4.63583E+18,0.790694,-0.066832,0.600688,0.097519,-12.260658,0.005537,-0.409493,-0.134293,-1.034251,-1.061539,45.15294,-7.998139,3.661175,4.63582E+18,0.625105,-0.488663,0.474624,0.38103,-9.164952,-1.419724,-2.571979,0.213346,0.258,0.232443,39.307799,19.404155,12.212123,4.63583E+18,0.462753,0.497284,0.601324,-0.420687,0
-9.057046,-0.329477,2.880824,-0.217067,-0.215332,0.087123,43.698517,-7.620322,8.631481,4.63583E+18,0.791107,-0.067228,0.599953,0.098421,-12.434873,0.211927,-0.437243,-0.155072,-1.089695,-1.103778,45.455874,-7.58198,3.448071,4.63582E+18,0.628631,-0.489476,0.469338,0.380735,-9.128334,-1.754127,-2.670617,0.362134,0.251756,0.239924,39.447784,19.342135,12.114474,4.63583E+18,0.46175,0.499002,0.600708,-0.420635,0
-9.150227,-0.628606,3.220192,-0.158218,-0.225168,0.09499,43.481214,-7.551058,8.569597,4.63583E+18,0.791557,-0.067405,0.59921,0.099204,-12.484838,-0.012161,-0.439467,-0.169639,-1.158928,-1.141649,45.695598,-7.155832,3.163988,4.63582E+18,0.632295,-0.49027,0.46375,0.380493,-9.110405,-1.658566,-2.641472,0.497073,0.247401,0.234256,39.351119,19.403229,12.039246,4.63583E+18,0.460465,0.500954,0.599857,-0.420938,0
-9.208853,-0.708888,3.432688,-0.09851,-0.203895,0.103535,43.377376,-7.663328,8.609831,4.63583E+18,0.791965,-0.067373,0.598565,0.09986,-12.410514,-0.158658,-0.672444,-0.167991,-1.211945,-1.17806,45.62797,-6.662055,2.516029,4.63582E+18,0.636093,-0.491022,0.457929,0.380242,-9.319795,-0.969477,-2.704377,0.564401,0.241243,0.224316,39.136936,19.330861,12.219611,4.63583E+18,0.459034,0.502996,0.598892,-0.42144,0
-9.234466,-0.535267,3.425482,-0.043574,-0.164332,0.108169,43.411926,-7.732625,8.643711,4.63583E+18,0.792287,-0.067165,0.598074,0.100383,-12.336157,-0.27075,-1.039737,-0.19488,-1.252537,-1.214376,45.619064,-6.161557,1.832422,4.63582E+18,0.639939,-0.491826,0.451861,0.380009,-9.539573,0.033545,-2.77397,0.536838,0.225061,0.210107,39.136004,19.415362,12.190725,4.63583E+18,0.457674,0.504917,0.597969,-0.421931,0
-9.287757,-0.207781,3.274543,0.00115,-0.161477,0.104078,43.516433,-7.70973,8.546064,4.63583E+18,0.792616,-0.066821,0.597611,0.10078,-12.407136,-0.28077,-0.907841,-0.315066,-1.257113,-1.244869,45.752196,-5.583395,1.415064,4.63582E+18,0.643562,-0.492973,0.445505,0.37991,-9.604427,0.41987,-2.649083,0.446859,0.206901,0.19211,39.11913,19.470884,11.841181,4.63583E+18,0.456514,0.506587,0.597205,-0.422269,0
-9.304123,0.113747,3.160525,0.03796,-0.20579,0.092694,43.648317,-7.826441,8.417146,4.63583E+18,0.793069,-0.066364,0.597013,0.101059,-12.226353,-0.502625,-1.024253,-0.422944,-1.211591,-1.26895,45.754464,-5.23045,1.02447,4.63582E+18,0.646881,-0.494499,0.439025,0.379832,-9.564073,0.145789,-2.490388,0.356462,0.189396,0.177068,39.058015,19.313123,11.85611,4.63583E+18,0.45556,0.508015,0.596595,-0.422447,0
-9.211819,0.357895,3.199835,0.077091,-0.244632,0.07219,43.639971,-7.934812,8.229568,4.63583E+18,0.793636,-0.065813,0.596298,0.101184,-12.085385,-0.968621,-1.17074,-0.484042,-1.194389,-1.290508,45.830995,-4.96741,0.633837,4.63582E+18,0.650042,-0.496228,0.432427,0.37975,-9.484221,-0.333136,-2.329846,0.297305,0.181006,0.174108,39.154639,19.18342,12.028115,4.63583E+18,0.454745,0.509306,0.596078,-0.422499,0
-9.065331,0.56631,3.366272,0.119061,-0.234105,0.048014,43.500334,-7.876746,8.03425,4.63583E+18,0.794198,-0.065188,0.595629,0.101122,-11.784715,-1.0354,-0.906804,-0.559095,-1.148474,-1.281782,46.049558,-4.333906,0.065719,4.63582E+18,0.652915,-0.498189,0.425828,0.379711,-9.484126,-0.666749,-2.151393,0.245218,0.187823,0.173537,39.374467,19.257598,11.919179,4.63583E+18,0.454022,0.510507,0.595665,-0.422409,0
-8.90545,0.712793,3.408843,0.164,-0.190443,0.020998,43.477411,-7.776116,7.874669,4.63583E+18,0.794674,-0.0645,0.595116,0.100846,-11.112437,-1.636557,-0.956572,-0.582617,-1.084787,-1.270034,46.059649,-3.751303,-0.431443,4.63582E+18,0.655572,-0.500266,0.419366,0.379593,-9.638063,-0.593603,-2.015349,0.184082,0.199165,0.166876,39.431873,19.317897,11.851329,4.63583E+18,0.453389,0.511596,0.595394,-0.422155,0
-8.780399,0.859277,3.263549,0.196096,-0.170721,-0.010159,43.56286,-7.80291,7.884189,4.63583E+18,0.795122,-0.063791,0.594672,0.100382,-10.615147,-2.262476,-0.798018,-0.598834,-1.022542,-1.262166,45.892168,-3.244108,-0.919733,4.63582E+18,0.658041,-0.502446,0.413044,0.379375,-9.874728,-0.39621,-1.718589,0.133472,0.205653,0.169673,39.307838,19.086805,12.136813,4.63583E+18,0.452851,0.512606,0.595217,-0.421756,0
-8.796174,0.974505,3.12808,0.205554,-0.162777,-0.034414,43.585792,-7.84936,8.008057,4.63583E+18,0.795561,-0.063114,0.594253,0.099812,-9.994874,-2.85178,-0.770183,-0.593506,-0.950885,-1.23528,46.097242,-2.732513,-1.3193,4.63582E+18,0.660323,-0.504653,0.406962,0.379052,-10.00356,-0.477833,-1.543714,0.092695,0.213294,0.168513,39.31993,19.031226,12.309829,4.63583E+18,0.452379,0.513548,0.595127,-0.421242,0
-8.94858,1.004286,2.906902,0.196515,-0.127507,-0.043196,43.531601,-7.853825,7.972343,4.63583E+18,0.795913,-0.062504,0.593944,0.099225,-9.493235,-3.448761,-0.358744,-0.538482,-0.913191,-1.204502,46.252648,-2.230948,-1.709895,4.63582E+18,0.662579,-0.506693,0.401118,0.378624,-9.915332,-0.65535,-1.614163,0.076094,0.222906,0.178462,39.460033,19.17783,12.212182,4.63583E+18,0.451936,0.5145,0.595063,-0.420647,0
-9.221616,0.975406,2.581756,0.18164,-0.124236,-0.0365,43.531601,-7.76781,7.905933,4.63583E+18,0.796249,-0.061928,0.593642,0.098696,-9.038263,-3.769644,0.248112,-0.468971,-0.870283,-1.143453,46.110821,-1.963359,-2.011778,4.63582E+18,0.664786,-0.508485,0.395614,0.378143,-9.807182,-0.748512,-1.64058,0.065089,0.232356,0.179205,39.369955,19.165773,12.129371,4.63583E+18,0.451493,0.515449,0.595033,-0.420002,0
-9.466656,0.938786,2.34027,0.15666,-0.196418,-0.027254,43.531601,-7.573966,7.9339,4.63583E+18,0.796753,-0.061383,0.593093,0.098278,-8.420271,-4.140236,0.959388,-0.387801,-0.819697,-1.091977,46.084066,-1.563979,-2.227135,4.63582E+18,0.666977,-0.510029,0.390472,0.377549,-9.869154,-0.6182,-1.560557,0.049564,0.239428,0.176488,39.222518,19.012633,12.234472,4.63583E+18,0.451061,0.516374,0.595048,-0.419309,0
-9.591739,0.951265,2.315214,0.122766,-0.264007,-0.011232,43.562846,-7.613498,7.893184,4.63583E+18,0.797407,-0.060883,0.592309,0.098013,-7.951858,-4.607319,1.679546,-0.328845,-0.772312,-1.034019,46.227075,-1.071364,-2.423552,4.63582E+18,0.669104,-0.511373,0.385666,0.376907,-9.92754,-0.244418,-1.712482,0.026727,0.241239,0.179043,39.082398,18.933683,12.422359,4.63583E+18,0.450677,0.517264,0.5951,-0.418551,0
-9.580448,1.03553,2.450672,0.092595,-0.270826,0.003228,43.64383,-7.807358,7.612426,4.63583E+18,0.798062,-0.060445,0.591493,0.097873,-7.411495,-4.628847,2.07826,-0.280965,-0.712703,-0.925797,46.086429,-0.648473,-2.807342,4.63582E+18,0.67105,-0.512489,0.381322,0.376353,-9.819389,0.034922,-2.068461,-0.004124,0.238454,0.173378,39.167841,18.92812,12.520006,4.63583E+18,0.450356,0.518076,0.595212,-0.417732,0
-9.538444,1.087637,2.551347,0.064989,-0.216909,0.019661,43.690296,-7.803566,7.46554,4.63583E+18,0.79857,-0.06008,0.590849,0.097841,-6.185872,-3.839449,1.346897,-0.239787,-0.6654,-0.66803,45.993132,-0.455156,-3.110406,4.63582E+18,0.67259,-0.513144,0.377717,0.376345,-9.873938,-0.15465,-2.301301,-0.073288,0.22753,0.16409,39.253284,18.848401,12.610248,4.63583E+18,0.450195,0.518716,0.595442,-0.416782,0
-9.586336,1.097491,2.542426,0.023416,-0.168438,0.044616,43.65907,-7.698411,7.555447,4.63583E+18,0.798938,-0.059812,0.590357,0.097982,-3.883258,-0.910935,1.014606,-0.074075,-0.593285,-0.310325,45.974202,-0.284271,-3.225986,4.63582E+18,0.673803,-0.512878,0.375335,0.37692,-9.821751,-0.389884,-2.541744,-0.150386,0.213969,0.158992,39.332253,18.701742,12.610248,4.63583E+18,0.450224,0.519174,0.595791,-0.41568,0
-9.660518,1.007332,2.504626,-0.01851,-0.145513,0.072986,43.546847,-7.784352,7.621881,4.63583E+18,0.799226,-0.059623,0.58993,0.098315,-3.562454,-1.609165,0.434537,-0.192504,-0.305125,-0.209723,45.895485,-0.046858,-3.501008,4.63582E+18,0.674151,-0.513238,0.373789,0.377344,-9.455192,-0.221774,-2.724099,-0.203706,0.20379,0.156937,39.337798,18.708212,12.616718,4.63583E+18,0.45039,0.519508,0.596217,-0.414471,0
-9.672725,0.779598,2.45251,-0.04811,-0.108555,0.110784,43.47738,-7.915788,7.629627,4.63583E+18,0.799399,-0.059455,0.589624,0.098837,-3.729718,-0.378806,-1.295444,-0.51266,-0.03804,-0.077823,45.965225,0.042097,-3.705304,4.63582E+18,0.673189,-0.514709,0.37277,0.378066,-9.406877,-0.121658,-2.736512,-0.254667,0.186217,0.15603,39.412883,18.775194,12.710468,4.63583E+18,0.450707,0.519713,0.596698,-0.413174,0
-9.711696,0.510122,2.41143,-0.071998,-0.076537,0.15515,43.558365,-7.830342,7.58948,4.63583E+18,0.79947,-0.059271,0.589426,0.099557,-3.392987,2.726344,-1.996917,-0.662008,0.114133,0.158877,46.194758,-0.017674,-3.623503,4.63582E+18,0.671292,-0.516468,0.372448,0.379354,-9.641076,-0.463114,-2.628097,-0.286102,0.162069,0.157099,39.485597,18.610013,12.899336,4.63583E+18,0.451153,0.519819,0.597185,-0.411849,0
-9.814985,0.320447,2.411665,-0.091101,-0.09034,0.197976,43.636065,-7.838559,7.488539,4.63583E+18,0.79955,-0.05904,0.589185,0.10047,-3.501125,3.193693,-1.707246,-0.816566,0.197907,0.296025,46.217228,-0.024415,-3.613391,4.63582E+18,0.668709,-0.518573,0.372407,0.381082,-9.591537,-1.068295,-2.839291,-0.280251,0.130512,0.158167,39.26568,18.378812,13.008267,4.63583E+18,0.451665,0.519884,0.597598,-0.410604,0
-9.91358,0.197439,2.492648,-0.09408,-0.113076,0.238152,43.690296,-8.036195,7.403097,4.63583E+18,0.799668,-0.05871,0.588877,0.101529,-3.493564,3.376804,-0.84113,-0.972614,0.279761,0.436614,46.07314,-0.102001,-3.535805,4.63582E+18,0.665426,-0.521016,0.372643,0.38326,-9.397854,-1.271835,-3.069805,-0.227284,0.10528,0.160042,39.209969,18.316643,13.097621,4.63583E+18,0.452128,0.520008,0.597869,-0.409542,0
-9.88779,0.154238,2.548056,-0.090997,-0.126701,0.269023,43.659091,-8.284782,7.317652,4.63583E+18,0.799806,-0.058289,0.588531,0.102687,-3.336163,3.172009,-0.44655,-1.105274,0.400788,0.549571,46.069615,-0.409093,-3.250878,4.63582E+18,0.66147,-0.52383,0.373237,0.385686,-9.387283,-0.962249,-2.990814,-0.158185,0.083694,0.170581,39.368663,18.385273,13.093719,4.63583E+18,0.452513,0.520252,0.597957,-0.408678,0
-9.762419,0.177697,2.523429,-0.099356,-0.113103,0.297084,43.609301,-8.474273,7.232196,4.63583E+18,0.799894,-0.057832,0.588234,0.103955,-3.464484,2.38483,-0.35964,-1.19098,0.520912,0.669286,45.993162,-0.672195,-3.134096,4.63582E+18,0.656926,-0.52687,0.374273,0.3883,-9.521082,-0.46526,-2.990814,-0.145449,0.047925,0.165986,39.509837,18.390107,13.183995,4.63583E+18,0.452951,0.520446,0.597965,-0.407932,0
-9.683762,0.272065,2.422481,-0.103304,-0.105951,0.320277,43.61705,-8.494018,7.209161,4.63583E+18,0.799952,-0.057334,0.587963,0.105308,-3.711839,1.265461,-0.33185,-1.227553,0.648302,0.814229,45.918795,-0.762316,-3.213754,4.63582E+18,0.65184,-0.529968,0.3759,0.391072,-9.344649,-0.181268,-2.982521,-0.13378,0.032064,0.157441,39.430141,18.293598,13.191367,4.63583E+18,0.453388,0.520614,0.597942,-0.407266,0
-9.637069,0.381915,2.368236,-0.092912,-0.117818,0.335415,43.585857,-8.443067,7.299056,4.63583E+18,0.800033,-0.056759,0.58766,0.106688,-3.946004,0.073766,-0.484734,-1.22178,0.762892,0.968405,46.211229,-0.9242,-2.868163,4.63582E+18,0.646305,-0.532969,0.378169,0.393983,-9.122615,-0.153168,-2.865284,-0.12455,0.017937,0.149702,39.290795,18.067187,13.289025,4.63583E+18,0.453828,0.520756,0.597892,-0.406668,0
-9.51151,0.482869,2.359324,-0.080383,-0.132552,0.342486,43.500406,-8.591289,7.231829,4.63583E+18,0.800147,-0.056119,0.587314,0.108064,-4.233315,-0.524121,-0.489424,-1.180176,0.849926,1.13684,46.474312,-1.394231,-2.289221,4.63582E+18,0.640411,-0.535705,0.381092,0.397066,-9.17696,-0.061532,-2.663302,-0.132853,0.001975,0.153045,39.386604,17.920467,13.386674,4.63583E+18,0.45433,0.520863,0.597819,-0.406078,0
-9.347386,0.572777,2.268063,-0.066107,-0.140436,0.342977,43.419411,-8.920507,6.940204,4.63583E+18,0.800282,-0.055425,0.586947,0.109407,-4.603845,-0.52943,-0.432899,-1.15955,0.926553,1.309582,46.287492,-1.894729,-1.879414,4.63582E+18,0.634115,-0.538205,0.384615,0.400382,-9.295354,0.233781,-2.52626,-0.137952,0.000885,0.170238,39.454327,17.925987,13.484333,4.63583E+18,0.454875,0.521,0.597714,-0.405444,0
-9.308817,0.639241,2.145207,-0.054662,-0.169713,0.348911,43.341714,-9.021271,6.823938,4.63583E+18,0.800486,-0.054666,0.586489,0.110749,-5.093068,-0.535998,-0.394021,-1.157872,0.996575,1.471958,45.977994,-2.317676,-1.666048,4.63582E+18,0.627392,-0.540516,0.388659,0.403938,-9.372277,0.22508,-2.349839,-0.137915,0.012715,0.17582,39.459846,17.988194,13.559915,4.63583E+18,0.4554,0.521171,0.59762,-0.404774,0
-9.389811,0.660359,2.20972,-0.041525,-0.218932,0.357253,43.345373,-9.052459,6.788295,4.63583E+18,0.800806,-0.053819,0.585873,0.112098,-5.648969,-0.526046,-0.357399,-1.123942,1.055341,1.640034,45.882191,-2.88784,-1.470729,4.63582E+18,0.620314,-0.54252,0.39326,0.407713,-9.486071,-0.184415,-2.117659,-0.109928,0.025612,0.185168,39.534002,17.909445,13.364618,4.63583E+18,0.455847,0.52144,0.597481,-0.404128,0
-9.405132,0.723717,2.299448,-0.020669,-0.247522,0.359186,43.477339,-9.169104,6.695088,4.63583E+18,0.801198,-0.052884,0.58517,0.113407,-6.177271,-0.535998,-0.387253,-1.050687,1.085876,1.813649,46.041613,-3.617827,-1.087061,4.63582E+18,0.612998,-0.544051,0.398418,0.41171,-9.501034,-0.503259,-2.043229,-0.066376,0.039739,0.203832,39.619452,17.76755,13.191343,4.63583E+18,0.456195,0.521861,0.597256,-0.403525,0
-9.350871,0.824666,2.293835,-0.015835,-0.24576,0.360168,43.473688,-9.304356,6.676467,4.63583E+18,0.801583,-0.051931,0.584474,0.114707,-6.624586,-0.537126,-0.457105,-0.95731,1.128185,1.981922,46.147158,-4.218383,-0.684261,4.63582E+18,0.605472,-0.545081,0.404184,0.415843,-9.5517,-0.527023,-2.100592,-0.027393,0.056347,0.215421,39.692046,17.688528,13.289002,4.63583E+18,0.456437,0.522413,0.59697,-0.40296,0
-9.386502,0.905656,2.279485,-0.01455,-0.240333,0.36151,43.310551,-9.324148,6.702856,4.63583E+18,0.801952,-0.050973,0.583796,0.116006,-7.064048,-0.548204,-0.63005,-0.867093,1.179733,2.129264,46.100801,-4.881877,-0.292499,4.63582E+18,0.59774,-0.545663,0.410525,0.420034,-9.622185,-0.402844,-2.122885,-0.009774,0.066626,0.224472,39.613022,17.683026,13.371978,4.63583E+18,0.45663,0.523037,0.596654,-0.402399,0
-9.497496,0.996692,2.312798,-0.003293,-0.253576,0.351308,43.175292,-9.308786,6.609667,4.63583E+18,0.802357,-0.049996,0.583075,0.117246,-7.58106,-0.604723,-0.802083,-0.773491,1.226257,2.247391,46.117309,-5.841311,0.098138,4.63582E+18,0.589861,-0.545826,0.417363,0.424201,-9.641383,-0.384503,-2.263872,-0.011669,0.072449,0.226528,39.619441,17.60336,13.281654,4.63583E+18,0.456815,0.523672,0.596347,-0.401817,0
-9.578361,1.118757,2.370525,0.005252,-0.28327,0.336355,43.186614,-9.483242,6.524222,4.63583E+18,0.802841,-0.049012,0.582255,0.118421,-8.183457,-0.754366,-0.950815,-0.66012,1.266367,2.346262,45.986649,-6.774619,0.588422,4.63582E+18,0.581919,-0.545538,0.42467,0.42827,-9.452486,-0.14311,-2.327947,-0.01012,0.083235,0.227596,39.699392,17.444668,13.303658,4.63583E+18,0.456972,0.52433,0.596055,-0.401214,0
-9.521649,1.187425,2.439318,0.009513,-0.279621,0.319844,43.318607,-9.750535,6.43877,4.63583E+18,0.803322,-0.048055,0.581444,0.119528,-8.760591,-0.91306,-1.052997,-0.537977,1.292319,2.419232,45.762626,-7.469766,1.077844,4.63582E+18,0.573999,-0.544797,0.432366,0.432182,-9.357271,0.052487,-2.296498,-0.002804,0.082007,0.228744,39.717082,17.292404,13.588346,4.63583E+18,0.457118,0.525002,0.595746,-0.400628,0
-9.422971,1.16301,2.460301,0.004362,-0.231733,0.303732,43.372906,-9.882528,6.313264,4.63583E+18,0.803692,-0.047178,0.580786,0.120584,-9.345415,-0.728386,-1.017738,-0.434524,1.319794,2.46647,45.541765,-8.285167,1.665828,4.63582E+18,0.566099,-0.543698,0.44036,0.435899,-9.435408,0.09949,-2.470473,0.001495,0.078883,0.230159,39.790641,17.218237,13.74401,4.63583E+18,0.457264,0.52568,0.595419,-0.400058,0
-9.408601,1.156397,2.371417,-0.000679,-0.196739,0.291883,43.368454,-9.941277,6.117945,4.63583E+18,0.80398,-0.046363,0.58024,0.121604,-10.064209,-0.552978,-1.101816,-0.399927,1.364037,2.47644,45.477105,-9.347758,2.263925,4.63582E+18,0.558097,-0.542503,0.44848,0.439414,-9.413131,0.12482,-2.52144,-0.006489,0.077708,0.222442,39.722889,17.133702,13.568225,4.63583E+18,0.457417,0.526321,0.59512,-0.399485,0
-9.437465,1.171911,2.252777,0.003504,-0.22651,0.280334,43.333996,-10.038033,5.931535,4.63583E+18,0.804345,-0.045548,0.579593,0.122582,-10.96277,-0.537126,-0.922599,-0.392506,1.40706,2.468313,45.195703,-10.279155,2.673807,4.63582E+18,0.549965,-0.541307,0.45663,0.442736,-9.276713,0.161435,-2.447299,-0.007078,0.088147,0.212162,39.734755,17.071427,13.509262,4.63583E+18,0.457528,0.526953,0.594863,-0.398907,0
-9.429598,1.149668,2.24399,0.009224,-0.297,0.274414,43.256313,-10.313292,5.82738,4.63583E+18,0.804882,-0.044692,0.578711,0.123538,-11.789725,-0.780776,-0.781523,-0.383289,1.431374,2.457731,44.890516,-11.050735,3.075519,4.63582E+18,0.541747,-0.540076,0.464763,0.445897,-9.275473,0.199889,-2.367322,-0.002616,0.094985,0.207141,39.881588,17.139194,13.765056,4.63583E+18,0.457604,0.527591,0.594623,-0.398334,0
-9.31302,1.124216,2.300575,0.006989,-0.358152,0.270043,43.175315,-10.5806,5.875167,4.63583E+18,0.805565,-0.043821,0.57762,0.124495,-12.419213,-1.348233,-0.50333,-0.375615,1.434423,2.451896,44.585398,-11.95137,3.64436,4.63582E+18,0.533472,-0.538767,0.472835,0.44896,-9.409738,0.259093,-2.359679,-0.009184,0.093917,0.205514,39.876113,17.128244,13.841715,4.63583E+18,0.457694,0.52821,0.594394,-0.397751,0
-9.168801,1.183076,2.39388,0.004273,-0.392118,0.260521,43.155442,-10.654792,5.940558,4.63583E+18,0.806332,-0.042966,0.576411,0.125433,-12.719551,-1.747086,-0.210359,-0.380733,1.435491,2.409741,44.424158,-12.94441,4.064221,4.63582E+18,0.525185,-0.537479,0.480737,0.451872,-9.534893,0.284777,-2.407592,-0.018605,0.093328,0.197288,39.808342,16.986328,13.672292,4.63583E+18,0.457793,0.52879,0.594198,-0.397161,0
-9.084488,1.258496,2.578117,0.002716,-0.398122,0.244011,43.202,-10.577104,5.861645,4.63583E+18,0.807118,-0.042151,0.575176,0.126319,-13.054621,-2.402466,0.005159,-0.40071,1.428807,2.340543,44.211188,-13.72414,4.20136,4.63582E+18,0.516925,-0.536286,0.488365,0.454626,-9.5471,0.184022,-2.437836,-0.040016,0.09827,0.192777,39.81472,16.913632,13.68596,4.63583E+18,0.457918,0.529325,0.594055,-0.396516,0
-8.987879,1.304011,2.72783,-0.006614,-0.386563,0.223228,43.22868,-10.553908,5.599634,4.63583E+18,0.807883,-0.041424,0.573969,0.127154,-13.341061,-3.307595,0.21269,-0.382341,1.398073,2.275759,43.8364,-14.547465,4.654554,4.63582E+18,0.508822,-0.535057,0.495752,0.457213,-9.565685,0.204429,-2.388096,-0.076301,0.098509,0.185061,39.894706,16.974485,13.86998,4.63583E+18,0.45811,0.529771,0.593989,-0.395795,0
-8.869199,1.378395,2.798901,-0.02205,-0.353317,0.198171,43.306378,-10.701633,5.225623,4.63583E+18,0.808577,-0.040826,0.572861,0.127936,-13.389257,-3.736983,0.486666,-0.368632,1.370774,2.215547,43.523286,-15.388644,5.32005,4.63582E+18,0.500857,-0.533806,0.50291,0.459647,-9.656966,0.311934,-2.320697,-0.123998,0.101872,0.175415,39.899634,16.736731,14.044353,4.63583E+18,0.458383,0.530108,0.594029,-0.394967,0
-8.824818,1.471603,2.846505,-0.036233,-0.291276,0.171178,43.271754,-10.864589,4.957252,4.63583E+18,0.809132,-0.040373,0.571948,0.12865,-13.302922,-3.506288,0.612386,-0.392638,1.357638,2.130535,43.362077,-16.219879,5.74894,4.63582E+18,0.492969,-0.532694,0.509746,0.461929,-9.663715,0.220495,-2.186945,-0.150085,0.10769,0.17854,39.826917,16.584403,13.965269,4.63583E+18,0.458704,0.530412,0.594116,-0.394056,0
-8.805984,1.525925,2.781026,-0.060028,-0.247896,0.145545,43.085425,-10.802343,4.997429,4.63583E+18,0.809592,-0.040085,0.571165,0.129326,-13.116684,-3.05831,0.489694,-0.439786,1.333293,2.034236,43.149164,-16.98345,6.063151,4.63582E+18,0.485157,-0.531778,0.516169,0.464116,-9.602678,-0.075064,-2.214998,-0.127051,0.119201,0.180517,39.912369,16.516617,13.972546,4.63583E+18,0.458948,0.530783,0.594182,-0.393172,0
-8.853756,1.539262,2.716676,-0.085656,-0.223712,0.129246,43.151127,-10.693686,5.211504,4.63583E+18,0.809998,-0.039935,0.570446,0.130003,-12.943514,-2.826979,0.298912,-0.501517,1.294093,1.939942,42.774401,-17.585272,6.268671,4.63582E+18,0.477425,-0.531059,0.522131,0.466284,-9.544373,-0.075861,-2.281876,-0.086043,0.127348,0.180358,39.990547,16.522975,14.055662,4.63583E+18,0.459081,0.531245,0.594195,-0.392371,0
-8.972503,1.562548,2.636738,-0.104202,-0.196627,0.119523,43.360695,-10.75591,5.135814,4.63583E+18,0.81034,-0.039886,0.569806,0.130687,-12.761537,-2.719114,0.09252,-0.537407,1.238969,1.845945,42.306252,-18.248743,6.818342,4.63582E+18,0.469869,-0.530458,0.527654,0.468421,-9.528132,0.217117,-2.27966,-0.082734,0.130314,0.177904,39.979244,16.607518,13.964361,4.63583E+18,0.459195,0.531711,0.594214,-0.391577,0
-9.106778,1.549215,2.475797,-0.125372,-0.183721,0.093598,43.240705,-10.926807,4.757401,4.63583E+18,0.810662,-0.039976,0.569194,0.131332,-12.523084,-2.676827,-0.114983,-0.535639,1.181395,1.755834,41.907721,-18.997582,7.315656,4.63582E+18,0.462578,-0.529893,0.532821,0.470464,-9.606318,0.505549,-2.389019,-0.119889,0.130791,0.171098,39.973796,16.663507,13.961234,4.63583E+18,0.459379,0.53209,0.594308,-0.390703,0
-9.236612,1.494819,2.299384,-0.14955,-0.191498,0.068643,43.057759,-11.035493,4.516739,4.63583E+18,0.81101,-0.040203,0.568538,0.13195,-12.3343,-2.640205,-0.189642,-0.518672,1.124684,1.675798,41.594591,-19.754433,7.803947,4.63582E+18,0.45557,-0.52932,0.537693,0.472402,-9.593209,0.712089,-2.327525,-0.180443,0.13704,0.159668,39.906907,16.499415,14.062928,4.63583E+18,0.459662,0.532334,0.594538,-0.389687,0
-9.38979,1.404925,2.239522,-0.158663,-0.225303,0.05195,43.197655,-11.004388,4.618942,4.63583E+18,0.811445,-0.040482,0.56776,0.132539,-12.117973,-2.437502,-0.261751,-0.506327,1.071947,1.599662,41.355838,-20.278778,7.949009,4.63582E+18,0.448823,-0.528751,0.54228,0.47425,-9.564266,0.585923,-2.131332,-0.233411,0.141471,0.152904,39.924547,16.267472,14.070172,4.63583E+18,0.460041,0.532466,0.594876,-0.388542,0
-9.535101,1.325045,2.25725,-0.153526,-0.302996,0.046218,43.3296,-10.950041,4.761972,4.63583E+18,0.812067,-0.040714,0.56672,0.133109,-11.9979,-2.118156,-0.301775,-0.501359,1.025426,1.5248,41.123922,-20.701731,7.959227,4.63582E+18,0.44231,-0.528215,0.546588,0.476017,-9.476085,0.247223,-2.245321,-0.237874,0.147801,0.15504,39.998222,16.058175,14.167842,4.63583E+18,0.460416,0.532605,0.595228,-0.387367,0
-9.505078,1.262882,2.278387,-0.159637,-0.401549,0.037774,43.275246,-11.012245,4.597657,4.63583E+18,0.812923,-0.040932,0.565341,0.133681,-11.876964,-2.021042,-0.360538,-0.489337,0.987246,1.452937,40.814492,-21.205344,8.136357,4.63582E+18,0.436025,-0.527713,0.550658,0.47768,-9.358551,-0.169998,-2.548193,-0.203497,0.152904,0.156701,39.930416,16.12598,14.271827,4.63583E+18,0.460704,0.53282,0.595529,-0.386263,0
-9.371929,1.195207,2.444871,-0.156436,-0.44124,0.038453,43.359646,-11.183134,4.316911,4.63583E+18,0.813869,-0.041115,0.563828,0.134255,-11.75489,-2.058504,-0.51014,-0.456177,0.94308,1.392995,40.497098,-21.784478,8.508805,4.63582E+18,0.430008,-0.52717,0.55455,0.479227,-9.312,-0.12882,-2.656687,-0.156067,0.154327,0.152507,39.942185,16.12598,14.441359,4.63583E+18,0.460877,0.533119,0.595765,-0.385281,0
-9.239878,1.198552,2.644579,-0.165759,-0.417932,0.036899,43.449463,-11.260766,4.102787,4.63583E+18,0.814758,-0.041347,0.562387,0.13484,-11.533206,-1.941289,-0.569195,-0.408341,0.901128,1.33619,40.113324,-22.292885,8.8994,4.63582E+18,0.424285,-0.526563,0.558308,0.48063,-9.440849,0.255916,-2.61285,-0.145388,0.146533,0.149858,40.095448,16.120549,14.441359,4.63583E+18,0.46104,0.533417,0.595974,-0.384347,0
-9.100056,1.254036,2.757773,-0.179644,-0.364135,0.034181,43.286325,-11.175314,4.005128,4.63583E+18,0.815516,-0.041662,0.561118,0.135439,-11.389836,-1.585668,-0.606951,-0.361149,0.864317,1.279585,39.711667,-22.793328,9.112904,4.63582E+18,0.418845,-0.525906,0.561945,0.481882,-9.486514,0.399229,-2.7756,-0.162041,0.134943,0.153418,40.174564,16.046407,14.455821,4.63583E+18,0.461274,0.533674,0.596179,-0.383391,0
-9.054565,1.291769,2.806591,-0.193045,-0.313063,0.029519,43.182025,-11.152022,3.947431,4.63583E+18,0.816154,-0.042062,0.560014,0.136044,-11.388369,-1.229339,-0.632508,-0.3248,0.822186,1.221031,39.397337,-23.304949,9.31931,4.63582E+18,0.413682,-0.525216,0.565429,0.483018,-9.365333,0.336841,-2.829406,-0.187953,0.124222,0.148552,40.181795,15.968187,14.657466,4.63583E+18,0.461584,0.533851,0.596415,-0.382404,0
-9.150009,1.321728,2.827681,-0.208969,-0.294226,0.025636,43.185353,-11.175321,3.950759,4.63583E+18,0.816745,-0.042536,0.558964,0.136669,-11.334168,-1.07458,-0.656921,-0.297302,0.785274,1.158415,39.147521,-23.574119,9.50468,4.63582E+18,0.408776,-0.524532,0.568745,0.484044,-9.555227,0.107614,-2.79188,-0.228306,0.10092,0.150648,40.278551,15.967742,14.924677,4.63583E+18,0.462045,0.533918,0.596664,-0.381363,0
-9.329791,1.306192,2.892043,-0.21062,-0.314038,0.045155,43.146507,-11.156462,3.80536,4.63583E+18,0.817368,-0.042959,0.557847,0.137368,-11.273132,-1.028841,-0.670267,-0.26963,0.745084,1.099268,38.693089,-23.906806,9.787399,4.63582E+18,0.404131,-0.523842,0.571899,0.484974,-9.658337,-0.096707,-2.750275,-0.234565,0.094313,0.165679,40.352259,15.797332,15.015106,4.63583E+18,0.46256,0.533999,0.596876,-0.380293,0
-9.306486,1.408284,2.806597,-0.227126,-0.368412,0.061953,43.123205,-11.249675,3.391449,4.63583E+18,0.818103,-0.043368,0.556538,0.138171,-11.101418,-0.881542,-0.682475,-0.2283,0.701589,1.04052,38.504761,-24.248613,9.903294,4.63582E+18,0.399785,-0.523119,0.574917,0.485787,-9.528568,-0.382515,-2.80091,-0.185193,0.098506,0.181465,40.278115,15.497085,15.008789,4.63583E+18,0.462979,0.53422,0.596983,-0.379305,0
-9.178851,1.551456,2.826546,-0.247713,-0.40813,0.070009,43.235283,-11.335123,3.017461,4.63583E+18,0.818919,-0.043805,0.555082,0.139056,-10.973658,-0.722863,-0.794278,-0.198167,0.660705,0.983715,38.50101,-24.579316,10.012008,4.63582E+18,0.395707,-0.522384,0.577788,0.486509,-9.460737,-0.243776,-2.863326,-0.135381,0.101316,0.193887,40.192662,15.435997,14.929654,4.63583E+18,0.463299,0.534572,0.596987,-0.37841,0
-9.258753,1.524802,3.091787,-0.259263,-0.399586,0.104967,43.336281,-11.358446,2.928653,4.63583E+18,0.81969,-0.044206,0.553652,0.140085,-10.917983,-0.575235,-0.872086,-0.168359,0.620116,0.927104,38.203363,-24.842515,10.110807,4.63582E+18,0.391897,-0.521643,0.580515,0.487142,-9.467944,0.236849,-2.802702,-0.12022,0.097998,0.201679,40.125236,15.655793,14.928753,4.63583E+18,0.463605,0.534966,0.596943,-0.377545,0
-9.267653,1.538164,3.188335,-0.283059,-0.377067,0.120505,43.305228,-11.304055,2.955324,4.63583E+18,0.820392,-0.044665,0.552286,0.141218,-10.924485,-0.528342,-0.889999,-0.146197,0.587272,0.868555,37.807366,-25.09887,10.28593,4.63582E+18,0.388325,-0.520929,0.583094,0.487687,-9.551201,0.443579,-2.894054,-0.142648,0.081022,0.213191,40.267727,15.55416,14.925542,4.63583E+18,0.464022,0.535319,0.596875,-0.37664,0
-9.166708,1.483725,3.155133,-0.28694,-0.336282,0.112652,43.250832,-11.397189,2.826631,4.63583E+18,0.821,-0.045179,0.551055,0.142324,-10.859237,-0.502789,-0.880076,-0.130645,0.552327,0.814655,37.703316,-25.499042,10.57967,4.63582E+18,0.384973,-0.520241,0.585519,0.488173,-9.449945,0.336411,-2.905362,-0.163584,0.078728,0.221736,40.200393,15.253474,15.028213,4.63583E+18,0.464504,0.535648,0.596815,-0.375671,0
-9.102251,1.515954,3.064023,-0.28559,-0.305208,0.098751,43.308497,-11.618077,2.643506,4.63583E+18,0.821543,-0.045738,0.549926,0.143373,-10.71962,-0.400933,-0.823616,-0.124406,0.525795,0.76803,37.552637,-25.692776,10.951199,4.63582E+18,0.381788,-0.519594,0.587803,0.488619,-9.302576,0.273052,-2.890995,-0.164227,0.075006,0.22973,40.070085,15.021926,15.039521,4.63583E+18,0.465008,0.53599,0.596731,-0.374693,0
-9.162228,1.37953,3.153945,-0.270533,-0.292664,0.116324,43.378483,-11.692499,2.455976,4.63583E+18,0.822048,-0.046213,0.548851,0.144445,-10.573133,-0.246814,-0.795769,-0.134554,0.495319,0.724036,37.3165,-25.786234,11.163675,4.63582E+18,0.378739,-0.519001,0.589913,0.489078,-9.154656,0.326014,-2.707354,-0.144345,0.077583,0.231348,40.155874,14.954069,15.045797,4.63583E+18,0.465464,0.536377,0.596615,-0.373755,0
-9.064644,1.199667,3.126254,-0.272276,-0.271166,0.126143,43.266446,-11.583802,2.296151,4.63583E+18,0.822494,-0.046684,0.54785,0.14555,-10.53728,-0.077073,-0.826667,-0.159853,0.47209,0.680247,37.094501,-26.247783,10.927556,4.63582E+18,0.375776,-0.518502,0.591833,0.489573,-9.139759,0.292425,-2.677008,-0.102373,0.072869,0.239344,40.382092,14.94869,15.138421,4.63583E+18,0.46585,0.536857,0.596407,-0.372916,0
-8.956893,1.046697,2.962101,-0.271512,-0.199463,0.130398,43.191975,-11.474959,2.233955,4.63583E+18,0.822772,-0.047186,0.547094,0.146654,-10.512866,0.027458,-0.841165,-0.195267,0.450627,0.639357,37.007514,-26.748281,10.989705,4.63582E+18,0.372869,-0.518109,0.59355,0.490133,-9.104378,0.456501,-2.731216,-0.059032,0.075368,0.240098,40.377609,14.862894,15.30898,4.63583E+18,0.466134,0.537427,0.596134,-0.372178,0
-8.968009,0.827851,2.685775,-0.261404,-0.235501,0.141975,43.269648,-11.505986,2.269414,4.63583E+18,0.823126,-0.047605,0.546222,0.14778,-10.399956,0.036622,-0.875496,-0.229649,0.425392,0.601671,36.779404,-27.027548,11.441343,4.63582E+18,0.370023,-0.517805,0.59507,0.490767,-9.247624,0.6732,-2.849704,-0.050939,0.068096,0.23705,40.326432,14.625918,15.320292,4.63583E+18,0.466412,0.537993,0.59584,-0.371481,0
-9.079883,0.866726,2.607786,-0.252295,-0.338479,0.123532,43.293053,-11.56041,2.260711,4.63583E+18,0.823724,-0.047971,0.544998,0.148843,-10.200449,-0.04081,-0.823624,-0.269637,0.392981,0.559446,36.612686,-26.974173,11.398672,4.63582E+18,0.367253,-0.517597,0.596361,0.4915,-9.477981,0.69134,-2.920259,-0.07582,0.050644,0.23559,40.382645,14.50722,15.320292,4.63583E+18,0.466787,0.538479,0.595553,-0.370765,0
-9.382906,0.915478,2.846424,-0.235088,-0.372192,0.1137,43.181005,-11.622459,1.96788,4.63583E+18,0.824406,-0.048279,0.543666,0.149839,-10.070369,-0.192616,-0.762594,-0.310222,0.362776,0.511886,36.531433,-27.043577,11.035571,4.63582E+18,0.364565,-0.517502,0.597414,0.492322,-9.382123,0.641946,-2.948821,-0.104813,0.042334,0.229182,40.2356,14.722128,15.334613,4.63583E+18,0.467238,0.53888,0.595308,-0.370007,0
-9.572784,1.094087,2.969742,-0.239456,-0.395583,0.131662,43.10652,-11.824395,1.605928,4.63583E+18,0.825125,-0.048547,0.542252,0.150911,-10.025719,-0.362371,-0.723678,-0.354682,0.347385,0.458013,36.458188,-27.427658,11.186896,4.63582E+18,0.361926,-0.517573,0.598231,0.493201,-9.3232,0.739605,-2.869311,-0.13485,0.037463,0.222773,40.248131,14.715862,15.514715,4.63583E+18,0.467758,0.539198,0.595114,-0.369199,0
-9.610571,1.359286,2.909877,-0.24664,-0.441979,0.140227,43.184191,-12.076299,1.493735,4.63583E+18,0.82594,-0.048791,0.540674,0.152037,-10.022278,-0.489033,-0.797659,-0.372447,0.334467,0.407409,36.230098,-27.698925,11.460784,4.63582E+18,0.359383,-0.517767,0.598877,0.494072,-9.439903,0.818469,-2.708826,-0.149719,0.039236,0.216599,40.417245,14.637572,15.489082,4.63583E+18,0.468297,0.539474,0.594959,-0.368361,0
-9.603882,1.59131,2.867569,-0.255573,-0.504517,0.116648,43.238621,-12.231818,1.359704,4.63583E+18,0.826903,-0.049078,0.538867,0.153114,-10.044396,-0.511563,-0.949456,-0.369013,0.314876,0.363985,36.063391,-27.723013,11.398694,4.63582E+18,0.356983,-0.51802,0.599403,0.494909,-9.481578,0.655322,-2.535566,-0.123175,0.04976,0.213551,40.552994,14.642628,15.308084,4.63583E+18,0.468746,0.539809,0.59479,-0.367571,0
-9.588421,1.680191,3.022815,-0.265185,-0.563165,0.078,43.203179,-12.174223,0.933658,4.63583E+18,0.828017,-0.049447,0.536842,0.15409,-9.958222,-0.52377,-1.052856,-0.353029,0.292647,0.323195,35.971049,-27.723013,11.212565,4.63582E+18,0.354754,-0.518302,0.599837,0.495689,-9.441684,0.464183,-2.502819,-0.100484,0.057602,0.212561,40.548526,14.541094,15.329528,4.63583E+18,0.469122,0.540198,0.594603,-0.366821,0
-9.476404,1.632553,3.305717,-0.277898,-0.592255,0.051281,43.140965,-12.046547,0.622578,4.63583E+18,0.829204,-0.049901,0.534699,0.155008,-9.838445,-0.425388,-1.050985,-0.327229,0.266345,0.288411,35.974067,-27.944191,11.205248,4.63582E+18,0.352718,-0.518576,0.600207,0.496408,-9.508675,0.641313,-2.65943,-0.102645,0.057158,0.211859,40.486606,14.246649,15.601954,4.63583E+18,0.469503,0.54058,0.59442,-0.366068,0
-9.242386,1.482808,3.537882,-0.29567,-0.561398,0.052709,43.109954,-12.030887,0.556128,4.63583E+18,0.830312,-0.050433,0.532649,0.155962,-9.838017,-0.337649,-1.049837,-0.300529,0.243514,0.248429,35.975216,-28.121967,11.294856,4.63582E+18,0.350877,-0.518861,0.600509,0.497048,-9.494684,0.879825,-2.636799,-0.118823,0.064401,0.202324,40.424066,14.104904,15.598994,4.63583E+18,0.469887,0.540917,0.594296,-0.365277,0
-8.907186,1.369391,3.590058,-0.310822,-0.48765,0.066036,43.055511,-12.116335,0.368595,4.63583E+18,0.831239,-0.051035,0.530843,0.15698,-9.783879,-0.307485,-1.049837,-0.281565,0.222051,0.205905,35.908873,-28.138065,11.215596,4.63582E+18,0.349219,-0.519179,0.600725,0.497624,-9.447355,0.888464,-2.645721,-0.135186,0.067893,0.194169,40.492851,14.155844,15.425088,4.63583E+18,0.470287,0.541207,0.594222,-0.364453,0
-8.741579,1.376202,3.542535,-0.324895,-0.387222,0.074352,43.175082,-12.201781,0.20872,4.63583E+18,0.831932,-0.051733,0.529375,0.158035,-9.711785,-0.316243,-1.071952,-0.256634,0.208428,0.166082,35.824571,-28.138065,11.029478,4.63582E+18,0.347729,-0.519531,0.600884,0.498106,-9.267814,0.841138,-2.768686,-0.127919,0.061406,0.19112,40.51041,13.917662,15.529882,4.63583E+18,0.470682,0.541493,0.59413,-0.363667,0
-8.6675,1.301764,3.240953,-0.339954,-0.371243,0.085285,43.354116,-12.256233,0.150917,4.63583E+18,0.832575,-0.052469,0.527953,0.159158,-9.638549,-0.29528,-1.10742,-0.221327,0.18884,0.130434,35.750186,-28.292849,11.187975,4.63582E+18,0.346439,-0.519879,0.60101,0.49849,-9.141563,0.665172,-2.902952,-0.109685,0.054008,0.19052,40.589615,13.618118,15.710928,4.63583E+18,0.471053,0.541801,0.593996,-0.362945,0
-8.549478,1.223152,2.982902,-0.346467,-0.424653,0.091404,43.153567,-12.256233,0.056874,4.63583E+18,0.833326,-0.053179,0.526341,0.160326,-9.565305,-0.182418,-1.088762,-0.19275,0.173382,0.09712,35.665886,-28.38636,11.383291,4.63582E+18,0.345318,-0.520236,0.6011,0.498787,-9.110914,0.593972,-3.030999,-0.089756,0.047755,0.195783,40.59585,13.555562,15.718053,4.63583E+18,0.471403,0.542152,0.593808,-0.362275,0
-8.740225,1.156211,3.133811,-0.354507,-0.406695,0.140303,42.923375,-12.225247,-0.192899,4.63583E+18,0.834,-0.053821,0.524794,0.161678,-9.536285,-0.18196,-1.031179,-0.164011,0.155526,0.06304,35.657825,-28.317028,11.401714,4.63582E+18,0.344375,-0.5206,0.601149,0.499001,-9.009954,0.695822,-3.0825,-0.062086,0.042703,0.19951,40.675068,13.623462,15.808587,4.63583E+18,0.471707,0.542558,0.593559,-0.361678,0
-8.95124,1.310476,3.265945,-0.362021,-0.401599,0.128334,43.089565,-12.232747,-0.348375,4.63583E+18,0.834664,-0.054518,0.523254,0.163002,-9.43449,-0.22733,-0.981203,-0.134206,0.132533,0.035634,35.514116,-28.386351,11.22484,4.63582E+18,0.34361,-0.520942,0.601166,0.49915,-9.028385,0.695822,-3.166164,-0.050748,0.027828,0.196773,40.675068,13.618126,15.801473,4.63583E+18,0.472019,0.542957,0.593269,-0.361148,0
-9.030123,1.364017,3.28058,-0.357911,-0.429745,0.084409,43.237696,-12.403649,-0.504642,4.63583E+18,0.835415,-0.055277,0.521607,0.16417,-9.402006,-0.209832,-0.92132,-0.106233,0.110001,0.009898,35.565455,-28.394421,11.206396,4.63582E+18,0.343017,-0.521261,0.601153,0.499241,-9.123375,0.707381,-3.218309,-0.058925,0.014254,0.199899,40.669733,13.544883,15.710928,4.63583E+18,0.472388,0.543327,0.592957,-0.360622,0
-9.019138,1.302834,3.214972,-0.368604,-0.474188,0.067881,43.097784,-12.455068,-0.860601,4.63583E+18,0.836268,-0.056078,0.519791,0.165313,-9.3997,-0.240689,-0.882392,-0.089101,0.083701,-0.015737,35.71608,-28.239657,11.383268,4.63582E+18,0.342579,-0.521565,0.601083,0.499308,-9.183518,0.864284,-3.158166,-0.076402,0.004642,0.20188,40.608036,13.476974,15.731346,4.63583E+18,0.472822,0.543652,0.592647,-0.36007,0
-8.92376,1.349379,3.29799,-0.373745,-0.52326,0.063221,43.069857,-12.296359,-1.278125,4.63583E+18,0.837223,-0.056873,0.517796,0.166462,-9.322329,-0.332573,-0.856827,-0.076949,0.062803,-0.043304,35.653698,-28.146145,11.567512,4.63582E+18,0.342278,-0.521878,0.600947,0.499352,-9.23146,0.98081,-3.102235,-0.0986,-0.00435,0.201958,40.692602,13.470759,15.985484,4.63583E+18,0.47333,0.54392,0.592353,-0.359484,0
-8.798339,1.439248,3.505497,-0.386161,-0.531299,0.054009,43.116547,-12.164224,-1.433917,4.63583E+18,0.838193,-0.057725,0.515759,0.167606,-9.281089,-0.341807,-0.799253,-0.060364,0.037673,-0.075912,35.424558,-28.215436,11.584826,4.63582E+18,0.342144,-0.522196,0.600739,0.499361,-9.268082,0.883371,-2.955747,-0.116894,-0.005418,0.202327,40.77206,13.386196,15.898257,4.63583E+18,0.473881,0.544151,0.592082,-0.358854,0
-8.648676,1.457279,3.668769,-0.404999,-0.49867,0.046503,43.116547,-12.140707,-1.410399,4.63583E+18,0.839088,-0.058682,0.513818,0.168755,-9.343945,-0.231277,-0.749269,-0.045208,0.007202,-0.103221,35.489895,-28.378259,11.41903,4.63582E+18,0.342176,-0.522498,0.60046,0.49936,-9.309131,0.952377,-2.809276,-0.12307,-0.006331,0.194558,40.913013,13.318277,15.783087,4.63583E+18,0.474437,0.544348,0.591835,-0.358225,0
-8.446629,1.405978,3.732105,-0.424706,-0.438569,0.046239,43.143089,-12.226161,-1.637409,4.63583E+18,0.839844,-0.059749,0.51207,0.16993,-9.361922,-0.142371,-0.711497,-0.04186,-0.014101,-0.140559,35.642801,-28.394421,11.401714,4.63582E+18,0.342346,-0.522844,0.600075,0.499343,-9.404124,1.108219,-2.666343,-0.12728,-0.00565,0.196771,40.811643,13.306775,15.628311,4.63583E+18,0.475005,0.544543,0.591591,-0.357581,0
-8.421687,1.488062,3.690178,-0.444814,-0.327289,0.037772,43.189793,-12.342565,-2.01174,4.63583E+18,0.840359,-0.060984,0.510692,0.171089,-9.274666,-0.101127,-0.741184,-0.053262,-0.035362,-0.17321,35.657825,-28.317059,11.401714,4.63582E+18,0.342613,-0.523243,0.599565,0.499354,-9.460737,1.08133,-2.561605,-0.145764,-0.009381,0.199357,40.529465,13.153387,15.827874,4.63583E+18,0.475627,0.544702,0.59136,-0.356894,0
-8.631626,1.537048,3.433904,-0.470926,-0.301137,0.058613,43.10118,-12.451551,-2.16731,4.63583E+18,0.840792,-0.062283,0.509389,0.17237,-9.221219,-0.15291,-0.799903,-0.07188,-0.04512,-0.212986,35.657825,-28.231617,11.401714,4.63582E+18,0.342946,-0.523748,0.598916,0.499375,-9.467815,1.189605,-2.372481,-0.183707,-0.006331,0.194325,40.557596,13.063512,15.917569,4.63583E+18,0.476319,0.544777,0.591202,-0.356116,0
-8.762724,1.544831,3.13505,-0.501547,-0.393878,0.102942,42.972313,-12.393771,-2.363976,4.63583E+18,0.841377,-0.063529,0.507749,0.173894,-9.260785,-0.180794,-0.805689,-0.075636,-0.0701,-0.24197,35.801459,-28.146176,11.224934,4.63582E+18,0.343393,-0.524279,0.598159,0.499418,-9.561046,1.431076,-2.253793,-0.243685,-0.004877,0.193026,40.779795,12.910856,15.913313,4.63583E+18,0.477143,0.544731,0.591138,-0.355189,0
-8.783763,1.652493,3.044037,-0.511357,-0.442231,0.126341,43.045551,-12.26175,-2.71903,4.63583E+18,0.842039,-0.064724,0.505934,0.175532,-9.320662,-0.149965,-0.883029,-0.142545,-0.050399,-0.336448,35.805472,-27.983384,11.206396,4.63582E+18,0.343842,-0.525181,0.597083,0.499449,-9.599436,1.615634,-2.022736,-0.316663,0.001764,0.18883,40.864204,12.689516,15.997723,4.63583E+18,0.478108,0.544539,0.591204,-0.354074,0
-8.877092,1.781197,3.028591,-0.518244,-0.450354,0.143037,43.092133,-12.269595,-2.869824,4.63583E+18,0.842697,-0.065901,0.504086,0.177245,-10.376076,0.67111,-2.040198,-0.236549,-0.025831,-0.403118,35.881655,-27.90087,11.206396,4.63582E+18,0.344162,-0.526433,0.595699,0.499563,-9.653407,1.465139,-1.828619,-0.347184,0.011068,0.187017,40.778752,12.615547,15.918454,4.63583E+18,0.479116,0.544293,0.591336,-0.352867,0
-9.338891,1.794443,3.20395,-0.512903,-0.402197,0.145751,43.007712,-12.436069,-2.767714,4.63583E+18,0.843246,-0.067088,0.502409,0.178941,-9.834368,0.745812,-3.121826,-0.372304,-0.010933,-0.449699,36.033381,-27.816585,11.206396,4.63582E+18,0.344242,-0.528024,0.593949,0.499912,-9.611496,0.771759,-2.009626,-0.299459,0.016022,0.203115,40.700364,12.683492,15.925509,4.63583E+18,0.480026,0.544189,0.591369,-0.351732,0
-9.863649,1.620194,3.275992,-0.509118,-0.440115,0.123505,42.829097,-12.510351,-2.804447,4.63583E+18,0.843887,-0.06828,0.500591,0.180561,-8.495498,3.473302,-4.172811,-0.316004,0.019385,-0.308002,36.269405,-27.653805,11.206396,4.63582E+18,0.344075,-0.529245,0.592669,0.500256,-9.503394,-0.130754,-2.775908,-0.202424,0.015791,0.219588,40.711689,12.666736,16.023168,4.63583E+18,0.480741,0.544318,0.591221,-0.350804,0
-10.052249,1.287257,3.20278,-0.479684,-0.590901,0.082437,42.828031,-12.432673,-3.168445,4.63583E+18,0.844873,-0.069339,0.498249,0.182016,-9.290033,4.886691,-3.532431,-0.09797,-0.022034,-0.222109,36.436222,-27.703844,11.118019,4.63582E+18,0.344312,-0.529853,0.591972,0.500274,-9.424115,-0.016672,-3.317024,-0.126569,0.012123,0.228133,40.724034,12.44097,16.119944,4.63583E+18,0.481304,0.544614,0.590935,-0.350053,0
-10.003364,0.794482,3.303823,-0.411906,-0.735207,0.078469,42.92123,-12.413841,-3.58127,4.63583E+18,0.846172,-0.070058,0.495444,0.183357,-10.293252,1.856971,-2.449524,-0.148327,-0.036369,-0.355808,36.539673,-27.942768,11.031416,4.63582E+18,0.344751,-0.530833,0.590852,0.500256,-9.427637,0.879932,-3.434682,-0.121327,0.00097,0.236985,40.888758,12.288334,16.193061,4.63583E+18,0.481896,0.544925,0.590598,-0.349323,0
-9.761434,0.498295,3.706727,-0.37822,-0.792842,0.097393,42.832407,-12.533702,-3.862028,4.63583E+18,0.847576,-0.070574,0.492461,0.184709,-10.476866,1.05096,-1.890948,-0.11439,-0.072179,-0.339719,36.471644,-28.033435,10.934919,4.63582E+18,0.345319,-0.531649,0.589787,0.500255,-9.45974,1.017265,-3.508044,-0.14267,-0.029312,0.249418,40.973326,12.061678,16.106729,4.63583E+18,0.482628,0.54518,0.590202,-0.348583,0
-9.507327,0.44388,4.214907,-0.352192,-0.698363,0.081858,42.703724,-12.639103,-4.21382,4.63583E+18,0.848795,-0.071101,0.489821,0.185922,-10.110606,2.348582,-1.302079,0.003061,-0.103867,-0.302639,36.529788,-27.742172,10.83726,4.63582E+18,0.346148,-0.532138,0.589001,0.500088,-9.277528,0.602558,-3.740837,-0.136877,-0.050365,0.256048,41.047443,11.914426,16.023145,4.63583E+18,0.483409,0.545431,0.58974,-0.347892,0
-9.250974,0.227494,4.237059,-0.306848,-0.65575,0.077587,42.745887,-12.677948,-4.689888,4.63583E+18,0.849936,-0.07151,0.487362,0.187014,-10.082152,1.739293,-1.189933,-0.019836,-0.088454,-0.359964,36.66929,-27.257987,10.816923,4.63582E+18,0.347007,-0.532832,0.588062,0.499859,-9.114536,0.675898,-3.965648,-0.139936,-0.067302,0.251391,41.120591,11.925851,16.113771,4.63583E+18,0.48423,0.545639,0.589257,-0.34724,0
-9.0246,0.227507,4.079497,-0.26723,-0.659821,0.067292,42.707043,-12.763397,-5.059418,4.63583E+18,0.851098,-0.071794,0.484911,0.187988,-10.160625,1.317836,-1.65902,-0.086313,-0.071058,-0.401164,36.760557,-27.210302,10.81576,4.63582E+18,0.347761,-0.533758,0.586917,0.499694,-9.067547,0.896406,-3.922806,-0.154581,-0.082485,0.242239,41.04129,12.061713,16.106751,4.63583E+18,0.485109,0.545772,0.588785,-0.346605,0
-9.08453,0.364002,4.12721,-0.205472,-0.573498,0.038162,42.626032,-12.786699,-5.144865,4.63583E+18,0.85212,-0.071986,0.482804,0.188707,-10.168767,1.955476,-1.907833,-0.050409,-0.071362,-0.384534,36.702433,-27.364922,10.81576,4.63582E+18,0.34856,-0.534589,0.585881,0.499463,-9.213268,0.979326,-3.642886,-0.165264,-0.101106,0.239034,41.047442,11.903001,16.009082,4.63583E+18,0.486053,0.545848,0.588296,-0.345992,0
-9.221028,0.34402,3.859791,-0.159836,-0.624947,0.03292,42.637114,-12.67463,-5.130428,4.63583E+18,0.853258,-0.071985,0.480544,0.18933,-10.301282,2.169987,-1.763126,0.055526,-0.119879,-0.384329,36.839011,-27.303905,10.81576,4.63582E+18,0.349713,-0.535164,0.584994,0.499082,-9.494805,1.178931,-3.380496,-0.176635,-0.125057,0.235907,41.132008,11.761872,15.925474,4.63583E+18,0.487076,0.545857,0.587782,-0.345412,0
-9.250991,0.439464,3.7743,-0.117012,-0.737896,0.013207,42.733679,-12.546993,-5.408977,4.63583E+18,0.854644,-0.071782,0.477908,0.189828,-10.514026,1.875928,-1.292905,0.133862,-0.157826,-0.411588,36.997707,-27.063855,10.639075,4.63582E+18,0.351189,-0.535611,0.584152,0.498552,-9.622943,1.272202,-3.207037,-0.198849,-0.140465,0.233157,41.199986,11.841181,16.016113,4.63583E+18,0.488183,0.545792,0.587274,-0.344817,0
-9.218831,0.520481,4.067262,-0.060499,-0.754208,-0.00301,42.663783,-12.531445,-5.911671,4.63583E+18,0.856084,-0.071397,0.475249,0.19016,-10.402476,1.754976,-0.902829,0.140996,-0.141965,-0.436665,37.090145,-26.962099,10.532098,4.63582E+18,0.352693,-0.53614,0.58329,0.497931,-9.686689,1.293031,-3.133641,-0.244619,-0.148019,0.223934,41.206127,11.829775,16.016113,4.63583E+18,0.489398,0.545599,0.586835,-0.344145,0
-9.032406,0.57482,4.270329,-0.038651,-0.748587,-0.004468,42.46628,-12.647942,-6.254568,4.63583E+18,0.857513,-0.07094,0.472622,0.190439,-10.23392,1.856073,-0.866726,0.120707,-0.113842,-0.471857,37.087256,-26.876656,10.611113,4.63582E+18,0.354155,-0.53684,0.582346,0.497242,-9.94652,1.135346,-2.712386,-0.273834,-0.156486,0.23209,41.292447,11.654451,16.016113,4.63583E+18,0.490711,0.545353,0.586402,-0.343403,0
-8.963548,0.750174,4.354729,-0.019618,-0.687512,-0.006504,42.399606,-12.756737,-6.4688,4.63583E+18,0.858821,-0.070467,0.470225,0.190653,-10.040935,1.911898,-1.087552,0.069293,-0.086935,-0.512038,37.22963,-26.570379,10.797102,4.63582E+18,0.355519,-0.537768,0.581243,0.496557,-10.245573,1.330778,-1.921647,-0.295355,-0.163043,0.222865,41.394487,11.275203,16.016113,4.63583E+18,0.492075,0.545029,0.586005,-0.342642,0
-9.046787,1.017558,4.094039,-0.008058,-0.644471,-0.020292,42.612679,-12.78779,-6.632995,4.63583E+18,0.860054,-0.070014,0.467983,0.190782,-9.724163,1.993851,-1.640856,0.02158,-0.064095,-0.545865,37.454571,-26.24078,10.716387,4.63582E+18,0.356789,-0.538893,0.579997,0.495883,-10.459171,1.786552,-1.492698,-0.331131,-0.157549,0.232938,41.541794,11.054652,16.016113,4.63583E+18,0.49352,0.544663,0.585645,-0.341759,0
-9.10558,1.423695,3.764315,-0.01437,-0.693696,-0.039414,42.625005,-12.815578,-6.989128,4.63583E+18,0.861389,-0.069581,0.465551,0.190866,-9.560198,1.737055,-2.348188,0.020954,-0.059055,-0.571246,37.554007,-26.132014,10.617573,4.63582E+18,0.358097,-0.540088,0.578697,0.495159,-10.581197,1.503205,-1.218119,-0.344859,-0.149309,0.248728,41.530434,10.986663,16.016987,4.63583E+18,0.494998,0.544317,0.585285,-0.34079,0
-9.150016,1.721209,3.847497,-0.023301,-0.744195,-0.058652,42.345352,-12.680227,-7.371001,4.63583E+18,0.862827,-0.069177,0.462921,0.190912,-9.479951,1.797355,-2.560584,0.095744,-0.097388,-0.557174,37.56218,-26.123842,10.608233,4.63582E+18,0.359634,-0.541055,0.577522,0.494359,-10.530413,1.183799,-1.198252,-0.34303,-0.130982,0.26171,41.383982,10.975179,16.02832,4.63583E+18,0.496443,0.544031,0.584928,-0.339756,0
-8.98587,1.797825,4.130415,-0.047376,-0.771594,-0.054283,42.216457,-12.58689,-7.561876,4.63583E+18,0.8643,-0.068828,0.460171,0.191026,-9.13071,2.093732,-2.509523,0.138386,-0.119828,-0.533219,37.849217,-25.892006,10.530954,4.63582E+18,0.361271,-0.541853,0.576453,0.49354,-10.304657,0.865842,-1.397985,-0.343775,-0.110842,0.2762,41.412088,10.811185,16.021254,4.63583E+18,0.49786,0.543805,0.584579,-0.338643,0
-8.717233,1.848797,4.505525,-0.069722,-0.697668,-0.066499,42.669002,-12.961763,-7.740538,4.63583E+18,0.865627,-0.068642,0.457661,0.191115,-8.884809,1.737787,-2.502518,0.141098,-0.14205,-0.536664,38.089278,-25.635706,10.600042,4.63582E+18,0.362973,-0.542606,0.575344,0.492756,-10.177586,0.838644,-1.662249,-0.325915,-0.093303,0.286211,41.628129,10.57927,15.923606,4.63583E+18,0.499207,0.543664,0.584216,-0.337512,0
-8.637312,1.916614,4.486999,-0.080002,-0.582332,-0.091961,43.367169,-13.552307,-7.915876,4.63583E+18,0.866745,-0.068633,0.455549,0.191097,-9.006054,1.078762,-2.88881,0.120715,-0.172206,-0.588462,38.111511,-25.611132,10.608233,4.63582E+18,0.364805,-0.543449,0.574028,0.492008,-10.28555,0.629494,-2.027589,-0.297603,-0.084615,0.314356,41.644745,10.357912,15.833002,4.63583E+18,0.500506,0.54366,0.583766,-0.33637,0
-8.579616,1.791206,4.051821,-0.109717,-0.606587,-0.085744,43.647052,-13.707877,-8.107847,4.63583E+18,0.86789,-0.0687,0.453324,0.191164,-9.219935,0.759366,-2.984961,0.249904,-0.210908,-0.59389,38.26603,-25.611132,10.608233,4.63582E+18,0.367031,-0.544026,0.572901,0.491027,-10.198198,0.574767,-2.371901,-0.263666,-0.087974,0.333814,41.712696,10.273342,15.833002,4.63583E+18,0.501763,0.543768,0.583215,-0.335277,0
-8.63492,1.628164,4.138017,-0.120612,-0.605888,-0.07973,43.472962,-13.572453,-8.412861,4.63583E+18,0.869021,-0.068795,0.451093,0.191272,-10.49891,-2.820588,-2.372895,0.271557,-0.225318,-0.746439,38.569306,-25.379412,10.608233,4.63582E+18,0.36965,-0.5449,0.571446,0.489789,-9.939348,0.747293,-2.593373,-0.246809,-0.093776,0.356628,41.70213,10.193942,15.833883,4.63583E+18,0.503026,0.543956,0.582575,-0.334189,0
-8.849197,1.230021,4.573178,-0.097904,-0.544946,-0.053342,43.263039,-13.556823,-8.782558,4.63583E+18,0.870018,-0.068807,0.449105,0.191414,-11.901709,-3.518363,-2.263058,0.21927,-0.389632,-0.773279,38.577738,-24.836117,10.431669,4.63582E+18,0.372591,-0.545576,0.569562,0.489,-9.821807,0.775983,-2.830492,-0.232921,-0.106299,0.38448,41.566208,10.03523,15.845209,4.63583E+18,0.504325,0.544223,0.581825,-0.333103,0
-8.875953,0.720404,4.72761,-0.064301,-0.552518,-0.015159,43.320647,-13.611255,-8.903628,4.63583E+18,0.871003,-0.06862,0.447126,0.191633,-10.425325,3.24548,-2.777036,0.25515,-0.39248,-0.567768,38.564359,-24.405823,10.313596,4.63582E+18,0.375198,-0.545697,0.568209,0.488447,-9.922977,0.704508,-2.980486,-0.219191,-0.128342,0.413548,41.583817,9.888877,15.845209,4.63583E+18,0.505686,0.544555,0.58094,-0.332039,0
-8.760568,0.487293,4.59684,-0.036624,-0.550886,-0.014354,43.452755,-13.611255,-8.977877,4.63583E+18,0.871989,-0.068331,0.445172,0.191801,-9.029431,4.000508,-3.306585,0.164942,-0.345564,-0.635614,38.861109,-24.354943,10.391321,4.63582E+18,0.377624,-0.54621,0.566585,0.487889,-10.056259,0.656559,-3.16964,-0.208058,-0.144739,0.445669,41.815638,9.888759,15.845209,4.63583E+18,0.507103,0.544964,0.579931,-0.330969,0
-8.653962,0.351841,4.275016,-0.014091,-0.529911,-0.039412,43.471735,-13.584666,-9.200871,4.63583E+18,0.872958,-0.068024,0.443304,0.19183,-8.987469,1.686892,-2.485351,0.040956,-0.373565,-0.678953,39.036229,-24.199293,10.312436,4.63582E+18,0.379919,-0.546959,0.564562,0.487614,-10.02052,0.611151,-3.2751,-0.206161,-0.152292,0.478547,41.889755,9.713381,15.832025,4.63583E+18,0.508578,0.545444,0.578825,-0.32985,0
-8.657217,0.327337,4.096078,0.002223,-0.530164,-0.050401,43.409527,-13.506998,-9.422936,4.63583E+18,0.873937,-0.067677,0.441442,0.191787,-9.11823,0.557755,-1.929224,-0.034881,-0.316231,-0.719234,39.117688,-23.884948,10.126505,4.63582E+18,0.381984,-0.548033,0.562377,0.487319,-10.011047,0.471791,-3.312504,-0.222884,-0.160914,0.508148,41.976082,9.317474,15.662099,4.63583E+18,0.51015,0.545944,0.577653,-0.328646,0
-8.708307,0.485793,4.309944,0.007487,-0.549038,-0.055136,43.378527,-13.456987,-9.556009,4.63583E+18,0.874952,-0.067304,0.439513,0.191721,-9.373856,-0.109817,-2.266083,-0.03297,-0.307832,-0.733755,39.411576,-23.544352,9.931208,4.63582E+18,0.38406,-0.54915,0.560171,0.486971,-10.195892,0.605338,-3.195629,-0.265702,-0.169375,0.534164,42.071977,8.875582,15.655079,4.63583E+18,0.511873,0.546401,0.57646,-0.327301,0
-8.738231,0.877414,4.70071,-0.004651,-0.520624,-0.079118,43.324074,-13.464766,-9.786768,4.63583E+18,0.875927,-0.067043,0.437669,0.191582,-9.300408,0.54621,-1.733508,-0.007911,-0.285424,-0.696272,39.66277,-23.368036,9.824152,4.63582E+18,0.386061,-0.55018,0.558131,0.486568,-10.393765,1.027255,-2.989859,-0.352613,-0.162505,0.564526,42.1461,8.734436,15.571459,4.63583E+18,0.513815,0.546752,0.575326,-0.325664,0
-8.746116,1.280485,4.868592,-0.018244,-0.477282,-0.102722,43.293067,-13.376176,-10.008884,4.63583E+18,0.876834,-0.066908,0.435964,0.191368,-9.245704,1.692732,-1.109756,-0.060365,-0.24348,-0.713397,39.752464,-23.198307,9.726493,4.63582E+18,0.387876,-0.551413,0.556008,0.486159,-10.470518,1.183088,-2.791833,-0.456516,-0.150455,0.588262,42.231549,8.796198,15.662099,4.63583E+18,0.515993,0.546948,0.5743,-0.323696,0
-8.616395,1.437122,4.799784,-0.031646,-0.452539,-0.114679,43.238621,-13.189622,-10.11096,4.63583E+18,0.877698,-0.066864,0.434334,0.191126,-9.417504,1.817727,-0.8954,-0.128965,-0.213204,-0.738825,39.902918,-22.872985,9.628843,4.63582E+18,0.389511,-0.552873,0.553731,0.485793,-10.585571,0.831741,-2.394232,-0.533476,-0.148319,0.628847,42.316992,8.54244,15.655967,4.63583E+18,0.51839,0.547072,0.573284,-0.321449,0
-8.351317,1.395122,4.729894,-0.053175,-0.43017,-0.114198,43.265187,-13.228146,-10.313802,4.63583E+18,0.878513,-0.066916,0.432767,0.190919,-9.590757,0.936419,-0.834809,-0.119246,-0.183399,-0.745155,39.984397,-22.696647,9.707683,4.63582E+18,0.391109,-0.554386,0.551501,0.485321,-10.629261,0.541506,-1.915569,-0.566803,-0.14626,0.670587,42.403322,8.156998,15.576647,4.63583E+18,0.520908,0.54722,0.572214,-0.319023,0
-8.064787,1.298413,4.834844,-0.090666,-0.406347,-0.118742,43.285298,-13.391521,-10.547196,4.63583E+18,0.879276,-0.067132,0.431255,0.190755,-9.684444,0.169417,-0.885259,-0.054757,-0.167004,-0.742672,40.134858,-22.526921,9.717093,4.63582E+18,0.39281,-0.555816,0.549429,0.484662,-10.917879,0.598163,-1.575558,-0.560694,-0.145422,0.728509,42.489583,7.687005,15.590683,4.63583E+18,0.523481,0.547513,0.570998,-0.316479,0
-8.011278,1.275203,5.252141,-0.116898,-0.329563,-0.132251,43.150079,-13.329542,-10.547196,4.63583E+18,0.879901,-0.067529,0.429998,0.190567,-9.63753,0.097659,-1.012467,0.007909,-0.162668,-0.732712,40.370745,-22.356036,9.628855,4.63582E+18,0.394622,-0.557124,0.547508,0.48386,-11.146271,0.576298,-1.429141,-0.544293,-0.147864,0.803187,42.432934,7.307825,15.77284,4.63583E+18,0.526112,0.548008,0.569575,-0.313811,0
-8.103433,1.176475,5.422507,-0.133694,-0.257272,-0.136817,42.959061,-13.194058,-10.688846,4.63583E+18,0.880394,-0.068054,0.428991,0.190371,-9.686789,-0.122932,-0.848948,0.006165,-0.157533,-0.724926,40.681066,-22.107927,9.44296,4.63582E+18,0.3964,-0.558422,0.545605,0.483059,-11.322385,0.260618,-1.450968,-0.523542,-0.153737,0.879032,42.438181,7.075884,15.75706,4.63583E+18,0.5288,0.548711,0.56793,-0.311035,0
-8.124636,1.107518,5.156394,-0.16037,-0.236916,-0.143893,42.896816,-13.12082,-11.008643,4.63583E+18,0.880848,-0.068706,0.428035,0.190191,-9.714738,-0.212666,-0.752896,-0.001415,-0.153157,-0.712623,40.70066,-21.708186,9.247642,4.63582E+18,0.398122,-0.55971,0.543718,0.482281,-11.406962,-0.159571,-1.600956,-0.510878,-0.152669,0.981188,42.513176,6.826452,15.405743,4.63583E+18,0.531578,0.549674,0.566026,-0.308054,0
-8.071381,1.189465,4.942781,-0.202028,-0.250134,-0.167848,42.927795,-13.04315,-11.137577,4.63583E+18,0.88133,-0.069542,0.42699,0.190001,-9.507556,-0.098422,-0.976245,-0.034945,-0.139236,-0.695947,40.699482,-21.524774,9.129542,4.63582E+18,0.399697,-0.561038,0.54182,0.48157,-11.507315,-0.180523,-1.815511,-0.501726,-0.152289,1.066339,42.616953,6.345995,15.42673,4.63583E+18,0.534433,0.550846,0.563903,-0.304899,0
-8.067868,1.363711,5.128923,-0.246005,-0.253832,-0.211437,43.039786,-12.895762,-11.114387,4.63583E+18,0.881839,-0.070615,0.425882,0.18973,-9.121224,-0.294986,-0.901754,-0.029769,-0.099193,-0.669207,40.765652,-21.355051,9.207156,4.63582E+18,0.401138,-0.562373,0.540058,0.480794,-11.961557,-0.345348,-2.281087,-0.5134,-0.160604,1.176271,42.793061,5.808056,15.685624,4.63583E+18,0.53746,0.552226,0.561509,-0.301482,0
-8.156664,1.482577,5.417597,-0.30954,-0.257407,-0.254557,43.198452,-12.705789,-11.130662,4.63583E+18,0.882367,-0.071995,0.424698,0.189414,-9.07128,-0.295336,-0.847028,-0.002786,-0.046817,-0.65205,40.982263,-20.963584,9.293786,4.63582E+18,0.402487,-0.563726,0.538473,0.479859,-12.448977,-0.918233,-2.771125,-0.537356,-0.164493,1.298878,42.878513,5.258728,15.509499,4.63583E+18,0.540688,0.553816,0.558837,-0.297734,0
-8.216638,1.526982,5.617322,-0.401099,-0.27109,-0.290485,43.29966,-12.690026,-11.361335,4.63583E+18,0.882915,-0.073765,0.423377,0.189131,-9.478092,-0.315031,-1.106954,0.02798,-0.024291,-0.66208,41.070828,-20.691926,9.302041,4.63582E+18,0.403875,-0.56509,0.536959,0.478782,-12.904964,-1.615727,-3.280292,-0.549334,-0.148473,1.419946,42.959595,4.704226,15.444104,4.63583E+18,0.544037,0.55566,0.555916,-0.293637,0
-8.21347,1.466337,5.816005,-0.480101,-0.288954,-0.315288,43.237763,-12.687053,-11.618943,4.63583E+18,0.883486,-0.075854,0.421919,0.188901,-9.84151,-0.284316,-1.664504,0.030012,-0.005066,-0.669108,41.077911,-20.589957,9.302041,4.63582E+18,0.405237,-0.566502,0.535462,0.47764,-13.089823,-2.004625,-3.739815,-0.505618,-0.116658,1.559645,42.989239,4.086878,15.633321,4.63583E+18,0.54736,0.557942,0.552665,-0.289238,0
-8.091592,1.229975,6.003537,-0.539219,-0.297349,-0.313187,43.124335,-12.46646,-11.818682,4.63583E+18,0.884043,-0.07815,0.420381,0.188785,-9.908865,0.33664,-2.228403,0.150496,-0.015746,-0.64754,41.298415,-20.361178,9.390242,4.63582E+18,0.40686,-0.567636,0.534233,0.476287,-13.155212,-2.219121,-4.138298,-0.42093,-0.059361,1.697434,43.086026,3.53755,15.72227,4.63583E+18,0.550492,0.560776,0.549096,-0.284572,0
-7.910594,0.941615,6.225383,-0.590651,-0.271967,-0.294549,43.147496,-12.194336,-11.920099,4.63583E+18,0.884518,-0.080623,0.418898,0.188818,-10.088793,0.546155,-2.558381,0.291717,-0.057603,-0.61333,41.597658,-20.028866,9.476867,4.63582E+18,0.408841,-0.568368,0.53329,0.474772,-13.453354,-2.516441,-4.472236,-0.328552,0.005943,1.84917,43.177561,2.972615,15.532218,4.63583E+18,0.553409,0.564215,0.545182,-0.279601,0
-7.754215,0.570988,6.361314,-0.610668,-0.230755,-0.273187,43.202,-12.058805,-11.900961,4.63583E+18,0.88489,-0.083164,0.417555,0.188949,-10.273066,-0.331274,-2.169118,0.297775,-0.06581,-0.601232,41.627247,-19.852435,9.396973,4.63582E+18,0.410827,-0.569043,0.53237,0.473281,-13.986104,-2.71611,-4.675461,-0.188242,0.057904,1.997652,43.349334,2.207899,15.286255,4.63583E+18,0.556016,0.568338,0.540839,-0.274466,0
-7.558911,0.14839,6.228304,-0.618752,-0.214606,-0.23829,43.171061,-11.950208,-12.033971,4.63583E+18,0.885195,-0.085686,0.416274,0.189217,-10.13651,0.664076,-1.969758,0.275725,-0.066225,-0.583901,41.693386,-19.759866,9.475682,4.63582E+18,0.412724,-0.569712,0.531442,0.471865,-14.594779,-2.951582,-4.49586,-0.06181,0.091321,2.091112,43.510694,1.499882,15.499867,4.63583E+18,0.558315,0.572962,0.536168,-0.2693,0
-7.337074,-0.387471,6.072763,-0.60192,-0.194385,-0.184956,43.143066,-11.752786,-12.162994,4.63583E+18,0.885423,-0.088069,0.415096,0.189644,-9.89949,1.133991,-1.93114,0.169284,-0.049829,-0.559958,41.843779,-19.597265,9.66151,4.63582E+18,0.414284,-0.57054,0.530387,0.470684,-14.8416,-2.88895,-4.210753,0.00066,0.130367,2.193013,43.381709,0.7764,15.767629,4.63583E+18,0.560448,0.577958,0.531233,-0.263922,0
-7.08619,-0.967955,5.934275,-0.560355,-0.137608,-0.138068,43.189793,-11.566095,-12.139843,4.63583E+18,0.885525,-0.090262,0.414174,0.190151,-9.787611,-0.040538,-1.620146,0.067428,-0.034564,-0.53732,41.859184,-19.426363,9.504114,4.63582E+18,0.415521,-0.57152,0.529209,0.469728,-14.805845,-2.521663,-4.031978,0.069331,0.186926,2.312202,43.196665,-0.15223,15.711795,4.63583E+18,0.562374,0.583388,0.526019,-0.258258,0
-6.923916,-1.380269,5.649314,-0.515035,-0.07273,-0.092305,43.158858,-11.485066,-12.156036,4.63583E+18,0.885491,-0.09226,0.413543,0.190723,-9.745063,-0.942462,-1.388562,0.050929,-0.020575,-0.498493,41.704874,-19.189326,9.209596,4.63582E+18,0.41661,-0.572469,0.528113,0.46884,-14.745878,-2.666147,-3.914241,0.132176,0.189809,2.397881,43.453085,-1.069646,15.730072,4.63583E+18,0.564179,0.589101,0.520486,-0.2525,0
-6.973341,-1.511395,5.262077,-0.457562,-0.019785,-0.065859,43.10434,-11.380899,-12.35134,4.63583E+18,0.885363,-0.094042,0.413162,0.191273,-9.576193,-1.256862,-1.245999,0.133136,-0.020191,-0.446336,41.831553,-18.934183,9.356303,4.63582E+18,0.417792,-0.573159,0.527301,0.467859,-14.21669,-3.350196,-3.889573,0.253515,0.232137,2.485088,43.465887,-1.666181,15.837245,4.63583E+18,0.565628,0.595272,0.514656,-0.24667,0
-7.19539,-1.585682,4.903427,-0.394748,-0.006439,-0.047243,43.161771,-11.186868,-12.44946,4.63583E+18,0.885219,-0.09557,0.412885,0.191778,-9.448189,-1.072382,-1.089677,0.256818,-0.016438,-0.394858,42.067393,-18.986414,9.463452,4.63582E+18,0.419158,-0.573527,0.526857,0.466685,-13.650647,-3.03921,-4.339516,0.431342,0.298581,2.552085,42.36116,-1.906952,16.055332,4.63583E+18,0.566499,0.602006,0.508576,-0.240871,0
-7.365236,-1.603831,4.724265,-0.326982,-0.047595,-0.015313,43.236537,-11.085121,-12.36297,4.63583E+18,0.885146,-0.09676,0.412523,0.192301,-9.601634,-0.840442,-0.953023,0.349212,-0.007343,-0.357087,42.168272,-19.071865,9.395799,4.63582E+18,0.420651,-0.573665,0.526697,0.465351,-13.311703,-2.204522,-4.778025,0.502764,0.381745,2.600538,41.240248,-1.991187,16.097149,4.63583E+18,0.566996,0.609023,0.502436,-0.234871,0
-7.476389,-1.459681,4.74193,-0.254168,-0.090432,0.013569,43.132381,-11.313429,-12.319353,4.63583E+18,0.885151,-0.097598,0.412072,0.192822,-9.861862,-0.773818,-0.895892,0.407004,0.001305,-0.327523,42.231674,-18.628373,9.376474,4.63582E+18,0.422204,-0.573652,0.526732,0.463918,-12.527923,-1.834461,-5.276619,0.551873,0.457092,2.630602,41.00521,-2.742353,16.226883,4.63583E+18,0.56717,0.616215,0.496287,-0.228683,0
-7.569375,-1.250081,4.834917,-0.17456,-0.09845,0.020113,43.000186,-11.5547,-12.467665,4.63583E+18,0.885195,-0.098124,0.411657,0.193233,-9.865958,-0.603776,-0.791966,0.45955,0.017563,-0.296755,42.149462,-18.127875,9.452421,4.63582E+18,0.423786,-0.573508,0.526968,0.462383,-11.731635,-2.05333,-4.609747,0.517229,0.454435,2.523445,41.529264,-4.04433,16.610605,4.63583E+18,0.567267,0.623026,0.490378,-0.222655,0
-7.740277,-0.984897,4.930751,-0.100995,-0.074362,0.014863,42.972139,-11.520925,-12.686612,4.63583E+18,0.885233,-0.098408,0.411388,0.193489,-9.918678,-0.519839,-0.748216,0.478143,0.037546,-0.278314,42.21709,-17.935912,9.626027,4.63582E+18,0.425331,-0.573327,0.527317,0.460789,-11.314857,-2.25394,-3.617176,0.496726,0.427912,2.245257,41.995305,-5.082384,16.890617,4.63583E+18,0.567155,0.62913,0.485096,-0.217288,0
-7.884676,-0.730644,4.898547,-0.049616,-0.103582,0.008955,43.01889,-11.365092,-12.725836,4.63583E+18,0.885346,-0.098489,0.41105,0.193648,-10.034786,-0.534744,-1.042102,0.502733,0.046269,-0.254479,42.368626,-18.063685,9.742999,4.63582E+18,0.426867,-0.573064,0.527782,0.45916,-12.105303,-2.515657,-1.748178,0.543712,0.359353,1.983947,41.821219,-5.485184,17.001335,4.63583E+18,0.566773,0.634701,0.480252,-0.212795,0
-8.061819,-0.425964,5.033083,-0.012182,-0.123042,-0.015635,43.01889,-11.391585,-12.666869,4.63583E+18,0.885528,-0.098458,0.41066,0.193659,-10.211959,-0.75748,-1.327659,0.588142,0.014221,-0.220269,42.527335,-18.002041,9.841857,4.63582E+18,0.42861,-0.572509,0.528433,0.457477,-12.117666,-4.884472,0.363859,0.407604,0.259336,1.654527,41.323785,-5.925994,17.115641,4.63583E+18,0.566625,0.639162,0.476133,-0.209058,0
-8.304145,-0.029363,5.38631,0.001364,-0.077931,-0.060519,43.049793,-11.438337,-12.694396,4.63583E+18,0.885675,-0.09849,0.410429,0.193463,-10.395072,-0.737202,-1.652504,0.669399,-0.046198,-0.192732,42.465675,-17.773356,9.9285,4.63582E+18,0.430625,-0.571629,0.529192,0.455805,-10.811872,-8.634611,1.1767,0.272563,0.149027,1.292265,41.370631,-6.848701,17.133889,4.63583E+18,0.566717,0.642465,0.472816,-0.206194,0
-8.383107,0.143109,5.5863,-0.000386,-0.080581,-0.104081,43.161721,-11.35006,-12.796462,4.63583E+18,0.88586,-0.098602,0.410169,0.19311,-10.148518,-0.468047,-2.015118,0.683953,-0.057159,-0.169887,42.380234,-17.595333,10.102074,4.63582E+18,0.432651,-0.570648,0.530008,0.454164,-9.028067,-11.311216,1.720382,0.235871,0.022296,0.944665,41.660718,-7.496207,17.219477,4.63583E+18,0.566846,0.644872,0.47015,-0.204414,0
-8.398693,0.16311,5.664235,0.001635,-0.121153,-0.150446,43.232141,-11.167706,-12.901914,4.63583E+18,0.886152,-0.098753,0.409742,0.192599,-9.778429,-0.42845,-2.326254,0.682755,-0.075031,-0.148421,42.515111,-17.578661,10.208069,4.63582E+18,0.43467,-0.569583,0.530837,0.452602,-7.285114,-12.015974,1.693531,0.279426,-0.084306,0.633218,41.280418,-7.507553,17.151402,4.63583E+18,0.566795,0.646672,0.468027,-0.203738,0
-8.208942,0.175316,5.558327,0.004864,-0.154936,-0.17824,43.146695,-11.147421,-12.999565,4.63583E+18,0.886525,-0.098912,0.40918,0.191994,-9.752524,-0.537423,-2.59839,0.68351,-0.140526,-0.133805,42.828035,-17.578661,10.228613,4.63582E+18,0.436804,-0.568357,0.531579,0.451217,-6.424838,-11.504726,1.466049,0.332394,-0.172975,0.32547,41.126707,-7.544588,17.13676,4.63583E+18,0.56651,0.647919,0.466475,-0.204129,0
-7.737019,0.249283,5.371257,-0.000952,-0.194223,-0.198533,43.123013,-11.225069,-13.061921,4.63583E+18,0.886978,-0.099096,0.40846,0.191339,-9.599504,-0.505273,-2.921999,0.664338,-0.163789,-0.117993,42.705981,-17.281254,10.130668,4.63582E+18,0.438911,-0.567082,0.532275,0.449954,-6.151671,-10.379883,1.138205,0.362794,-0.24721,-0.014059,42.118643,-8.026452,16.943016,4.63583E+18,0.565997,0.648511,0.465636,-0.205581,0
-7.314436,0.291211,5.331546,-0.009884,-0.208276,-0.186784,43.146698,-11.222279,-13.061921,4.63583E+18,0.887441,-0.099283,0.407685,0.190749,-9.329468,-0.401369,-3.130431,0.615989,-0.146287,-0.110645,42.314782,-17.028763,10.020803,4.63582E+18,0.440849,-0.565908,0.532926,0.448766,-6.148923,-9.42806,0.83904,0.355948,-0.314277,-0.380735,42.406949,-7.866187,16.931669,4.63583E+18,0.565315,0.648316,0.465634,-0.208064,0
-6.999253,0.17193,5.345207,-0.011776,-0.217946,-0.136184,43.034785,-11.032717,-13.101624,4.63583E+18,0.887878,-0.099383,0.406893,0.190352,-9.257982,-0.577891,-3.17154,0.54255,-0.114322,-0.101345,42.340326,-17.004913,10.18631,4.63582E+18,0.442522,-0.564904,0.533517,0.447679,-6.265837,-8.986538,0.624466,0.329395,-0.377764,-0.751156,41.41886,-6.772006,16.931669,4.63583E+18,0.564502,0.647277,0.4665,-0.211538,0
-7.06879,0.248239,5.484511,0.009619,-0.156,-0.123133,42.959898,-10.815056,-13.176198,4.63583E+18,0.888208,-0.099431,0.406352,0.189942,-9.418416,-0.917558,-2.656285,0.561162,-0.139034,-0.086914,42.721946,-17.225186,10.392621,4.63582E+18,0.444265,-0.563786,0.534128,0.446634,-6.312947,-8.84005,0.472819,0.304678,-0.432931,-1.118069,41.463401,-6.418345,16.910174,4.63583E+18,0.563528,0.645404,0.468238,-0.21597,0
-7.063268,0.385917,5.288068,0.026848,-0.140744,-0.118295,43.037559,-10.767646,-13.214872,4.63583E+18,0.888515,-0.099419,0.405883,0.189514,-9.634566,-0.831029,-2.390921,0.590001,-0.186393,-0.075815,42.839627,-17.171966,10.501023,4.63582E+18,0.446157,-0.562498,0.534728,0.445653,-6.343369,-8.673829,0.254826,0.278653,-0.482303,-1.476045,42.182104,-6.483069,16.605878,4.63583E+18,0.562379,0.642705,0.470829,-0.221317,0
-6.732658,0.441829,4.893436,0.017359,-0.176003,-0.099035,43.123006,-10.903259,-13.269447,4.63583E+18,0.888862,-0.099382,0.405283,0.189188,-9.358692,-0.333303,-2.643573,0.556202,-0.190235,-0.077661,42.682784,-16.866245,10.587669,4.63582E+18,0.44798,-0.561266,0.53525,0.444749,-6.467864,-8.240507,0.051749,0.263291,-0.520158,-1.806693,41.907495,-5.617285,16.318889,4.63583E+18,0.56101,0.639251,0.474205,-0.227499,0
-6.440404,0.394025,4.712383,0.018098,-0.128791,-0.065421,43.115853,-10.950041,-13.234171,4.63583E+18,0.889103,-0.099323,0.404873,0.188966,-9.073177,-0.28077,-2.585324,0.491528,-0.16026,-0.111699,42.587789,-16.679839,10.496917,4.63582E+18,0.449646,-0.560284,0.535625,0.443854,-6.800669,-7.728716,-0.2534,0.271518,-0.549237,-2.114766,41.610174,-4.619642,16.117397,4.63583E+18,0.559343,0.635133,0.478291,-0.234477,0
-6.327844,0.321106,4.578102,0.000829,-0.052453,-0.04314,42.949359,-10.923584,-13.207064,4.63583E+18,0.889191,-0.099351,0.404741,0.188823,-9.078741,-0.324845,-2.333353,0.431912,-0.139663,-0.152961,42.733685,-16.663105,10.585327,4.63582E+18,0.451201,-0.559541,0.53583,0.442964,-7.346305,-7.22484,-0.54741,0.2893,-0.565968,-2.399573,42.043802,-3.809967,15.98848,4.63583E+18,0.557331,0.630411,0.483027,-0.242175,0
-6.348869,0.140372,4.448235,0.003771,-0.015101,-0.023972,42.847984,-10.876797,-13.335582,4.63583E+18,0.889201,-0.099365,0.404757,0.188731,-9.280656,-0.340619,-2.174967,0.406907,-0.153218,-0.200406,42.827461,-16.740241,10.507871,4.63582E+18,0.452814,-0.558925,0.535851,0.44207,-8.00807,-6.671227,-0.69047,0.301892,-0.563532,-2.663665,42.234832,-2.784553,15.769605,4.63583E+18,0.554947,0.625115,0.488392,-0.250477,0
-6.363449,-0.12341,4.308545,0.038897,0.005577,0.022546,42.905283,-10.934094,-13.452559,4.63583E+18,0.889155,-0.099186,0.404896,0.188743,-9.390185,-0.352825,-2.138674,0.429894,-0.167414,-0.244611,42.758654,-16.671431,10.498366,4.63582E+18,0.454593,-0.558336,0.535782,0.441072,-8.698681,-6.063492,-0.793251,0.310906,-0.557648,-2.901706,42.384498,-1.759246,15.554403,4.63583E+18,0.5522,0.619271,0.494311,-0.259296,0
-6.290558,-0.36825,4.190532,0.075743,0.048148,0.070081,43.094825,-11.035493,-13.382045,4.63583E+18,0.889015,-0.098825,0.405242,0.188852,-9.388683,-0.287907,-2.202403,0.491408,-0.206366,-0.285513,42.739307,-16.519874,10.399206,4.63582E+18,0.456674,-0.557647,0.535654,0.439948,-9.322969,-5.488888,-0.961588,0.311749,-0.558042,-3.12186,42.710281,-0.713291,15.243855,4.63583E+18,0.549123,0.612873,0.500714,-0.268582,0
-6.233228,-0.472349,4.126449,0.166802,0.156415,0.079992,43.312536,-11.00464,-13.226388,4.63583E+18,0.888721,-0.098195,0.406064,0.188799,-9.409526,-0.02739,-2.308689,0.521856,-0.254767,-0.334774,42.815234,-16.350178,10.3885,4.63582E+18,0.459021,-0.556917,0.535372,0.438771,-9.969956,-4.899516,-1.102712,0.309164,-0.550096,-3.313097,42.651188,0.605952,15.018136,4.63583E+18,0.545718,0.605964,0.507531,-0.278229,0
-6.306821,-0.591374,3.873201,0.264656,0.291354,0.106273,43.360043,-10.950041,-13.207041,4.63583E+18,0.888216,-0.097264,0.407473,0.188621,-9.290727,0.286426,-2.253308,0.500362,-0.285586,-0.405219,42.812554,-16.113177,10.300369,4.63582E+18,0.461513,-0.556326,0.534823,0.437575,-10.610898,-4.257969,-1.324378,0.300171,-0.549274,-3.474488,42.472117,1.931286,14.726649,4.63583E+18,0.542034,0.598568,0.514662,-0.288163,0
-6.29902,-0.578512,3.475418,0.305548,0.344095,0.138119,43.167107,-10.980887,-13.194536,4.63583E+18,0.88761,-0.096169,0.40912,0.18847,-9.123415,0.273332,-2.224132,0.45824,-0.310568,-0.483628,42.88847,-15.935147,10.202721,4.63582E+18,0.464102,-0.55594,0.533963,0.436375,-11.170731,-3.521255,-1.420079,0.284918,-0.538272,-3.607879,42.503617,3.193773,14.615928,4.63583E+18,0.538081,0.59073,0.522053,-0.298274,0
-6.365111,-0.522534,3.357683,0.330139,0.328042,0.139655,43.023296,-11.092771,-12.850432,4.63583E+18,0.887036,-0.094968,0.410725,0.188287,-9.117739,0.147384,-2.166666,0.452035,-0.345741,-0.566534,43.106126,-15.84134,10.105052,4.63582E+18,0.466901,-0.555681,0.532827,0.435107,-11.702728,-2.737174,-1.649455,0.264795,-0.537129,-3.724328,42.466139,4.529493,14.500687,4.63583E+18,0.533901,0.582453,0.529631,-0.308526,0
-6.521772,-0.482258,3.488925,0.347512,0.292519,0.17697,43.088356,-11.194189,-12.445134,4.63583E+18,0.886497,-0.093611,0.412226,0.188226,-9.416337,0.65199,-2.226801,0.449899,-0.391692,-0.644059,43.271953,-15.52458,10.183643,4.63582E+18,0.469933,-0.555509,0.531411,0.433793,-12.15974,-2.081453,-1.848165,0.231187,-0.534471,-3.825964,42.417316,5.945137,14.448989,4.63583E+18,0.52953,0.573732,0.53737,-0.318846,0
-6.798943,-0.21852,3.638017,0.353857,0.199967,0.216975,43.189793,-11.225011,-12.527011,4.63583E+18,0.886085,-0.092088,0.413404,0.188336,-9.745933,0.674985,-2.211925,0.417885,-0.426161,-0.714218,43.430646,-15.193792,10.182167,4.63582E+18,0.473087,-0.555485,0.5297,0.432486,-12.536247,-1.467604,-2.091484,0.176258,-0.526052,-3.914876,42.368483,7.5081,14.041579,4.63583E+18,0.525012,0.564549,0.545269,-0.329134,0
-7.315401,0.008803,3.850731,0.408782,0.106435,0.242449,43.158981,-11.398485,-12.658903,4.63583E+18,0.885831,-0.090246,0.414287,0.188481,-9.965361,-0.1436,-1.757982,0.385531,-0.444814,-0.774003,43.578311,-14.864227,9.916648,4.63582E+18,0.476308,-0.555614,0.527747,0.431168,-13.054864,-0.822123,-2.327659,0.115754,-0.533304,-3.991946,42.303459,8.911783,13.749219,4.63583E+18,0.5204,0.554892,0.553265,-0.339378,0
-7.607205,0.046421,3.613479,0.423953,0.002857,0.285907,43.082334,-11.723672,-12.283308,4.63583E+18,0.885724,-0.08819,0.414815,0.188797,-9.930595,-0.33105,-1.378672,0.400705,-0.476356,-0.8154,43.812879,-14.677825,9.722814,4.63582E+18,0.479701,-0.555739,0.525654,0.429801,-13.641044,-0.364252,-2.618051,0.06245,-0.537651,-4.055979,42.011656,10.310371,13.628009,4.63583E+18,0.515681,0.544806,0.561315,-0.34955,0
-7.715672,0.248332,2.895184,0.390961,-0.135791,0.300502,43.012489,-11.90022,-12.068907,4.63583E+18,0.885829,-0.086122,0.414808,0.189274,-9.737415,0.296889,-1.441922,0.383421,-0.48827,-0.857811,44.046013,-14.352756,9.693874,4.63582E+18,0.483147,-0.555959,0.523398,0.428407,-14.060641,0.015877,-2.86249,0.042526,-0.542545,-4.104145,41.583255,11.646072,13.511335,4.63583E+18,0.510796,0.534397,0.569326,-0.359687,0
-8.089044,0.647167,2.399871,0.348273,-0.110108,0.244313,42.927041,-11.853389,-12.357471,4.63583E+18,0.885915,-0.084328,0.41484,0.189607,-9.60696,0.002782,-1.177348,0.333145,-0.477648,-0.900542,43.991631,-14.021924,9.604572,4.63582E+18,0.486521,-0.556383,0.520965,0.427003,-14.379697,0.410179,-2.939435,0.073789,-0.540584,-4.137829,41.291472,13.059963,13.303833,4.63583E+18,0.505633,0.523817,0.577198,-0.369857,0
-8.913803,0.947915,2.238783,0.330032,0.090356,0.195931,42.841601,-11.910591,-12.501802,4.63583E+18,0.885684,-0.082844,0.41558,0.189721,-9.694116,-0.54312,-0.585944,0.334666,-0.487955,-0.933625,43.972262,-13.615316,9.495921,4.63582E+18,0.48997,-0.556845,0.518426,0.425543,-14.731697,0.693496,-2.905362,0.152581,-0.526847,-4.149531,40.846063,14.600095,13.097158,4.63583E+18,0.500091,0.513236,0.584827,-0.380099,0
-9.950968,1.232083,2.134312,0.332681,0.166424,0.191595,42.817748,-12.012085,-12.404146,4.63583E+18,0.885323,-0.081417,0.416599,0.189787,-9.881075,-0.477032,-0.315693,0.313237,-0.512337,-0.961818,44.103207,-13.20023,9.397057,4.63582E+18,0.493462,-0.557358,0.515723,0.42412,-15.210607,1.01679,-2.89688,0.241479,-0.515247,-4.144323,40.311023,15.997852,12.901862,4.63583E+18,0.494187,0.502716,0.592149,-0.390405,0
-10.937681,1.566658,2.140268,0.230598,-0.021358,0.202812,42.841601,-12.042886,-12.341684,4.63583E+18,0.885243,-0.080199,0.416848,0.190135,-9.955264,-0.375785,-0.348038,0.227002,-0.532191,-0.996335,44.403867,-12.697076,9.376481,4.63582E+18,0.496846,-0.558074,0.512735,0.422847,-15.547659,1.43151,-2.763779,0.321828,-0.505783,-4.111091,39.644706,17.332368,12.705694,4.63583E+18,0.487995,0.492306,0.59911,-0.400703,0
-11.277562,1.991885,2.423099,0.063526,-0.346419,0.168875,42.791348,-12.185511,-12.337286,4.63583E+18,0.885696,-0.079398,0.415753,0.190756,-10.181455,-0.48734,-1.025667,0.111924,-0.552379,-1.040251,44.644151,-12.272507,9.199114,4.63582E+18,0.500073,-0.559074,0.509388,0.421766,-15.650739,2.011189,-2.497429,0.436135,-0.497786,-4.060547,39.045699,18.87167,12.492234,4.63583E+18,0.481488,0.482122,0.605614,-0.411048,0
-10.749603,2.255946,2.965593,-0.036105,-0.462429,0.089606,42.794758,-12.341684,-12.395452,4.63583E+18,0.886378,-0.079009,0.414122,0.191294,-10.2164,-0.819809,-1.858394,0.101369,-0.591942,-1.075478,44.655879,-11.780386,8.739546,4.63582E+18,0.503408,-0.560088,0.505845,0.420716,-15.667179,2.685557,-2.434354,0.577399,-0.483501,-3.988976,38.43709,20.252997,12.206063,4.63583E+18,0.474643,0.472286,0.611584,-0.421457,0
-9.969324,2.264204,3.266648,-0.048373,-0.373758,0.003833,42.786949,-12.227332,-12.657728,4.63583E+18,0.886969,-0.078885,0.41278,0.191507,-10.118514,-0.942592,-2.447401,0.121703,-0.629742,-1.122178,44.577617,-11.51113,8.42745,4.63582E+18,0.50694,-0.561076,0.502136,0.419602,-15.737883,3.585659,-2.509292,0.691974,-0.47853,-3.886718,37.844363,21.498153,11.998043,4.63583E+18,0.467605,0.462813,0.616989,-0.431827,0
-9.32247,2.240318,3.175891,-0.107563,-0.351547,-0.048122,42.786949,-12.024292,-12.985782,4.63583E+18,0.887542,-0.079086,0.411455,0.191622,-10.206812,-0.599887,-3.019944,0.100786,-0.663274,-1.176024,44.569229,-11.255976,8.387684,4.63582E+18,0.510571,-0.562145,0.498178,0.418483,-15.760959,4.762147,-2.595944,0.782365,-0.477938,-3.757091,37.160753,22.747531,11.625543,4.63583E+18,0.460499,0.453727,0.621816,-0.44206,0
-9.103835,2.264211,3.512972,-0.202488,-0.28144,-0.123796,42.786949,-12.055073,-13.075573,4.63583E+18,0.888022,-0.079824,0.410287,0.191596,-10.437778,-0.80374,-3.637729,0.050105,-0.674231,-1.233389,44.767393,-10.702375,8.210341,4.63582E+18,0.514191,-0.563404,0.493958,0.417359,-15.591292,5.834588,-2.55351,0.881987,-0.469541,-3.590428,36.478061,24.054422,11.332599,4.63583E+18,0.453375,0.445165,0.626004,-0.452105,0
-9.36067,2.218332,4.12515,-0.246617,-0.103552,-0.214364,42.81772,-12.136119,-12.977926,4.63583E+18,0.888254,-0.081022,0.409711,0.191252,-10.880089,-1.644775,-4.227279,0.070871,-0.681812,-1.244831,45.152262,-10.193483,7.838877,4.63582E+18,0.517878,-0.564609,0.489714,0.416172,-15.279816,6.886115,-2.761881,0.984266,-0.46328,-3.376971,35.811724,25.356762,11.033703,4.63583E+18,0.446342,0.437263,0.629469,-0.461897,0
-9.779625,2.225164,4.138773,-0.281865,0.002776,-0.304897,42.898774,-12.095081,-12.990154,4.63583E+18,0.888362,-0.08259,0.409469,0.190596,-10.848571,-2.316862,-5.143404,0.20951,-0.671951,-1.299398,45.555062,-9.759081,7.371228,4.63582E+18,0.521947,-0.565624,0.485585,0.414545,-15.045342,7.959513,-2.993444,1.067762,-0.458416,-3.120166,35.203426,26.421236,10.655277,4.63583E+18,0.439546,0.430109,0.632185,-0.471326,0
-10.19125,2.205144,3.813582,-0.319807,-0.005554,-0.375052,42.941249,-11.881695,-13.193291,4.63583E+18,0.888524,-0.084411,0.409139,0.189748,-12.821307,-0.927613,-4.070309,0.298466,-0.754582,-1.289868,45.572638,-9.199797,7.225385,4.63582E+18,0.526357,-0.566261,0.481434,0.412938,-14.756558,9.021438,-3.404289,1.13991,-0.444197,-2.825788,34.469827,27.195281,10.290391,4.63583E+18,0.433083,0.423813,0.634143,-0.480296,0
-10.453936,2.175358,3.810178,-0.375605,0.031319,-0.415681,42.933437,-11.718616,-13.287513,4.63583E+18,0.888632,-0.086538,0.408886,0.188831,-13.741985,0.166568,-1.620416,0.220838,-0.808031,-1.275665,45.559229,-8.614986,7.115508,4.63582E+18,0.530646,-0.566926,0.477047,0.411627,-14.192486,10.071669,-4.108155,1.221055,-0.409977,-2.491601,33.89484,28.044342,10.087028,4.63583E+18,0.426989,0.418551,0.635314,-0.488744,0
-10.692222,2.079163,3.929807,-0.438112,0.098099,-0.463406,42.964202,-11.609241,-13.197667,4.63583E+18,0.888635,-0.089029,0.40881,0.187819,-13.840793,-0.589928,-1.554336,0.177786,-0.838863,-1.357123,45.767149,-8.249214,6.840558,4.63582E+18,0.535012,-0.567771,0.472304,0.410277,-13.616264,10.992331,-5.077146,1.313536,-0.359145,-2.130201,33.477711,28.956461,9.604194,4.63583E+18,0.421283,0.414462,0.635677,-0.496645,0
-10.820645,2.012758,3.88879,-0.497758,0.10455,-0.566334,43.049653,-11.49058,-13.139561,4.63583E+18,0.888678,-0.091921,0.40867,0.186524,-13.347919,0.791209,-1.970976,0.149069,-0.850368,-1.443204,45.933049,-7.76433,6.459534,4.63582E+18,0.539456,-0.568803,0.467262,0.408799,-13.327944,12.353544,-5.937878,1.365681,-0.283903,-1.762835,33.177595,29.477523,9.057466,4.63583E+18,0.416006,0.411551,0.635366,-0.50386,0
-11.31135,1.90388,4.024523,-0.573039,0.159063,-0.675838,43.130706,-11.042347,-13.160556,4.63583E+18,0.888673,-0.09532,0.408626,0.18493,-14.097311,0.97419,-1.485926,0.105889,-0.876353,-1.563325,45.926654,-7.043704,6.14594,4.63582E+18,0.544025,-0.570093,0.461778,0.407176,-12.927199,14.276832,-6.717468,1.339418,-0.187696,-1.380916,32.614372,29.803767,8.867616,4.63583E+18,0.41129,0.409777,0.634572,-0.510139,0
-12.669616,1.502516,4.374141,-0.569968,0.326241,-0.669309,43.203946,-10.475459,-13.157635,4.63583E+18,0.888367,-0.098825,0.4092,0.183286,-14.889311,-0.057861,-1.494295,0.101474,-0.919528,-1.652552,45.913247,-6.51923,5.763755,4.63582E+18,0.548787,-0.571457,0.45595,0.405438,-12.386709,15.902482,-7.485269,1.261812,-0.090495,-0.990161,32.078112,30.399813,8.559896,4.63583E+18,0.407257,0.409087,0.633407,-0.51535,0
-14.260096,1.475588,4.125226,-0.57837,0.363698,-0.618716,43.307945,-10.15609,-13.079997,4.63583E+18,0.887941,-0.102302,0.40992,0.181826,-15.263367,0.533311,-1.743585,0.148651,-0.978827,-1.727403,46.19813,-5.941762,5.450188,4.63582E+18,0.553864,-0.572719,0.449858,0.403553,-11.788205,16.693811,-8.404086,1.188818,0.007873,-0.584277,32.256945,30.748797,7.900336,4.63583E+18,0.403946,0.409541,0.631849,-0.519491,0
-14.805175,1.816915,3.195054,-0.670401,0.180043,-0.597398,43.440276,-10.046693,-12.924264,4.63583E+18,0.887761,-0.105942,0.409894,0.180678,-15.636976,0.91846,-2.056157,0.123004,-1.014678,-1.793402,46.427494,-5.058727,5.145007,4.63582E+18,0.55902,-0.574063,0.44345,0.401621,-11.01998,17.036373,-9.355857,1.107091,0.123047,-0.135176,32.990291,30.375413,7.435149,4.63583E+18,0.401434,0.411278,0.629878,-0.522452,0
-14.416112,2.083973,2.71243,-0.776722,-0.011477,-0.592386,43.52572,-9.928111,-12.748921,4.63583E+18,0.887843,-0.109822,0.409074,0.179814,-15.861338,0.534105,-2.912608,0.142737,-1.065116,-1.870104,46.438168,-4.363309,4.850856,4.63582E+18,0.564403,-0.575374,0.436741,0.399564,-10.269854,18.407762,-10.127876,0.968388,0.249567,0.307364,33.009319,30.116473,7.447357,4.63583E+18,0.399783,0.414211,0.627648,-0.524081,0
-13.821823,2.189586,3.057592,-0.890869,-0.020488,-0.626697,43.576037,-9.510673,-12.835791,4.63583E+18,0.887897,-0.114174,0.408112,0.179018,-16.497856,0.741306,-3.47604,0.220346,-1.123224,-1.946144,46.491963,-3.768985,4.293904,4.63582E+18,0.570157,-0.576496,0.429805,0.397292,-9.604013,20.102475,-10.737862,0.743114,0.365034,0.760893,32.196798,30.458311,7.452008,4.63583E+18,0.399201,0.418199,0.625308,-0.524155,0
-13.404777,1.738531,3.371701,-0.904475,0.044947,-0.634787,43.594571,-9.024778,-13.015992,4.63583E+18,0.887821,-0.118637,0.40737,0.178182,-16.642457,1.011102,-4.441073,0.320035,-1.16465,-2.030654,46.630019,-2.808919,3.69689,4.63582E+18,0.576312,-0.577411,0.422693,0.394704,-8.953759,20.828108,-10.865356,0.487759,0.448725,1.132059,32.336813,30.438621,7.360225,4.63583E+18,0.399648,0.422901,0.623,-0.522787,0
-13.188921,1.023705,3.236031,-0.873923,0.047383,-0.630151,43.6722,-8.695203,-13.095117,4.63583E+18,0.887734,-0.122979,0.406653,0.177307,-17.156918,2.159673,-5.124177,0.412836,-1.218606,-2.111284,46.776494,-2.182023,3.362795,4.63582E+18,0.582861,-0.578098,0.415368,0.391848,-9.876488,19.922399,-11.252558,0.212481,0.649701,1.819673,33.183844,29.991147,7.368161,4.63583E+18,0.401537,0.429348,0.620386,-0.519181,0
-13.514672,0.212767,3.050887,-0.845561,0.079568,-0.61559,43.783994,-8.396336,-13.185389,4.63583E+18,0.887579,-0.127213,0.406074,0.176419,-17.630449,2.964802,-6.035169,0.514321,-1.265486,-2.206795,46.636971,-1.82708,3.156616,4.63582E+18,0.589827,-0.578564,0.407818,0.388655,-12.170857,18.898242,-11.552679,0.099363,0.610352,2.394096,33.609742,29.574576,7.642196,4.63583E+18,0.40494,0.436969,0.61687,-0.514347,0
-14.93622,-0.758968,3.097675,-0.802837,0.196345,-0.447105,43.911955,-8.178538,-13.287548,4.63583E+18,0.88711,-0.131087,0.406041,0.176018,-18.072329,3.974668,-7.01914,0.631301,-1.334517,-2.344423,46.741078,-0.738461,2.510286,4.63582E+18,0.597342,-0.578792,0.399906,0.385042,-9.687688,25.190691,-6.671241,0.371375,0.605177,3.012523,34.205278,28.795455,7.799331,4.63583E+18,0.409132,0.446567,0.611553,-0.509109,0
-15.87101,-1.723145,3.007694,-0.779316,0.046734,-0.241739,43.901802,-8.069094,-13.162602,4.63583E+18,0.886744,-0.134416,0.405579,0.176416,-18.907713,5.221165,-8.062827,0.766213,-1.370466,-2.493208,46.941337,0.488318,1.81454,4.63582E+18,0.605398,-0.578793,0.391705,0.380866,-12.103877,23.218631,0.124221,0.69194,0.444214,3.022419,35.03441,27.947772,7.604016,4.63583E+18,0.413091,0.456321,0.60516,-0.504884,0
-14.829742,-2.76431,3.212644,-0.871403,-0.648843,-0.11188,43.738725,-7.981325,-13.213045,4.63583E+18,0.887393,-0.137352,0.402545,0.177837,-19.753638,6.446725,-8.892675,1.003024,-1.415984,-2.644671,46.939883,1.435282,1.294707,4.63582E+18,0.614242,-0.578279,0.383337,0.375969,-14.255186,-1.354805,5.512423,0.412517,0.31073,2.303428,35.028886,28.005971,7.415421,4.63583E+18,0.416352,0.46344,0.600411,-0.501379,0
-13.740551,-2.936222,5.730202,-1.005242,-1.013466,0.057884,43.567835,-7.741583,-13.736403,4.63583E+18,0.888426,-0.140224,0.398149,0.180315,-20.49696,7.843446,-9.247412,1.252759,-1.464907,-2.82907,46.849474,2.427829,0.706213,4.63582E+18,0.62394,-0.577235,0.374719,0.370249,-13.063909,-15.216516,1.667048,0.842148,0.296928,2.28831,35.186147,27.780154,7.317762,4.63583E+18,0.418745,0.47119,0.59471,-0.498951,0
-12.664537,-2.141429,9.644181,-0.839483,-0.747118,0.161429,43.484681,-7.650042,-14.177571,4.63583E+18,0.889012,-0.142505,0.394913,0.182741,-21.372292,9.732244,-8.331841,1.454565,-1.525584,-3.037251,46.72983,3.648678,0.031132,4.63582E+18,0.634403,-0.575772,0.365672,0.363737,-13.486008,-8.876751,0.267983,1.464165,0.324689,2.576544,36.289703,26.483991,7.220103,4.63583E+18,0.420394,0.480737,0.587121,-0.497443,0
-10.709621,-1.83702,11.981761,-0.46508,-0.356534,0.290374,43.562313,-7.813126,-14.259769,4.63583E+18,0.889066,-0.143483,0.393479,0.184794,-22.318409,11.662201,-6.68816,1.515422,-1.620253,-3.23324,46.541776,4.893818,-0.498511,4.63582E+18,0.645294,-0.574158,0.355905,0.35675,-16.493706,-2.607487,2.549626,0.895192,0.3102,2.470762,36.926024,25.376933,7.122455,4.63583E+18,0.422943,0.488932,0.580817,-0.494688,0
-8.696637,-1.159328,10.606341,-0.262096,-0.147555,0.385751,43.590729,-7.922605,-14.227919,4.63583E+18,0.88882,-0.143712,0.39303,0.186741,-23.732476,11.996354,-5.386025,1.434332,-1.741617,-3.417058,46.280474,5.919026,-1.000225,4.63582E+18,0.656265,-0.572695,0.345153,0.349579,-14.787546,1.974511,1.888059,0.318513,0.32135,2.38707,37.102224,24.971292,7.038133,4.63583E+18,0.426421,0.495877,0.575827,-0.490606,0
-7.292852,0.179245,7.061252,-0.406948,-0.043953,0.392764,43.36398,-7.922605,-14.348452,4.63583E+18,0.888309,-0.144546,0.392854,0.188889,-25.516091,11.6932,-5.591272,1.373915,-1.898222,-3.547735,46.011937,7.062873,-1.852547,4.63582E+18,0.667311,-0.571185,0.333468,0.342406,-11.631644,6.777903,-0.149188,0.182983,0.397188,2.410321,37.513107,24.333423,7.149127,4.63583E+18,0.430001,0.50274,0.571141,-0.485951,0
-6.104411,0.406127,5.167382,-0.571735,-0.053557,0.367443,43.043304,-7.953307,-14.500861,4.63583E+18,0.887728,-0.146022,0.392495,0.191218,-24.937867,12.856622,-7.167038,1.138346,-1.951644,-3.63807,45.65541,8.376505,-2.666706,4.63582E+18,0.67779,-0.5702,0.32098,0.335328,-10.870434,6.640646,-2.296625,0.07686,0.472945,2.36561,37.857095,23.309505,7.442903,4.63583E+18,0.43349,0.509409,0.566841,-0.480915,0
-4.346258,-0.050499,5.136012,-0.650846,-0.266193,0.383943,43.192412,-8.069454,-14.598516,4.63583E+18,0.887425,-0.147592,0.391292,0.193865,-22.995967,13.64843,-10.613425,0.823406,-1.916331,-3.661089,45.443132,9.784083,-3.384428,4.63582E+18,0.687294,-0.570006,0.307996,0.328418,-9.82006,1.719093,-3.796787,-0.044376,0.549463,2.239082,38.088752,22.180862,7.733111,4.63583E+18,0.436761,0.515664,0.563137,-0.475612,0
-2.562046,-0.354355,5.386564,-0.691121,-0.346219,0.425649,43.396979,-8.235953,-14.726852,4.63583E+18,0.887184,-0.149176,0.389781,0.196779,-21.350934,13.908029,-13.140387,0.552915,-1.771529,-3.595337,45.313802,11.265957,-4.081386,4.63582E+18,0.695678,-0.570532,0.295122,0.321602,-8.04607,-1.653823,-3.238937,-0.108436,0.646665,2.164822,38.651118,21.649564,7.811906,4.63583E+18,0.439756,0.521775,0.559845,-0.470042,0
-1.159068,-0.503287,5.090633,-0.680017,-0.129371,0.469774,43.142966,-8.368305,-14.874851,4.63583E+18,0.88655,-0.150823,0.389103,0.199701,-18.740295,13.576826,-13.522242,0.263967,-1.420293,-3.437835,44.91687,12.392426,-4.788194,4.63582E+18,0.702551,-0.572024,0.283177,0.314678,-8.016139,-1.611349,0.111332,-0.300271,0.697014,2.099208,39.209022,21.186312,7.827111,4.63583E+18,0.442883,0.527435,0.557114,-0.463994,0
-0.686587,-0.678614,4.750347,-0.625438,0.170734,0.540857,42.884609,-8.453694,-14.89033,4.63583E+18,0.885393,-0.1524,0.389619,0.202607,-16.963564,12.306634,-11.075258,-0.009359,-1.249532,-3.176926,44.258727,13.533857,-5.232357,4.63582E+18,0.708073,-0.574106,0.271931,0.308364,-9.671511,0.089278,3.362197,-0.651053,0.70505,2.05699,39.546677,20.552936,8.230207,4.63583E+18,0.446644,0.532318,0.555121,-0.457151,0
-1.596915,-1.006517,4.643958,-0.574778,0.364281,0.636466,42.915188,-8.534771,-14.749892,4.63583E+18,0.883862,-0.153796,0.390947,0.205658,-16.676462,9.455484,-4.207687,-0.195992,-1.576252,-2.94316,43.718097,14.769174,-5.647364,4.63582E+18,0.71308,-0.57594,0.259987,0.303671,-10.188529,0.489377,3.938074,-1.041431,0.705246,2.02087,39.83741,19.7725,8.790662,4.63583E+18,0.451159,0.536342,0.553901,-0.449429,0
-3.264839,-1.392785,4.141827,-0.53322,0.341915,0.731577,42.970058,-8.612384,-14.589521,4.63583E+18,0.882299,-0.154861,0.392282,0.209002,-18.49893,4.087797,3.985111,-0.302123,-2.013153,-2.997267,43.270134,15.783462,-6.062411,4.63582E+18,0.718225,-0.577474,0.246427,0.299917,-9.740588,0.703744,1.365165,-1.283349,0.702349,1.972301,40.265449,18.99191,9.176511,4.63583E+18,0.456086,0.53974,0.55318,-0.441201,0
-4.548634,-1.727508,3.250428,-0.496877,0.196552,0.776622,42.913282,-8.785177,-14.557382,4.63583E+18,0.880943,-0.15559,0.393137,0.212543,-18.899615,2.802404,2.270343,-1.835524,-1.322373,-2.877837,42.687761,16.706303,-6.389518,4.63582E+18,0.718657,-0.584205,0.233248,0.296364,-9.108472,1.742833,-3.725915,-1.33729,0.828677,1.9066,40.68253,18.062719,9.664808,4.63583E+18,0.460674,0.543059,0.55289,-0.432643,0
-5.406626,-1.996933,3.587183,-0.459233,0.195945,0.75232,42.811363,-9.057981,-14.642824,4.63583E+18,0.879621,-0.156217,0.394001,0.215931,-14.46986,9.163354,-8.331346,-3.045441,-0.395793,-2.374164,42.309496,17.841593,-6.355144,4.63582E+18,0.714446,-0.595069,0.222517,0.293167,-10.078622,9.966301,-10.779143,-0.555004,1.051883,1.725529,40.775815,17.297205,10.146467,4.63583E+18,0.462609,0.547816,0.551977,-0.425689,0
-6.472419,-2.416577,4.84585,-0.45226,0.300054,0.703067,42.841933,-9.224531,-14.693347,4.63583E+18,0.878165,-0.156989,0.395215,0.219056,-12.504616,16.547628,-13.748637,-2.711509,-0.217651,-1.645826,42.021432,18.924342,-6.029096,4.63582E+18,0.709851,-0.604351,0.214481,0.291323,-13.577089,9.684517,-5.649106,-0.33075,1.128036,1.842046,40.658931,16.742967,10.543682,4.63583E+18,0.464029,0.553366,0.550503,-0.41882,0
-7.632772,-3.046075,4.938271,-0.43345,0.133983,0.719886,42.927381,-9.387587,-14.650574,4.63583E+18,0.876968,-0.157511,0.395844,0.222317,-12.385645,18.219849,-11.957648,-2.103111,-0.426581,-0.820204,41.905547,19.328076,-5.905914,4.63582E+18,0.705879,-0.610762,0.208615,0.291864,-9.296429,-4.272791,-1.995193,-0.946776,1.003642,1.54619,40.790937,16.120389,11.03115,4.63583E+18,0.466601,0.556785,0.550504,-0.411363,0
-8.29149,-3.417185,4.275108,-0.482388,-0.223436,0.728749,42.925521,-9.58466,-14.614037,4.63583E+18,0.876308,-0.157864,0.395122,0.225924,-11.621212,18.444203,-7.552667,-1.56234,-0.373828,-0.040803,41.895809,19.360941,-5.896176,4.63582E+18,0.702241,-0.614927,0.20553,0.294074,-5.580018,-2.734883,-3.13337,-0.796476,0.897498,1.614352,41.070256,15.497817,11.507236,4.63583E+18,0.469152,0.560431,0.549842,-0.404334,0
-8.148206,-3.415481,4.222124,-0.565223,-0.395364,0.648408,42.762466,-9.802612,-14.726561,4.63583E+18,0.87594,-0.158486,0.393635,0.229483,-11.316196,17.941063,-5.125286,-1.236191,-0.144132,0.376733,41.895809,19.360941,-5.731325,4.63582E+18,0.698705,-0.618038,0.204579,0.296627,-8.767974,2.311516,-3.992937,-0.684846,0.926597,1.626603,41.469374,14.880267,11.957658,4.63583E+18,0.471364,0.564334,0.548983,-0.397442,0
-7.419113,-3.267022,4.067328,-0.59358,-0.362378,0.582893,42.62648,-9.999702,-14.874754,4.63583E+18,0.87555,-0.159347,0.392192,0.232824,-11.489669,15.224258,-4.138074,-1.063618,0.089041,0.706776,41.895809,19.284011,-5.537224,4.63582E+18,0.694986,-0.620636,0.205364,0.299384,-10.690812,2.421815,-4.912312,-0.836392,0.87156,1.526392,41.47084,14.335891,12.056143,4.63583E+18,0.473861,0.567581,0.548466,-0.390502,0
-6.664266,-2.798883,3.125696,-0.576564,-0.249593,0.553597,42.605601,-10.187102,-14.964559,4.63583E+18,0.875003,-0.160301,0.391152,0.235953,-11.006161,11.644423,-4.701114,-0.731553,0.257326,1.288116,42.049631,19.044755,-5.341948,4.63582E+18,0.691233,-0.621964,0.208546,0.303095,-8.698271,0.70077,-3.423944,-0.845955,0.825373,1.597989,41.342528,13.839153,12.198228,4.63583E+18,0.476572,0.57086,0.547668,-0.383482,0
-6.547637,-2.341014,2.276496,-0.538633,-0.083347,0.501315,42.713757,-10.298737,-15.057858,4.63583E+18,0.874252,-0.161363,0.390716,0.238716,-10.027124,10.587453,-5.421334,-0.1273,0.364776,1.985499,42.451259,18.348921,-5.12466,4.63582E+18,0.688034,-0.621046,0.214596,0.307994,-7.339944,-0.621762,-2.837066,-0.554211,0.804792,1.56846,41.463764,13.062915,12.770921,4.63583E+18,0.478558,0.574582,0.546398,-0.37721,0
-7.241852,-1.775218,1.390507,-0.474397,-0.036266,0.452747,42.736328,-10.431242,-15.112765,4.63583E+18,0.87351,-0.162315,0.390479,0.241164,-9.891658,10.64242,-6.075648,0.329112,0.458559,2.675308,42.812596,17.538347,-4.992823,4.63582E+18,0.684977,-0.61826,0.223263,0.314189,-8.228615,1.230957,-2.899589,-0.388503,0.781884,1.563681,41.567857,12.37138,13.154961,4.63583E+18,0.480165,0.578555,0.544802,-0.371358,0
-8.430234,-1.228481,0.209149,-0.43428,-0.251605,0.474337,42.461658,-10.516691,-15.143297,4.63583E+18,0.873116,-0.162868,0.389511,0.24377,-10.503201,11.294238,-5.755821,0.436227,0.627417,3.295833,43.089671,16.632652,-4.958649,4.63582E+18,0.681114,-0.614711,0.234113,0.321568,-8.188043,3.308718,-2.882585,-0.373836,0.779431,1.625056,41.598044,11.895958,13.46113,4.63583E+18,0.48181,0.58266,0.543,-0.365402,0
-9.118962,-0.724567,0.090886,-0.386183,-0.55616,0.476083,42.249825,-10.602146,-15.298545,4.63583E+18,0.873239,-0.162931,0.387479,0.246508,-11.285678,11.057494,-4.614501,0.325048,0.952759,3.780136,43.599917,15.123884,-4.747479,4.63582E+18,0.675841,-0.611297,0.246923,0.329521,-7.49069,2.031736,-3.756729,-0.434185,0.743766,1.676729,41.707899,11.26783,13.942786,4.63583E+18,0.483732,0.586671,0.54106,-0.359269,0
-9.093601,-0.544077,1.086554,-0.230092,-0.607524,0.441445,42.245462,-10.718119,-15.614183,4.63583E+18,0.873578,-0.162428,0.385394,0.248899,-11.92536,9.639095,-3.613473,0.246535,1.272458,4.16457,44.202957,13.702928,-4.438639,4.63582E+18,0.669309,-0.607965,0.261431,0.337725,-7.821539,0.63206,-3.849845,-0.459773,0.718143,1.706374,41.811179,10.724118,14.307076,4.63583E+18,0.48579,0.590623,0.539001,-0.353059,0
-8.558171,-0.241482,1.260733,-0.144282,-0.457314,0.384525,42.180919,-10.91519,-15.918473,4.63583E+18,0.873785,-0.161857,0.383902,0.250842,-12.262245,8.441767,-2.571194,0.228694,1.599239,4.517306,44.813196,12.145618,-3.934603,4.63582E+18,0.661635,-0.604535,0.277622,0.34598,-8.648062,1.352713,-3.367998,-0.514032,0.707678,1.760404,41.820094,10.074521,14.327657,4.63583E+18,0.488053,0.594533,0.536832,-0.346621,0
