Accelerometer-X,Accelerometer-Y,Accelerometer-Z,Gyroscope-X,Gyroscope-Y,Gyroscope-Z,Magnetometer-X,Magnetometer-Y,Magnetometer-Z,Barometer-pressure,Orientation-S,Orientation-X,Orientation-Y,Orientation-Z,Accelerometer-X,Accelerometer-Y,Accelerometer-Z,Gyroscope-X,Gyroscope-Y,Gyroscope-Z,Magnetometer-X,Magnetometer-Y,Magnetometer-Z,Barometer-pressure,Orientation-S,Orientation-X,Orientation-Y,Orientation-Z,Accelerometer-X,Accelerometer-Y,Accelerometer-Z,Gyroscope-X,Gyroscope-Y,Gyroscope-Z,Magnetometer-X,Magnetometer-Y,Magnetometer-Z,Barometer-pressure,Orientation-S,Orientation-X,Orientation-Y,Orientation-Z,jump
-10.198172,-0.964864,-0.466616,-0.212482,-0.003207,-0.00352,41.569366,-2.844325,19.678333,4.63583E+18,0.725921,-0.072777,0.6839,-0.004735,-9.605767,0.621144,-0.861838,0.005128,0.013458,0.000683,40.186771,-22.655482,4.674924,4.63582E+18,0.523472,-0.534764,0.501746,0.433884,-9.627551,0.006796,-0.848745,-0.051418,-0.045188,0.008129,40.894802,16.842126,9.436323,4.63583E+18,0.574752,0.380655,0.614295,-0.383932,0
-10.228902,-1.070642,-0.817018,-0.208447,-0.020731,0.023541,41.566208,-2.926618,19.690091,4.63583E+18,0.725955,-0.074161,0.683725,-0.003106,-9.678489,0.242736,-0.802294,0.021101,0.007138,0.011491,40.142348,-22.487048,4.708178,4.63582E+18,0.523598,-0.534594,0.501833,0.433842,-9.514987,0.112925,-0.770757,-0.050618,-0.045604,0.008961,40.843932,16.788908,9.504148,4.63583E+18,0.574983,0.380437,0.614286,-0.383817,0
-10.135755,-1.074252,-0.512686,-0.19183,-0.024449,0.05337,41.648502,-3.000314,19.690542,4.63583E+18,0.726001,-0.075393,0.683547,-0.00145,-9.682938,0.099114,-0.606006,0.054472,-0.004955,0.02982,40.056897,-22.363962,4.51286,4.63582E+18,0.523788,-0.534293,0.501992,0.433798,-9.485152,0.154966,-0.727696,-0.056464,-0.044447,0.011839,40.872423,16.954732,9.533982,4.63583E+18,0.575223,0.380214,0.614285,-0.383678,0
-9.967577,-0.956704,-0.41822,-0.162399,-0.033824,0.074018,41.651661,-2.932493,19.690542,4.63583E+18,0.726079,-0.076433,0.68335,0.000143,-9.499838,0.242153,-0.43705,0.068404,-0.00799,0.047252,40.060286,-22.452798,4.476188,4.63582E+18,0.523959,-0.533949,0.502177,0.433802,-9.468199,-0.010836,-0.703284,-0.057265,-0.047503,0.015785,40.94566,17.029327,9.466169,4.63583E+18,0.575478,0.379995,0.614273,-0.383532,0
-9.761411,-0.881649,-0.661901,-0.12632,-0.061951,0.088141,41.581131,-3.082588,19.690542,4.63583E+18,0.726246,-0.077318,0.683071,0.00168,-9.437287,0.500424,-0.353051,0.056661,-0.003591,0.056183,40.063251,-22.579279,4.528946,4.63582E+18,0.524105,-0.533589,0.502402,0.433808,-9.494638,-0.305806,-0.738198,-0.052162,-0.046168,0.022281,40.917195,16.919151,9.368521,4.63583E+18,0.575731,0.379807,0.614247,-0.383381,0
-9.553885,-0.749631,-0.636143,-0.113659,-0.090791,0.094828,41.496131,-3.253039,19.608258,4.63583E+18,0.726495,-0.078144,0.682707,0.00321,-9.486113,0.786559,-0.342288,0.017663,0.004996,0.052642,40.028076,-22.57591,4.478195,4.63582E+18,0.524152,-0.533337,0.502567,0.43387,-9.628213,-0.479117,-0.807707,-0.033148,-0.041896,0.0305,40.784629,16.811308,9.347138,4.63583E+18,0.575955,0.379694,0.614188,-0.383251,0
-9.393396,-0.615365,-0.246925,-0.116309,-0.075406,0.101236,41.575236,-3.259377,19.605089,4.63583E+18,0.726696,-0.078932,0.682393,0.004734,-9.55397,0.864809,-0.366701,-0.031343,0.012388,0.041448,40.028076,-22.579269,4.431287,4.63582E+18,0.524069,-0.533259,0.502602,0.434025,-9.816066,-0.487287,-0.78773,-0.015996,-0.03614,0.039045,40.736103,16.946199,9.342396,4.63583E+18,0.57615,0.379653,0.614103,-0.383136,0
-9.246454,-0.457578,-0.255447,-0.136996,-0.025407,0.096332,41.660689,-3.329896,19.699116,4.63583E+18,0.726745,-0.079779,0.68223,0.006268,-9.702854,0.754464,-0.429175,-0.057293,0.013844,0.030212,40.028076,-22.575915,4.47569,4.63582E+18,0.523946,-0.533262,0.50257,0.434207,-9.909684,-0.569299,-0.769066,-0.000628,-0.031956,0.043882,40.83779,17.135753,9.406453,4.63583E+18,0.576316,0.379668,0.613997,-0.38304,0
-9.323277,-0.322388,-0.350382,-0.15116,0.024836,0.07865,41.663868,-3.414894,19.714502,4.63583E+18,0.726645,-0.080706,0.682213,0.007757,-9.865977,0.81,-0.469746,-0.058109,0.013928,0.020127,40.066134,-22.534866,4.523082,4.63582E+18,0.523867,-0.533257,0.502547,0.434335,-9.899199,-0.415485,-0.77754,0.015394,-0.028752,0.047086,40.891068,17.077872,9.436323,4.63583E+18,0.576453,0.379736,0.613868,-0.382973,0
-9.502734,-0.199874,-0.307007,-0.162988,0.0411,0.057409,41.49934,-3.418073,19.620941,4.63583E+18,0.726492,-0.081705,0.682239,0.009184,-9.956331,1.042404,-0.482909,-0.049439,0.015509,0.014357,40.145716,-22.572921,4.528946,4.63582E+18,0.523815,-0.533247,0.502531,0.434429,-9.887997,-0.075402,-0.730434,0.003242,-0.024806,0.045101,40.894802,16.868335,9.436323,4.63583E+18,0.576595,0.379776,0.613773,-0.382872,0
-9.768106,-0.183567,-0.375696,-0.172681,0.043714,0.035018,41.422453,-3.33581,19.711311,4.63583E+18,0.726326,-0.082758,0.682269,0.010527,-10.030048,1.096286,-0.582946,-0.033806,0.013803,0.007269,40.14872,-22.696895,4.528946,4.63582E+18,0.523787,-0.533246,0.50249,0.434512,-9.854107,0.078983,-0.665668,-0.025771,-0.023499,0.040087,40.945634,16.848221,9.368545,4.63583E+18,0.576771,0.379736,0.613736,-0.382707,0
-9.919152,-0.288877,-0.472444,-0.177153,0.015002,0.017728,41.490228,-3.332621,19.797218,4.63583E+18,0.72624,-0.083848,0.682206,0.011816,-10.045741,1.00592,-0.684567,-0.014579,0.008975,-0.002303,39.986692,-22.779015,4.579681,4.63582E+18,0.523857,-0.533181,0.502487,0.434509,-9.788336,-0.012474,-0.706295,-0.041179,-0.024241,0.039195,40.968044,16.8198,9.270889,4.63583E+18,0.57697,0.379656,0.613723,-0.382505,0
-9.971621,-0.504485,-0.417337,-0.171144,-0.021072,0.007837,41.575216,-3.332621,19.624151,4.63583E+18,0.726256,-0.08493,0.682032,0.013054,-9.958868,1.02732,-0.739734,0.001872,0.006964,-0.010293,39.907426,-22.740969,4.620265,4.63582E+18,0.523984,-0.533092,0.502494,0.434458,-9.689677,-0.103396,-0.851049,-0.037864,-0.028274,0.038039,40.917215,16.738084,9.31725,4.63583E+18,0.577172,0.379575,0.613699,-0.382321,0
-9.949948,-0.782969,-0.309299,-0.156509,-0.036825,0.006449,41.496161,-3.332621,19.523295,4.63583E+18,0.726321,-0.085952,0.681812,0.014232,-9.893864,0.922085,-0.781747,0.02075,0.002484,-0.018324,40.069429,-22.655048,4.519294,4.63582E+18,0.524176,-0.532971,0.502506,0.434361,-9.622173,-0.045837,-0.894877,-0.033025,-0.031391,0.037385,40.903273,16.661111,9.410167,4.63583E+18,0.577373,0.379499,0.613661,-0.382154,0
-9.81978,-0.922735,-0.199432,-0.14464,-0.022991,0.012578,41.422462,-3.567628,19.625392,4.63583E+18,0.726348,-0.086933,0.681634,0.015404,-9.843615,0.806635,-0.698377,0.047578,-0.009348,-0.026315,40.186771,-22.570069,4.431287,4.63582E+18,0.524465,-0.532787,0.502522,0.434218,-9.581816,-0.012207,-0.831848,-0.034268,-0.032786,0.038867,40.847716,16.740334,9.377031,4.63583E+18,0.57758,0.379423,0.613619,-0.381983,0
-9.709012,-0.963009,-0.195318,-0.140088,0.011494,0.024126,41.337476,-3.659012,19.723496,4.63583E+18,0.726276,-0.087861,0.681564,0.016576,-9.688433,0.944215,-0.597691,0.05807,-0.017686,-0.034346,40.104358,-22.49049,4.329855,4.63582E+18,0.524809,-0.532583,0.502521,0.434054,-9.579074,-0.096911,-0.763337,-0.034508,-0.036077,0.041004,40.9232,16.903764,9.3424,4.63583E+18,0.577799,0.379346,0.613568,-0.38181,0
-9.693137,-0.917389,-0.312807,-0.131703,0.03749,0.03896,41.41651,-3.579979,19.727163,4.63583E+18,0.72613,-0.088692,0.681582,0.017727,-9.53844,1.043498,-0.566939,0.036172,-0.015344,-0.045664,39.939331,-22.449415,4.235969,4.63582E+18,0.52512,-0.532455,0.502459,0.433907,-9.625158,-0.227444,-0.77006,-0.028993,-0.032939,0.045363,41.086616,16.896799,9.397948,4.63583E+18,0.578006,0.379299,0.61351,-0.381637,0
-9.680929,-0.786318,-0.364388,-0.13241,0.029201,0.040549,41.572454,-3.659011,19.727163,4.63583E+18,0.726006,-0.089515,0.681576,0.018883,-9.510036,0.910868,-0.600038,0.006471,-0.01064,-0.05844,39.945904,-22.493781,4.381745,4.63582E+18,0.52538,-0.532425,0.502328,0.433782,-9.694662,-0.192343,-0.755867,-0.02374,-0.030235,0.048481,41.020385,16.819818,9.297082,4.63583E+18,0.578203,0.379278,0.613445,-0.381464,0
-9.656973,-0.605041,-0.354473,-0.139647,0.017532,0.04059,41.578415,-3.662221,19.727163,4.63583E+18,0.725911,-0.09034,0.681535,0.020044,-9.566136,0.666734,-0.646992,-0.008113,-0.012386,-0.066861,40.110461,-22.490505,4.567438,4.63582E+18,0.525628,-0.532438,0.502151,0.433669,-9.750969,-0.13329,-0.676901,-0.0291,-0.026203,0.052099,40.917233,16.797386,9.181722,4.63583E+18,0.578402,0.379259,0.613394,-0.381262,0
-9.632558,-0.374934,-0.365764,-0.152264,0.016062,0.034421,41.425681,-3.662221,19.727163,4.63583E+18,0.725815,-0.0912,0.681488,0.021201,-9.556528,0.555671,-0.615306,-0.016227,-0.017727,-0.06943,40.142409,-22.493776,4.468639,4.63582E+18,0.525874,-0.532465,0.501941,0.433581,-9.791326,-0.342238,-0.663928,-0.021671,-0.020122,0.056371,41.064159,16.797386,9.28257,4.63583E+18,0.57858,0.379278,0.61334,-0.38106,0
-9.596395,-0.119496,-0.424966,-0.18153,0.037611,0.020816,41.501963,-3.662221,19.727163,4.63583E+18,0.725646,-0.092172,0.6815,0.022374,-9.47788,0.612239,-0.573281,-0.025799,-0.024731,-0.069984,40.107656,-22.57289,4.282929,4.63582E+18,0.526113,-0.532503,0.501695,0.433529,-9.836414,-0.39713,-0.722212,-0.001532,-0.015936,0.05768,41.13895,16.797386,9.465674,4.63583E+18,0.578717,0.379356,0.613263,-0.380899,0
-9.65375,0.054578,-0.450751,-0.213487,0.047703,0.002823,41.65787,-3.744443,19.821133,4.63583E+18,0.725436,-0.093286,0.681531,0.023573,-9.505559,0.671873,-0.561541,-0.033235,-0.023295,-0.069943,40.151546,-22.570091,4.286662,4.63582E+18,0.526333,-0.532559,0.501439,0.43349,-9.825973,-0.11594,-0.727717,0.007563,-0.012731,0.056198,41.028872,16.797386,9.462503,4.63583E+18,0.578828,0.379458,0.613183,-0.380759,0
-9.714786,0.084529,-0.486912,-0.239364,0.035733,-0.015336,41.581645,-3.90037,19.742601,4.63583E+18,0.725249,-0.094536,0.681515,0.024802,-9.716775,0.658274,-0.605887,-0.036871,-0.019267,-0.06943,40.180436,-22.357483,4.377974,4.63582E+18,0.526537,-0.532627,0.501189,0.433448,-9.738555,0.067731,-0.669439,-0.001826,-0.008046,0.05184,40.980251,16.738122,9.436323,4.63583E+18,0.578933,0.379533,0.613136,-0.380599,0
-9.728839,-0.090737,-0.558772,-0.252666,0.018805,-0.024244,41.355241,-3.906369,19.645404,4.63583E+18,0.725103,-0.095832,0.681442,0.026031,-9.964981,0.628448,-0.62798,-0.026295,-0.019186,-0.064439,40.218927,-22.110672,4.36838,4.63582E+18,0.526756,-0.53266,0.500969,0.433394,-9.721817,0.139989,-0.655458,-0.01678,-0.004927,0.045018,41.09031,16.610344,9.368595,4.63583E+18,0.579043,0.37956,0.613132,-0.380412,0
-9.705811,-0.309061,-0.491073,-0.255206,0.028435,-0.024567,41.182052,-3.75369,19.735667,4.63583E+18,0.724929,-0.097095,0.681402,0.027218,-10.06524,0.622578,-0.604031,-0.003819,-0.019823,-0.054824,40.304393,-22.116777,4.277044,4.63582E+18,0.527009,-0.532624,0.50081,0.433317,-9.7293,0.209492,-0.709995,-0.035438,-0.007236,0.034577,41.028891,16.506185,9.279402,4.63583E+18,0.579171,0.379511,0.613169,-0.380206,0
-9.751858,-0.646198,-0.441324,-0.251177,0.043225,-0.022512,41.257774,-3.665471,19.727628,4.63583E+18,0.724713,-0.098316,0.68141,0.028367,-10.071108,0.6099,-0.572807,0.014687,-0.024136,-0.050203,40.301096,-22.281803,4.235969,4.63582E+18,0.527302,-0.532529,0.500685,0.43322,-9.678511,0.215011,-0.791699,-0.052768,-0.008545,0.027273,40.920999,16.590038,9.253212,4.63583E+18,0.579317,0.3794,0.613243,-0.379975,0
-9.84766,-0.788373,-0.462953,-0.232519,0.041739,-0.015239,41.413683,-3.744422,19.821108,4.63583E+18,0.724506,-0.099456,0.681418,0.02948,-9.976025,0.674229,-0.530317,0.021363,-0.028922,-0.049094,40.221984,-22.363962,4.33739,4.63582E+18,0.527619,-0.532408,0.500566,0.43312,-9.639127,0.105952,-0.851754,-0.054717,-0.009286,0.024154,40.945587,16.799516,9.312463,4.63583E+18,0.579462,0.379274,0.613324,-0.379748,0
-9.933566,-0.899156,-0.475623,-0.228706,0.031384,-0.002625,41.501912,-3.982505,19.836565,4.63583E+18,0.724326,-0.100564,0.681396,0.030643,-9.849968,0.719299,-0.525387,0.013599,-0.025985,-0.051949,40.224801,-22.319596,4.475654,4.63582E+18,0.527919,-0.532313,0.500437,0.433021,-9.597783,0.08643,-0.866726,-0.057851,-0.015538,0.022018,41.027296,16.819844,9.338663,4.63583E+18,0.579625,0.379126,0.613398,-0.379528,0
-9.972055,-0.973806,-0.534804,-0.224474,0.008371,0.009166,41.352512,-4.144479,19.75483,4.63583E+18,0.724209,-0.101628,0.681307,0.031846,-9.802078,0.65146,-0.473752,0.009181,-0.025799,-0.05388,40.221992,-22.322872,4.472378,4.63582E+18,0.528212,-0.532232,0.500297,0.432925,-9.574348,0.131513,-0.824408,-0.072406,-0.02038,0.022844,41.002716,16.687362,9.338663,4.63583E+18,0.579824,0.378938,0.613482,-0.379276,0
-9.93822,-0.976592,-0.537126,-0.205816,-0.013073,0.023999,41.193815,-4.150517,19.751579,4.63583E+18,0.724157,-0.102574,0.681164,0.033032,-9.707952,0.661069,-0.402377,0.007313,-0.030463,-0.054557,40.186771,-22.363962,4.32989,4.63582E+18,0.528509,-0.532148,0.500143,0.432843,-9.604456,0.070322,-0.788763,-0.088342,-0.022103,0.022018,41.039493,16.587913,9.338663,4.63583E+18,0.58005,0.378706,0.61359,-0.378987,0
-9.842904,-0.894411,-0.361023,-0.197894,-0.023131,0.035867,41.3404,-4.080076,19.751579,4.63583E+18,0.724135,-0.103436,0.680999,0.03421,-9.561939,0.809415,-0.40331,-0.014538,-0.034303,-0.060493,40.224792,-22.319606,4.286662,4.63582E+18,0.528775,-0.532118,0.499929,0.432803,-9.661748,-0.115712,-0.730496,-0.096631,-0.02095,0.024325,41.057242,16.616225,9.270959,4.63583E+18,0.580289,0.378463,0.61371,-0.37867,0
-9.698286,-0.703299,-0.295314,-0.210962,0.000128,0.039399,41.499097,-3.995092,19.739838,4.63583E+18,0.72404,-0.104306,0.680906,0.0354,-9.434001,0.954035,-0.484747,-0.061468,-0.037385,-0.071296,40.304367,-22.23416,4.377979,4.63582E+18,0.528963,-0.532205,0.499604,0.432841,-9.739705,-0.276193,-0.724953,-0.083461,-0.018074,0.030078,41.002724,16.579456,9.317162,4.63583E+18,0.580509,0.37827,0.613807,-0.378367,0
-9.575278,-0.43754,-0.410379,-0.234093,0.031886,0.031303,41.422991,-4.074002,19.65719,4.63583E+18,0.723844,-0.105269,0.680902,0.036613,-9.375286,0.823602,-0.574677,-0.10303,-0.035722,-0.079638,40.301117,-22.19306,4.469767,4.63582E+18,0.52907,-0.532402,0.499193,0.432943,-9.791307,-0.402008,-0.808598,-0.056916,-0.011908,0.035006,40.878713,16.443239,9.486255,4.63583E+18,0.580678,0.378165,0.613871,-0.37811,0
-9.570604,-0.204197,-0.508972,-0.245265,0.036194,0.020704,41.349278,-4.147713,19.747841,4.63583E+18,0.723631,-0.106288,0.680904,0.037815,-9.451307,0.545167,-0.579157,-0.118686,-0.035844,-0.080071,40.342374,-22.237406,4.421712,4.63582E+18,0.529142,-0.532633,0.498754,0.433077,-9.751782,-0.354861,-0.83385,-0.033261,-0.008133,0.038538,40.935289,16.453766,9.470045,4.63583E+18,0.580805,0.378132,0.613901,-0.377899,0
-9.594085,-0.089658,-0.547931,-0.26211,0.029126,0.007968,41.428655,-4.150517,19.751579,4.63583E+18,0.723431,-0.107379,0.680878,0.039016,-9.578784,0.445801,-0.631219,-0.125649,-0.039602,-0.078489,40.425047,-22.278511,4.282953,4.63582E+18,0.529202,-0.53287,0.498297,0.433237,-9.788514,-0.080539,-0.762431,-0.032625,-0.002296,0.040262,41.090221,16.649175,9.36865,4.63583E+18,0.580918,0.378114,0.613942,-0.377676,0
-9.618496,-0.061974,-0.596288,-0.274063,0.026786,-0.001767,41.584529,-3.997914,19.739839,4.63583E+18,0.723234,-0.108502,0.680841,0.040189,-9.675983,0.48968,-0.676819,-0.1298,-0.040549,-0.075203,40.386578,-22.278511,4.235969,4.63582E+18,0.529249,-0.533108,0.497839,0.433414,-9.865504,0.17667,-0.673234,-0.051532,0.00222,0.033928,41.037445,16.605721,9.474001,4.63583E+18,0.581039,0.378042,0.614034,-0.377412,0
-9.67812,-0.096249,-0.492528,-0.258082,0.039028,-0.019595,41.438039,-4.144404,19.657211,4.63583E+18,0.72301,-0.109636,0.680833,0.041265,-9.742428,0.594589,-0.614864,-0.123109,-0.03675,-0.070417,40.383469,-22.234176,4.13463,4.63582E+18,0.529293,-0.533329,0.497412,0.433579,-9.854162,0.176479,-0.655451,-0.06689,0.004685,0.025795,40.93325,16.443277,9.542441,4.63583E+18,0.581164,0.377916,0.61417,-0.377125,0
-9.80958,-0.203294,-0.206604,-0.254343,0.034386,-0.028511,41.279345,-4.38526,19.759554,4.63583E+18,0.722799,-0.110796,0.680804,0.042319,-9.848251,0.652867,-0.573748,-0.106454,-0.034735,-0.065591,40.507373,-22.148729,4.091314,4.63582E+18,0.52936,-0.533507,0.497032,0.433714,-9.763049,0.053455,-0.752233,-0.068278,0.001641,0.022759,41.0085,16.453745,9.343207,4.63583E+18,0.581294,0.377774,0.614306,-0.376846,0
-9.885184,-0.313173,-0.148364,-0.279897,0.019801,-0.024731,41.425832,-4.324234,19.857694,4.63583E+18,0.722617,-0.111998,0.68073,0.043442,-9.96895,0.482335,-0.637078,-0.087781,-0.036357,-0.059142,40.500954,-22.151938,4.188973,4.63582E+18,0.529462,-0.533625,0.496698,0.433826,-9.619358,0.096779,-0.776567,-0.068033,0,0.021691,41.171896,16.479994,9.312411,4.63583E+18,0.581425,0.377627,0.61444,-0.376572,0
-9.887997,-0.563844,-0.486827,-0.282977,0.013065,-0.014299,41.514079,-4.23927,19.943596,4.63583E+18,0.72245,-0.113153,0.680643,0.044581,-9.984745,0.272617,-0.619845,-0.060761,-0.037385,-0.051666,40.418713,-22.148739,4.235969,4.63582E+18,0.529612,-0.533666,0.49643,0.433899,-9.562147,0.244224,-0.709866,-0.077241,-0.00222,0.021363,41.173658,16.370052,9.406321,4.63583E+18,0.581575,0.377454,0.614584,-0.376279,0
-9.841054,-0.925819,-0.746953,-0.234796,0.001522,-0.005671,41.435229,-4.388533,19.864747,4.63583E+18,0.722335,-0.114144,0.680531,0.045624,-9.942248,0.289372,-0.492356,-0.030499,-0.041263,-0.043635,40.463029,-22.151923,4.134676,4.63582E+18,0.529823,-0.533618,0.496226,0.433936,-9.617589,0.115399,-0.683615,-0.087838,-0.008384,0.023583,41.041226,16.270562,9.37713,4.63583E+18,0.58176,0.377251,0.614726,-0.375963,0
-9.792224,-1.139477,-0.299167,-0.207184,-0.008174,0.010062,41.431927,-4.558965,19.779295,4.63583E+18,0.722254,-0.115015,0.6804,0.046651,-9.842309,0.474313,-0.395146,-0.016496,-0.050956,-0.039521,40.510497,-22.275369,3.99633,4.63582E+18,0.530075,-0.533514,0.496034,0.433974,-9.677671,-0.200137,-0.776627,-0.078955,-0.009202,0.028267,40.984003,16.248055,9.21558,4.63583E+18,0.58194,0.37708,0.614846,-0.37566,0
-9.813809,-1.253117,-0.081264,-0.22669,0.015073,0.029165,41.431927,-4.647719,19.588223,4.63583E+18,0.722093,-0.115898,0.680342,0.047783,-9.683633,0.737875,-0.379335,-0.035447,-0.05495,-0.039521,40.427752,-22.313775,3.898229,4.63582E+18,0.530292,-0.533446,0.495799,0.434061,-9.684222,-0.254451,-0.826352,-0.060385,-0.009285,0.035827,41.090177,16.357978,9.223198,4.63583E+18,0.582103,0.376974,0.614925,-0.375386,0
-9.732612,-1.292565,-0.39007,-0.242917,0.055039,0.049416,41.349786,-4.651021,19.498536,4.63583E+18,0.721806,-0.116768,0.680413,0.048991,-9.569255,0.84729,-0.453473,-0.083271,-0.046762,-0.045613,40.427739,-22.063339,3.794704,4.63582E+18,0.530396,-0.533512,0.495483,0.434214,-9.68047,-0.130485,-0.737102,-0.057435,-0.005914,0.040673,41.088221,16.457477,9.380032,4.63583E+18,0.582259,0.376893,0.615,-0.375102,0
-9.705832,-1.129706,-0.39111,-0.235324,0.103842,0.058417,41.19393,-4.803565,19.600831,4.63583E+18,0.72138,-0.1176,0.680634,0.05018,-9.590939,0.66601,-0.525818,-0.124417,-0.038928,-0.050717,40.542136,-21.863459,3.899558,4.63582E+18,0.530403,-0.533691,0.495101,0.43442,-9.781921,-0.229173,-0.71273,-0.060967,-0.005012,0.041658,40.905074,16.420815,9.444777,4.63583E+18,0.582419,0.376807,0.615082,-0.374804,0
-9.76355,-0.712433,-0.331973,-0.234993,0.122173,0.050535,41.269909,-4.962244,19.792814,4.63583E+18,0.720902,-0.118459,0.680906,0.051336,-9.637521,0.373051,-0.511366,-0.134469,-0.034617,-0.046327,40.539442,-22.03431,4.192518,4.63582E+18,0.530373,-0.533888,0.494726,0.434643,-9.869231,-0.284523,-0.720237,-0.050117,-0.003122,0.042398,40.825309,16.453722,9.44853,4.63583E+18,0.582557,0.376753,0.615152,-0.37453,0
-9.848052,-0.285175,-0.529057,-0.229859,0.098198,0.03891,41.425756,-4.886284,19.882538,4.63583E+18,0.720496,-0.119308,0.681103,0.052432,-9.593678,0.257249,-0.457107,-0.129721,-0.02983,-0.038851,40.504166,-22.14877,4.283011,4.63582E+18,0.530301,-0.534101,0.494351,0.434896,-9.845731,-0.052534,-0.70333,-0.050779,-0.000657,0.039767,40.99062,16.530713,9.507703,4.63583E+18,0.582686,0.376694,0.615232,-0.374257,0
-9.863107,-0.057373,-0.642721,-0.228625,0.054084,0.026134,41.514057,-4.730435,19.967989,4.63583E+18,0.72022,-0.120149,0.681167,0.053475,-9.596359,0.268116,-0.452121,-0.124302,-0.027772,-0.032481,40.497839,-21.981065,4.084118,4.63582E+18,0.530254,-0.534259,0.494041,0.43511,-9.818507,0.192526,-0.662011,-0.06672,0.005177,0.033276,41.175589,16.502522,9.593151,4.63583E+18,0.582814,0.376589,0.615363,-0.373949,0
-9.887045,0.009827,-0.517947,-0.23269,0.038995,0.010238,41.435259,-4.724265,19.877462,4.63583E+18,0.719987,-0.121035,0.681176,0.05448,-9.65062,0.205745,-0.48286,-0.111844,-0.026665,-0.024926,40.491959,-21.863459,3.892381,4.63582E+18,0.530217,-0.534378,0.493772,0.435315,-9.789394,0.078848,-0.646992,-0.068196,0.013394,0.028757,41.173685,16.429278,9.687056,4.63583E+18,0.582916,0.376481,0.615523,-0.373635,0
-9.805877,-0.034718,-0.360204,-0.234909,0.049745,0.000375,41.361537,-4.958891,19.979234,4.63583E+18,0.719722,-0.121969,0.68121,0.055469,-9.737845,0.108091,-0.500504,-0.07981,-0.02785,-0.011992,40.454004,-21.945692,3.845332,4.63582E+18,0.53023,-0.534398,0.493587,0.435484,-9.761227,0.033807,-0.672348,-0.057351,0.014543,0.021856,41.100446,16.40675,9.725545,4.63583E+18,0.582986,0.376384,0.61568,-0.373364,0
-9.767355,-0.118731,-0.318825,-0.242177,0.066625,-0.004105,41.358681,-5.132631,19.90141,4.63583E+18,0.719404,-0.122953,0.681286,0.056468,-9.802545,0.029409,-0.506829,-0.034433,-0.033229,0.003476,40.380758,-22.066435,3.794727,4.63582E+18,0.530326,-0.534277,0.493508,0.435606,-9.669203,0.209404,-0.675163,-0.053407,0.015365,0.017748,41.187777,16.356042,9.66169,4.63583E+18,0.583041,0.376288,0.61584,-0.373111,0
-9.707273,-0.344941,-0.399501,-0.245549,0.07961,-0.001194,41.358681,-5.057208,19.898067,4.63583E+18,0.719047,-0.123924,0.681405,0.05746,-9.79622,0.120173,-0.449462,0.011533,-0.036317,0.015662,40.345467,-22.063333,3.747673,4.63582E+18,0.530508,-0.534023,0.493534,0.435666,-9.55558,0.246965,-0.637602,-0.04971,0.013804,0.016351,41.236607,16.223638,9.631641,4.63583E+18,0.583092,0.376194,0.615993,-0.372874,0
-9.657972,-0.529941,-0.426301,-0.239517,0.06677,0.004063,41.440781,-5.053865,19.804239,4.63583E+18,0.718727,-0.124851,0.681489,0.058449,-9.796662,0.333127,-0.371664,0.041374,-0.035764,0.023062,40.383412,-22.022156,3.697079,4.63582E+18,0.530741,-0.53369,0.493631,0.43568,-9.487974,0.071386,-0.622578,-0.039194,0.0106,0.017501,41.067601,16.166358,9.572489,4.63583E+18,0.583135,0.376124,0.616121,-0.372665,0
-9.550501,-0.736508,-0.392074,-0.224898,0.05391,0.012482,41.279938,-4.971767,19.894235,4.63583E+18,0.718449,-0.125685,0.681546,0.059405,-9.815193,0.452556,-0.354015,0.051387,-0.031929,0.025082,40.425037,-22.066425,3.656338,4.63582E+18,0.530984,-0.533339,0.49376,0.435669,-9.481395,-0.109848,-0.647927,-0.015286,0.011092,0.021855,40.941761,16.323148,9.605338,4.63583E+18,0.583146,0.376124,0.616206,-0.372507,0
-9.487554,-0.850194,-0.355456,-0.213024,0.062642,0.018974,41.202868,-4.886324,19.886341,4.63583E+18,0.718152,-0.126448,0.681638,0.060322,-9.833283,0.55197,-0.354015,0.052262,-0.032713,0.022908,40.386655,-22.063343,3.706485,4.63582E+18,0.531234,-0.532987,0.493885,0.435651,-9.544301,-0.133347,-0.66765,0.007639,0.012489,0.028675,40.969913,16.453691,9.631641,4.63583E+18,0.583128,0.3762,0.616249,-0.372388,0
-9.508606,-0.877972,-0.318834,-0.206405,0.059942,0.023331,41.352434,-4.882961,19.979675,4.63583E+18,0.717864,-0.127167,0.681727,0.061223,-9.769617,0.692127,-0.360337,0.036925,-0.03687,0.016937,40.427663,-21.93996,3.697091,4.63582E+18,0.53147,-0.532675,0.493961,0.435661,-9.612848,-0.14742,-0.7221,0.027932,0.009121,0.036151,40.992458,16.37016,9.564051,4.63583E+18,0.583097,0.376339,0.616241,-0.372309,0
-9.509567,-0.878933,-0.329121,-0.201021,0.060843,0.032735,41.511151,-5.129256,19.901421,4.63583E+18,0.717571,-0.127863,0.68182,0.062158,-9.698563,0.801118,-0.372545,0.012396,-0.036279,0.007839,40.668555,-21.857136,3.700595,4.63582E+18,0.531636,-0.53247,0.493937,0.435735,-9.665434,-0.268525,-0.7531,0.047487,0.011173,0.043628,40.992458,16.211469,9.54243,4.63583E+18,0.583042,0.376548,0.616196,-0.372259,0
-9.509567,-0.761678,-0.388228,-0.196708,0.07217,0.040294,41.294594,-5.373828,20.003598,4.63583E+18,0.717244,-0.128539,0.68195,0.063109,-9.680034,0.842311,-0.384751,-0.012761,-0.036355,-0.00288,40.821556,-21.81332,3.8994,4.63582E+18,0.531768,-0.53234,0.493847,0.435834,-9.781851,-0.325841,-0.824446,0.064496,0.012818,0.049627,41.051598,16.162601,9.605328,4.63583E+18,0.582965,0.376816,0.61612,-0.372234,0
-9.615096,-0.616154,-0.33201,-0.185253,0.088024,0.043668,41.05093,-5.453818,20.113462,4.63583E+18,0.716876,-0.129169,0.682133,0.064022,-9.6493,0.880238,-0.422243,-0.040569,-0.03462,-0.016842,40.695131,-21.866505,4.14179,4.63582E+18,0.531893,-0.532267,0.493721,0.435914,-9.886091,-0.093074,-0.862966,0.063516,0.016513,0.049793,41.187726,16.221734,9.690773,4.63583E+18,0.582879,0.377088,0.616054,-0.372201,0
-9.830491,-0.364136,-0.317874,-0.176582,0.089682,0.03456,41.205445,-5.456709,20.106075,4.63583E+18,0.71651,-0.129792,0.682318,0.064875,-9.644284,0.864985,-0.527529,-0.065538,-0.02762,-0.032864,40.457304,-22.075337,4.084259,4.63582E+18,0.531977,-0.532294,0.49353,0.435995,-9.903964,0.181145,-0.756916,0.030581,0.015202,0.046178,41.236607,16.197372,9.72554,4.63583E+18,0.582843,0.377269,0.616042,-0.372094,0
-9.956407,-0.154706,-0.422909,-0.174193,0.049716,0.028026,41.364608,-5.386365,20.105593,4.63583E+18,0.716261,-0.130402,0.682384,0.065709,-9.738223,0.666204,-0.617124,-0.065884,-0.023499,-0.043908,40.345467,-22.19306,3.79762,4.63582E+18,0.532069,-0.532356,0.49332,0.436045,-9.841076,0.180334,-0.615114,0.005265,0.017581,0.039688,41.17748,16.115681,9.594151,4.63583E+18,0.58283,0.377376,0.616086,-0.371934,0
-9.984689,-0.017525,-0.427259,-0.170005,0.018317,0.014436,41.288823,-5.301397,20.011802,4.63583E+18,0.716108,-0.131014,0.682352,0.066491,-9.89059,0.461721,-0.628465,-0.032834,-0.026264,-0.046999,40.427625,-22.104583,3.662221,4.63582E+18,0.532244,-0.532347,0.493156,0.436028,-9.721848,0.095814,-0.514627,0.002956,0.01701,0.035907,41.210277,16.089357,9.466415,4.63583E+18,0.582816,0.377467,0.616138,-0.371777,0
-9.973932,0.034688,-0.333467,-0.16881,0.016065,-0.002528,41.20337,-5.380081,20.007935,4.63583E+18,0.715965,-0.13167,0.682304,0.06722,-10.024439,0.421804,-0.628897,0.008673,-0.029393,-0.048657,40.504166,-22.022156,3.706459,4.63582E+18,0.532521,-0.532243,0.493058,0.435927,-9.62136,0.216799,-0.327852,0.004273,0.014544,0.033771,41.236607,16.148468,9.436323,4.63583E+18,0.582803,0.377552,0.616185,-0.371633,0
-9.950003,-0.021991,-0.341322,-0.175947,-0.009621,-0.003204,41.129652,-5.4538,20.019657,4.63583E+18,0.715891,-0.13234,0.682177,0.067981,-10.020132,0.42683,-0.622148,0.036655,-0.026591,-0.05352,40.466255,-22.066383,3.703445,4.63582E+18,0.532863,-0.532092,0.493007,0.435751,-9.561243,0.221663,-0.205692,0.011661,0.016102,0.03459,41.236607,16.115701,9.436323,4.63583E+18,0.582775,0.377659,0.616224,-0.371504,0
-9.878699,-0.153362,-0.40042,-0.17009,-0.039402,-0.000127,41.197076,-5.456709,20.008419,4.63583E+18,0.715904,-0.132968,0.681965,0.068743,-9.866488,0.351883,-0.623004,0.050352,-0.020183,-0.063245,40.468822,-22.019172,3.655904,4.63582E+18,0.533239,-0.531943,0.492974,0.435511,-9.512418,-0.11707,-0.377299,0.052631,0.022262,0.043375,41.177508,16.089357,9.503867,4.63583E+18,0.58268,0.377898,0.616201,-0.371448,0
-9.699931,-0.17042,-0.367673,-0.171887,-0.063158,0.011284,41.129644,-5.538777,20.019658,4.63583E+18,0.715979,-0.133561,0.681688,0.069557,-9.696011,0.261393,-0.552666,0.066083,-0.01709,-0.079379,40.542066,-21.898803,3.650014,4.63582E+18,0.533672,-0.531798,0.492941,0.435195,-9.59867,-0.222586,-0.548306,0.093807,0.020874,0.049953,41.151157,16.148454,9.533982,4.63583E+18,0.582533,0.378252,0.616101,-0.371484,0
-9.587188,-0.13574,-0.307616,-0.180177,-0.065114,0.036364,41.044694,-5.624209,19.938094,4.63583E+18,0.716046,-0.134106,0.681416,0.07047,-9.562589,0.434056,-0.400296,0.094592,-0.01488,-0.088656,40.621621,-21.901356,3.605801,4.63582E+18,0.53415,-0.531646,0.492908,0.434831,-9.660734,-0.097773,-0.788575,0.111327,0.019227,0.057181,41.210253,16.174809,9.533982,4.63583E+18,0.582374,0.378664,0.615958,-0.37155,0
-9.512485,0.041534,-0.164533,-0.198978,-0.038492,0.047641,41.04129,-5.70966,19.93469,4.63583E+18,0.716023,-0.134682,0.681224,0.071455,-9.597982,0.641524,-0.298023,0.116061,-0.011713,-0.094735,40.662861,-21.936705,3.564562,4.63582E+18,0.534681,-0.531463,0.492909,0.434401,-9.609173,-0.158569,-1.191268,0.118724,0.018488,0.062771,41.236607,16.174809,9.466451,4.63583E+18,0.582213,0.379107,0.615794,-0.371623,0
-9.521288,0.154319,-0.100091,-0.230511,0.009792,0.038836,41.123339,-5.783391,20.028458,4.63583E+18,0.715847,-0.135386,0.681162,0.072471,-9.825724,0.652884,-0.230671,0.123464,-0.010129,-0.113116,40.707069,-21.892496,3.659293,4.63582E+18,0.535258,-0.531303,0.492887,0.43391,-9.700986,0.163879,-1.322166,0.080078,0.00708,0.059657,41.177521,16.115722,9.377236,4.63583E+18,0.582137,0.379431,0.615667,-0.371622,0
-9.510055,0.170416,-0.320332,-0.261527,0.027132,0.025122,41.208778,-5.786309,20.126107,4.63583E+18,0.715608,-0.136215,0.681136,0.073512,-9.942297,0.665936,-0.226892,0.133777,-0.015139,-0.145969,40.786201,-21.813364,3.848707,4.63582E+18,0.535957,-0.531144,0.492837,0.433297,-9.804361,0.549067,-1.107374,0.008036,0.000659,0.049555,41.210243,16.038711,9.350871,4.63583E+18,0.582175,0.379544,0.615653,-0.371471,0
-9.544726,0.463893,-0.364759,-0.267892,0.03495,-0.002095,41.130158,-5.704272,20.036251,4.63583E+18,0.715352,-0.137129,0.681117,0.074472,-9.68469,1.049822,-0.098507,0.14431,-0.015875,-0.174955,40.733162,-21.689612,3.791457,4.63582E+18,0.536732,-0.531021,0.49274,0.4326,-9.91136,0.149032,-1.333935,-0.024146,-0.014032,0.039284,41.287248,15.906393,9.350871,4.63583E+18,0.582285,0.37953,0.615669,-0.371286,0
-9.710264,0.804237,-0.120111,-0.270156,0.045504,-0.042172,41.197059,-5.63054,19.926872,4.63583E+18,0.715077,-0.138156,0.681108,0.075302,-9.435482,1.808363,0.010946,0.129725,-0.005672,-0.178749,40.650654,-21.562906,3.599502,4.63582E+18,0.537457,-0.530958,0.492629,0.431903,-9.856199,-0.317992,-1.764041,0.00989,-0.029895,0.035579,41.259214,15.967131,9.418387,4.63583E+18,0.582376,0.379564,0.6156,-0.371222,0
-9.904606,0.946811,-0.098147,-0.291776,0.021319,-0.065329,41.12967,-5.70965,19.840445,4.63583E+18,0.714863,-0.139308,0.681004,0.076141,-9.73388,1.742785,-0.125425,0.06406,0.008286,-0.195099,40.694845,-21.521652,3.754376,4.63582E+18,0.538039,-0.531098,0.492396,0.431271,-9.814753,-0.157193,-1.689598,0.051811,-0.043781,0.038203,41.236607,16.06675,9.507607,4.63583E+18,0.58244,0.379685,0.61543,-0.371281,0
-10.041389,0.79975,-0.250087,-0.30088,0.011061,-0.064173,40.974313,-5.865492,19.942558,4.63583E+18,0.714671,-0.140485,0.680865,0.07702,-10.299609,1.046964,-0.308108,0.03031,0.003318,-0.222983,40.773979,-21.521652,4.037678,4.63582E+18,0.538609,-0.531358,0.492034,0.430652,-9.840068,0.06464,-1.514784,0.068189,-0.059142,0.03583,41.34631,16.038726,9.466474,4.63583E+18,0.582513,0.379816,0.6152,-0.371412,0
-10.10532,0.547247,-0.408786,-0.306348,0.011707,-0.061011,40.968044,-5.871761,20.122779,4.63583E+18,0.714473,-0.141656,0.680729,0.077911,-10.42726,0.705107,-0.516886,0.052152,-0.014069,-0.225749,40.765161,-21.483778,3.980916,4.63582E+18,0.539266,-0.531544,0.491665,0.430021,-9.707927,0.033924,-1.536162,0.073451,-0.064089,0.030489,41.445933,16.016113,9.301313,4.63583E+18,0.582582,0.379939,0.61496,-0.371577,0
-10.189789,0.24406,-0.415052,-0.334253,0.002518,-0.039344,41.202497,-5.707644,20.118285,4.63583E+18,0.714278,-0.142825,0.680572,0.078929,-10.100658,0.591019,-0.546421,0.061953,-0.001554,-0.216688,40.679715,-21.360044,3.788527,4.63582E+18,0.539901,-0.531714,0.491359,0.429364,-9.618534,0.244705,-1.157519,0.060004,-0.062612,0.02441,41.409483,16.075179,9.241004,4.63583E+18,0.582658,0.380016,0.614753,-0.37172,0
-10.204906,-0.002538,-0.4385,-0.346683,0.004188,-0.016911,41.212193,-5.782925,19.941943,4.63583E+18,0.714061,-0.143971,0.680427,0.080052,-9.975936,0.391144,-0.514369,0.069131,0.010536,-0.210905,40.682622,-21.233327,3.785953,4.63582E+18,0.540517,-0.531876,0.491106,0.428678,-9.775968,0.59869,-0.757228,0.015757,-0.070073,0.011357,41.273415,16.152187,9.308501,4.63583E+18,0.582803,0.379941,0.614618,-0.371793,0
-10.170221,-0.129433,-0.474634,-0.346122,0.00017,-0.000636,40.977741,-6.102818,19.770574,4.63583E+18,0.713845,-0.145091,0.680274,0.081249,-10.046693,0.042611,-0.529986,0.0913,0.003096,-0.205491,40.850116,-21.236229,3.883613,4.63582E+18,0.541187,-0.531963,0.490889,0.427974,-9.741698,0.665846,-0.63389,-0.035026,-0.071488,0.00198,41.2244,16.174809,9.338663,4.63583E+18,0.583017,0.379716,0.614573,-0.371761,0
-10.145322,-0.075669,-0.417476,-0.33172,-0.033849,0.016412,41.050103,-6.115909,19.857565,4.63583E+18,0.713729,-0.146096,0.680035,0.082465,-10.015142,-0.159522,-0.424781,0.133354,-0.001104,-0.195254,41.012217,-21.233333,3.930784,4.63582E+18,0.54194,-0.531925,0.49076,0.427214,-9.633622,0.587936,-0.588831,-0.081946,-0.06976,-0.011073,41.27502,16.174809,9.212114,4.63583E+18,0.583281,0.379347,0.614626,-0.371637,0
-10.074017,0.032258,-0.356439,-0.307534,-0.081406,0.037605,41.287948,-6.033851,19.943503,4.63583E+18,0.713754,-0.146934,0.679678,0.083684,-10.010894,-0.208349,-0.372943,0.182342,-0.008761,-0.187958,41.003021,-21.103719,3.930784,4.63582E+18,0.542803,-0.531748,0.490717,0.426388,-9.565048,0.763995,-0.599055,-0.144849,-0.067215,-0.025618,41.196419,16.065146,9.223038,4.63583E+18,0.583614,0.378792,0.614806,-0.371382,0
-10.000773,0.060067,-0.412627,-0.283993,-0.11101,0.057942,41.450037,-6.112515,19.946898,4.63583E+18,0.71387,-0.147631,0.679253,0.084913,-10.053414,-0.225631,-0.403256,0.228308,-0.021027,-0.190238,40.917981,-21.027458,3.930784,4.63582E+18,0.543796,-0.531449,0.490722,0.425489,-9.495579,0.989481,-0.585065,-0.252986,-0.069177,-0.038027,41.151157,15.957067,9.320693,4.63583E+18,0.584103,0.377939,0.615168,-0.370884,0
-9.950979,-0.00929,-0.661195,-0.253317,-0.160359,0.075158,41.303967,-6.280005,19.864849,4.63583E+18,0.714136,-0.148174,0.678701,0.086142,-10.05849,-0.144028,-0.57908,0.21679,-0.02284,-0.217072,40.964609,-20.989195,3.930784,4.63582E+18,0.544813,-0.531227,0.490643,0.424555,-9.641649,0.779911,-0.531572,-0.357293,-0.068284,-0.0483,41.260814,15.989708,9.28339,4.63583E+18,0.584736,0.376807,0.615708,-0.37014,0
-9.913871,0.011235,-0.624523,-0.201829,-0.218766,0.084043,41.133552,-6.286813,19.779398,4.63583E+18,0.714594,-0.148507,0.677999,0.087278,-9.996228,0.078149,-0.827065,0.108068,0.001748,-0.275694,41.123295,-20.859591,3.880319,4.63582E+18,0.545641,-0.531415,0.490296,0.423656,-9.733961,0.237492,-0.892248,-0.414713,-0.074673,-0.057913,41.419496,16.016113,9.312251,4.63583E+18,0.58546,0.375499,0.616334,-0.369282,0
-9.818643,0.223186,-0.212341,-0.163848,-0.237516,0.072077,41.208788,-6.204765,19.764273,4.63583E+18,0.715134,-0.148737,0.677251,0.088265,-10.144584,0.106188,-0.96602,0.057843,-0.011754,-0.318042,41.193678,-20.644531,3.927746,4.63582E+18,0.54646,-0.531778,0.489736,0.422792,-9.674038,-0.010206,-1.070478,-0.430949,-0.078713,-0.065312,41.586621,15.965511,9.600108,4.63583E+18,0.586205,0.374126,0.616986,-0.368404,0
-9.861625,0.489742,0.003891,-0.170561,-0.220766,0.041831,41.282503,-6.365416,19.588013,4.63583E+18,0.715631,-0.149088,0.676529,0.089182,-10.396835,-0.132438,-0.950149,0.159093,-0.105082,-0.349513,41.187778,-20.43866,4.016236,4.63582E+18,0.547749,-0.531807,0.489074,0.421853,-9.626981,0.030847,-0.72847,-0.418579,-0.071663,-0.067293,41.639454,15.942868,9.582154,4.63583E+18,0.586908,0.372788,0.617636,-0.36755,0
-9.887021,0.617699,0.117683,-0.187311,-0.197478,0.039564,41.133086,-6.524618,19.404882,4.63583E+18,0.71605,-0.149512,0.675866,0.090134,-10.373473,-0.029371,-1.061379,0.362435,-0.222458,-0.379439,41.22561,-20.317812,3.965795,4.63582E+18,0.549777,-0.531225,0.488432,0.420689,-9.54354,0.052604,-0.590613,-0.401975,-0.073526,-0.069507,41.462368,15.993465,9.268794,4.63583E+18,0.587584,0.371481,0.618259,-0.366746,0
-9.864557,0.669456,0.004878,-0.185943,-0.151419,0.039521,41.126743,-6.530961,19.303807,4.63583E+18,0.716339,-0.149943,0.675341,0.091049,-10.01972,0.794709,-1.44142,0.573868,-0.306958,-0.405979,41.342991,-20.188225,3.918576,4.63582E+18,0.55246,-0.530092,0.487872,0.419251,-9.661347,-0.237866,-0.884859,-0.334636,-0.067722,-0.067546,41.222886,16.066706,9.223011,4.63583E+18,0.588142,0.370352,0.618789,-0.366099,0
-10.027617,0.612823,-0.234335,-0.163303,-0.136213,0.040547,41.208758,-6.530961,19.393639,4.63583E+18,0.7166,-0.150299,0.674872,0.091883,-9.419182,1.518534,-1.849739,0.721898,-0.31392,-0.446672,41.457545,-19.979505,4.013142,4.63582E+18,0.555547,-0.528682,0.487458,0.41743,-9.864216,-0.298764,-1.350504,-0.270405,-0.082534,-0.067701,41.269208,15.98817,9.514611,4.63583E+18,0.588636,0.369358,0.619184,-0.36564,0
-10.210257,0.469754,-0.455073,-0.117244,-0.210504,0.065198,41.36453,-6.612987,19.397564,4.63583E+18,0.717088,-0.150418,0.674214,0.092706,-8.999961,1.502615,-1.918867,0.817806,-0.217037,-0.462885,41.492962,-19.773194,4.152117,4.63582E+18,0.558696,-0.52721,0.48743,0.415116,-9.857169,0.313192,-1.332886,-0.274876,-0.106285,-0.074263,41.482253,16.001887,9.62321,4.63583E+18,0.589187,0.3683,0.619538,-0.365221,0
-10.264469,0.323264,-0.206083,-0.074347,-0.249516,0.102112,41.441198,-6.698439,19.128046,4.63583E+18,0.717696,-0.150295,0.673478,0.09355,-9.289624,0.686833,-1.441083,0.941701,-0.086837,-0.409146,41.530785,-19.608594,4.199347,4.63582E+18,0.561747,-0.525557,0.488028,0.412381,-9.683636,0.674917,-1.080316,-0.321012,-0.124289,-0.084284,41.494985,16.129489,9.551987,4.63583E+18,0.589839,0.367074,0.619932,-0.364734,0
-10.301576,0.153359,0.355367,-0.02855,-0.208981,0.120014,41.444134,-6.783881,18.941044,4.63583E+18,0.71821,-0.150004,0.67289,0.094297,-10.299351,-0.997852,-0.512496,1.199181,-0.033113,-0.332286,41.604026,-19.487725,4.199347,4.63582E+18,0.565105,-0.523227,0.48935,0.409177,-9.476111,0.450452,-0.916699,-0.338272,-0.138098,-0.092014,41.367379,16.115794,9.665098,4.63583E+18,0.59054,0.365765,0.620329,-0.364241,0
-10.209326,-0.05267,0.472151,0.029676,-0.230798,0.126851,41.444134,-6.787316,18.933683,4.63583E+18,0.718818,-0.149502,0.672266,0.094908,-11.058369,-2.08434,0.950442,1.546036,-0.033113,-0.293428,41.765498,-19.358163,4.394715,4.63582E+18,0.569131,-0.519983,0.491331,0.405341,-9.361311,0.236839,-0.862067,-0.327535,-0.15387,-0.102114,41.330492,15.878537,9.7293,4.63583E+18,0.591247,0.364431,0.620684,-0.363824,0
-9.935907,0.009263,0.241757,0.119187,-0.2933,0.128135,41.526151,-6.869332,19.027415,4.63583E+18,0.719656,-0.148699,0.671492,0.095306,-11.093353,-1.416654,2.556658,1.823459,-0.037524,-0.27751,41.8773,-19.193561,4.773145,4.63582E+18,0.573708,-0.516013,0.493782,0.40096,-9.414567,0.195318,-0.677411,-0.293801,-0.165796,-0.106485,41.3174,15.89381,9.526892,4.63583E+18,0.591927,0.363151,0.620964,-0.363521,0
-9.655168,0.094214,0.091358,0.190493,-0.327655,0.133303,41.529587,-6.872768,18.937621,4.63583E+18,0.72063,-0.147649,0.670645,0.095537,-10.765717,0.111159,3.820205,1.913844,0.004106,-0.265796,41.865092,-18.990765,5.151551,4.63582E+18,0.578336,-0.511838,0.49648,0.396302,-9.60877,0.102548,-0.513826,-0.252143,-0.172457,-0.106077,41.259249,15.993471,9.377287,4.63583E+18,0.592559,0.361963,0.621164,-0.363334,0
-9.468142,0.121087,0.038597,0.238433,-0.368963,0.146843,41.447589,-6.790772,18.652552,4.63583E+18,0.721741,-0.146394,0.669702,0.095694,-10.269964,1.326285,4.585264,1.855957,0.112054,-0.245191,41.859184,-18.828541,5.435447,4.63582E+18,0.582544,-0.507907,0.499356,0.391558,-9.705769,-0.031723,-0.526685,-0.209751,-0.180749,-0.112387,41.236607,16.016113,9.477362,4.63583E+18,0.593139,0.360851,0.621287,-0.363284,0
-9.425592,0.122074,0.247494,0.292612,-0.352196,0.173031,41.666722,-6.717025,18.546983,4.63583E+18,0.722826,-0.144899,0.668847,0.095759,-10.217995,1.443223,4.879025,1.813853,0.198952,-0.221348,41.985199,-18.743088,5.67487,4.63582E+18,0.58638,-0.50417,0.502363,0.386785,-9.74239,-0.005787,-0.608359,-0.170715,-0.189624,-0.127903,41.236607,16.016113,9.474956,4.63583E+18,0.593658,0.359782,0.621351,-0.363386,0
-9.459256,0.11036,0.326638,0.330682,-0.311447,0.200757,41.840066,-6.784355,18.543045,4.63583E+18,0.723806,-0.143227,0.668145,0.095776,-10.715314,0.794304,5.164498,1.862087,0.2486,-0.199883,42.134833,-18.531643,5.955623,4.63582E+18,0.590139,-0.50032,0.505585,0.381836,-9.956089,0.243653,-0.778133,-0.165794,-0.208499,-0.157129,41.177583,16.125732,9.313615,4.63583E+18,0.594173,0.35862,0.621405,-0.363601,0
-9.706667,0.004468,0.306178,0.415195,-0.258528,0.226473,41.612759,-6.951269,18.554756,4.63583E+18,0.724673,-0.141256,0.667648,0.09561,-10.948476,0.754039,5.270469,1.861549,0.324189,-0.201222,42.120276,-18.246157,6.337166,4.63582E+18,0.593723,-0.496534,0.508988,0.376667,-10.198455,0.535725,-0.83388,-0.19385,-0.224619,-0.197208,41.092138,16.225397,9.320662,4.63583E+18,0.59471,0.35726,0.62152,-0.363865,0
-9.998186,-0.117122,0.246624,0.518121,-0.218437,0.239813,41.520846,-7.110478,18.379571,4.63583E+18,0.725478,-0.138964,0.667316,0.095188,-10.888613,1.352593,4.968063,1.706511,0.439477,-0.240638,42.028524,-18.127995,6.863649,4.63582E+18,0.596766,-0.493365,0.512324,0.371465,-10.30858,0.622578,-0.78795,-0.222051,-0.239649,-0.235507,41.065704,16.248055,9.418317,4.63583E+18,0.595268,0.355708,0.621697,-0.364172,0
-10.267678,-0.321135,0.127054,0.640151,-0.259866,0.246481,41.751569,-7.128626,18.18479,4.63583E+18,0.726458,-0.136271,0.666906,0.094474,-10.971274,1.320477,4.36999,1.454107,0.557142,-0.298485,41.93717,-18.046113,7.286197,4.63582E+18,0.599096,-0.491104,0.515418,0.366396,-10.335894,0.597285,-0.937682,-0.259897,-0.267474,-0.273299,41.175304,16.307069,9.372653,4.63583E+18,0.595895,0.35392,0.621916,-0.364514,0
-10.430873,-0.716054,0.204049,0.778371,-0.33035,0.251866,41.913766,-6.965173,18.071428,4.63583E+18,0.727704,-0.133104,0.666336,0.09342,-11.02212,0.7676,3.695824,1.17203,0.666154,-0.359849,41.933595,-17.881128,7.617333,4.63582E+18,0.60068,-0.489827,0.518208,0.361543,-10.154216,0.653393,-1.030074,-0.291886,-0.28952,-0.309536,41.274979,16.384084,9.338663,4.63583E+18,0.596569,0.351924,0.622179,-0.364894,0
-10.296801,-0.978371,0.184104,0.914157,-0.354781,0.245935,41.838247,-6.887955,17.97327,4.63583E+18,0.729083,-0.129525,0.665734,0.091978,-10.885898,0.41117,3.229139,0.928715,0.76622,-0.398174,41.962754,-17.672437,8.046145,4.63582E+18,0.601588,-0.489378,0.520788,0.356903,-9.877234,0.506599,-0.995483,-0.300887,-0.319148,-0.342571,41.23864,16.516331,9.203794,4.63583E+18,0.597279,0.349774,0.622429,-0.365374,0
-9.998106,-1.246406,-0.109623,1.056968,-0.330079,0.240551,41.83477,-6.80301,18.062973,4.63583E+18,0.730458,-0.125528,0.665248,0.0901,-10.6969,0.091496,2.711851,0.74015,0.844364,-0.413575,41.994623,-17.472394,8.471805,4.63582E+18,0.601947,-0.489538,0.52324,0.352465,-9.672327,0.283961,-1.153608,-0.292367,-0.347022,-0.367978,41.153189,16.565447,9.016905,4.63583E+18,0.598007,0.347535,0.622629,-0.365977,0
-9.716374,-1.444689,-0.625514,1.197009,-0.29211,0.233162,41.986972,-6.717568,17.973293,4.63583E+18,0.731785,-0.121136,0.664913,0.08779,-10.564169,-0.185788,2.291933,0.584789,0.898981,-0.420884,42.023796,-17.307421,8.806126,4.63582E+18,0.601863,-0.490173,0.525574,0.348229,-9.49301,-0.033116,-1.07281,-0.252264,-0.355363,-0.385982,41.118313,16.616016,8.892807,4.63583E+18,0.598668,0.345334,0.622771,-0.366739,0
-9.529268,-1.417557,-0.88115,1.327716,-0.280292,0.21749,42.14567,-6.327712,17.852219,4.63583E+18,0.733135,-0.116342,0.664644,0.085008,-10.491307,-0.293742,2.197333,0.427169,0.942809,-0.418614,41.973819,-17.142813,9.193527,4.63582E+18,0.601342,-0.491251,0.527782,0.344247,-9.596452,-0.256051,-0.697605,-0.203613,-0.371917,-0.402004,41.173528,16.697685,8.862575,4.63583E+18,0.599273,0.343187,0.622816,-0.367688,0
-9.404696,-1.205317,-0.94968,1.438566,-0.289075,0.192248,41.99996,-6.147317,17.929179,4.63583E+18,0.734543,-0.111287,0.66435,0.08186,-10.373627,-0.285922,2.065156,0.232762,0.985465,-0.420466,41.844313,-16.896008,9.612939,4.63582E+18,0.600318,-0.49287,0.529805,0.340594,-9.710403,-0.229335,-0.384556,-0.146291,-0.378455,-0.404752,41.14099,16.774709,8.795152,4.63583E+18,0.599806,0.341163,0.622758,-0.3688,0
-9.306037,-0.798258,-0.71802,1.535267,-0.295615,0.151245,41.829557,-6.140324,17.932676,4.63583E+18,0.735995,-0.106053,0.664024,0.078328,-10.202733,-0.193421,1.802522,0.059828,0.993012,-0.426224,41.792994,-16.566427,9.985433,4.63582E+18,0.598916,-0.494935,0.531581,0.337285,-9.619752,-0.920026,-0.195636,-0.044527,-0.358216,-0.390488,40.996558,16.906936,8.697501,4.63583E+18,0.60016,0.33946,0.62257,-0.370109,0
-9.266918,-0.160757,-0.462164,1.597594,-0.320463,0.110612,41.986472,-6.152032,17.839013,4.63583E+18,0.737522,-0.100743,0.663595,0.074524,-9.805267,0.469886,1.426971,-0.104979,0.989337,-0.413492,41.904377,-16.362696,10.370156,4.63582E+18,0.597132,-0.497398,0.533103,0.33441,-9.680147,-1.750738,-0.365575,0.078788,-0.353708,-0.368312,40.834088,17.057199,8.608272,4.63583E+18,0.60036,0.338128,0.62217,-0.371674,0
-9.323951,0.404215,-0.4985,1.641058,-0.358388,0.076173,42.063706,-6.070586,17.741364,4.63583E+18,0.739146,-0.095388,0.663017,0.070516,-9.283032,1.434067,0.944619,-0.332506,1.018606,-0.392296,41.937211,-16.327591,10.704135,4.63582E+18,0.594788,-0.50038,0.534442,0.331991,-9.771432,-1.851204,-0.598703,0.211134,-0.349795,-0.343339,40.886051,17.271099,8.505967,4.63583E+18,0.600399,0.337196,0.621537,-0.373512,0
-9.408401,0.965753,-0.664393,1.65203,-0.425522,0.037895,42.136951,-5.751007,17.72565,4.63583E+18,0.740935,-0.09007,0.662191,0.066371,-8.87505,1.957702,0.399724,-0.600243,1.058026,-0.374073,41.814012,-16.333506,10.940845,4.63582E+18,0.591756,-0.504028,0.535534,0.330127,-9.773487,-1.575429,-0.558095,0.287063,-0.344199,-0.311807,41.032527,17.45625,8.337132,4.63583E+18,0.600362,0.336544,0.620753,-0.375459,0
-9.622598,1.445294,-0.624587,1.638086,-0.501045,0.001495,42.292121,-5.351215,17.70174,4.63583E+18,0.7429,-0.084856,0.661086,0.062161,-8.515497,2.326183,-0.211023,-0.862128,1.094343,-0.329554,41.73711,-16.421593,11.136164,4.63582E+18,0.588012,-0.508258,0.536431,0.328874,-9.723798,-1.148524,-0.344213,0.299337,-0.345087,-0.26657,41.069487,17.61494,8.082846,4.63583E+18,0.600379,0.336035,0.619882,-0.377323,0
-9.760395,1.921381,-0.329954,1.620059,-0.599415,-0.017411,42.368884,-5.100537,17.501752,4.63583E+18,0.745097,-0.079718,0.659633,0.05797,-7.95981,2.916611,-1.041171,-1.096612,1.125153,-0.234741,41.781149,-16.630234,11.425838,4.63582E+18,0.583549,-0.512873,0.537261,0.328302,-9.704885,-1.026282,-0.251713,0.316443,-0.348291,-0.218579,40.956181,17.714661,7.92845,4.63583E+18,0.600452,0.335688,0.618906,-0.379113,0
-9.531852,2.210158,-0.118433,1.582446,-0.669043,-0.035568,42.453821,-5.008563,17.305952,4.63583E+18,0.747436,-0.074735,0.657916,0.053858,-7.070895,2.164459,-2.318153,-1.084395,1.07538,-0.070014,41.734497,-16.622748,11.753922,4.63582E+18,0.578975,-0.517,0.538318,0.328198,-9.620646,-1.248227,-0.370507,0.366731,-0.350759,-0.168636,40.898585,17.787901,7.830799,4.63583E+18,0.600537,0.335589,0.617772,-0.380911,0
-9.205781,2.291968,0.053982,1.556282,-0.620662,-0.045534,42.609492,-4.689042,17.19256,4.63583E+18,0.7496,-0.06986,0.65631,0.049759,-6.623824,0.481452,-3.253146,-0.601001,0.868264,0.175769,41.563593,-16.460376,11.990658,4.63582E+18,0.575554,-0.519109,0.54005,0.32804,-9.565964,-1.317544,-0.368295,0.407713,-0.360265,-0.117367,40.894802,17.810602,7.674179,4.63583E+18,0.600668,0.335708,0.616475,-0.382697,0
-8.911291,2.283288,-0.067701,1.522454,-0.523221,-0.042858,42.60434,-4.289221,16.977361,4.63583E+18,0.751453,-0.065086,0.654975,0.045714,-7.193579,-0.021438,-3.643759,0.115519,0.615104,0.461562,41.443018,-16.632808,12.185965,4.63582E+18,0.573852,-0.518503,0.542764,0.3275,-9.693172,-1.053489,-0.257573,0.415435,-0.373083,-0.066096,40.827414,17.869566,7.482644,4.63583E+18,0.600899,0.335956,0.615059,-0.38439,0
-8.68856,2.048743,-0.400902,1.482133,-0.472019,-0.046822,42.45171,-4.120464,16.874675,4.63583E+18,0.753122,-0.060458,0.653765,0.041753,-8.495562,-0.863707,-3.851989,0.903301,0.319712,0.70756,41.325766,-16.922045,12.431566,4.63582E+18,0.574154,-0.515077,0.546337,0.326434,-9.787405,-1.00735,-0.362915,0.414441,-0.384426,-0.024409,40.746606,17.837097,7.363144,4.63583E+18,0.601224,0.336289,0.613556,-0.38599,0
-8.71457,1.804596,-0.649092,1.426185,-0.457698,-0.057238,42.515354,-3.950067,16.858929,4.63583E+18,0.754708,-0.056036,0.652563,0.037907,-9.2595,-2.016056,-3.580485,1.807732,-0.020253,0.932421,41.16078,-16.967184,12.66795,4.63582E+18,0.576854,-0.508455,0.550814,0.324526,-9.650949,-1.172381,-0.511479,0.420337,-0.390685,0.008553,40.833384,17.709538,7.201898,4.63583E+18,0.601607,0.336709,0.611978,-0.38753,0
-8.79799,1.560476,-0.507092,1.380841,-0.494024,-0.078156,42.904506,-3.638776,16.846723,4.63583E+18,0.756358,-0.051796,0.651212,0.034114,-8.875547,-1.365067,-3.364801,2.685329,-0.294639,1.201851,40.996164,-16.975687,12.857349,4.63582E+18,0.581611,-0.498677,0.556326,0.321794,-9.574391,-0.929793,-0.43144,0.414145,-0.398642,0.045421,40.924699,17.773585,6.939228,4.63583E+18,0.602075,0.337193,0.610335,-0.388971,0
-8.81324,1.363109,-0.254763,1.343142,-0.516099,-0.117952,42.99144,-3.473474,16.553668,4.63583E+18,0.758036,-0.047783,0.649754,0.030307,-8.238228,-0.016054,-3.411786,3.396875,-0.526271,1.463068,40.79348,-17.061128,13.146946,4.63582E+18,0.587914,-0.48616,0.562664,0.318459,-9.680058,-0.734545,-0.134264,0.400592,-0.400887,0.085675,40.876274,17.932262,6.587349,4.63583E+18,0.602629,0.337739,0.60865,-0.390277,0
-8.872256,1.085876,-0.220744,1.314972,-0.454524,-0.151374,42.982771,-3.314777,16.084654,4.63583E+18,0.759518,-0.043961,0.648459,0.026464,-7.593858,0.879179,-3.355571,3.927383,-0.702628,1.680619,40.631059,-17.14658,13.525376,4.63582E+18,0.595244,-0.471458,0.569554,0.314675,-9.737719,-1.297363,0.026099,0.411016,-0.396135,0.127736,40.787039,17.872057,6.276286,4.63583E+18,0.603221,0.338425,0.606897,-0.391496,0
-8.933286,0.84024,-0.313338,1.287203,-0.34228,-0.190626,43.134376,-2.840182,15.854332,4.63583E+18,0.760672,-0.040327,0.64749,0.022529,-6.887296,1.734427,-3.213904,4.296758,-0.795599,1.857066,40.551895,-17.357768,13.859797,4.63582E+18,0.603071,-0.45513,0.576838,0.310516,-9.800441,-1.848795,-0.212161,0.455216,-0.397093,0.157939,40.869968,17.772295,6.121801,4.63583E+18,0.603799,0.339295,0.605024,-0.39275,0
-9.076192,0.736522,-0.574742,1.288097,-0.274075,-0.23935,43.211149,-2.574258,15.927093,4.63583E+18,0.761623,-0.036824,0.646711,0.018421,-6.435575,2.632167,-3.112523,4.495326,-0.81691,1.971427,40.478655,-17.649632,14.253335,4.63582E+18,0.610923,-0.437813,0.584304,0.306075,-10.028992,-1.118959,-0.110731,0.500111,-0.38958,0.180294,41.087577,17.699056,6.091494,4.63583E+18,0.604327,0.340344,0.603061,-0.394047,0
-9.40988,0.720745,-1.47508,1.288186,-0.315327,-0.309987,43.144015,-2.493361,15.918963,4.63583E+18,0.762666,-0.03352,0.64577,0.014109,-6.392937,3.24597,-3.138392,4.529475,-0.773908,2.041021,40.392844,-17.736267,14.835881,4.63582E+18,0.618373,-0.420101,0.591796,0.301508,-10.086267,-0.437829,0.45076,0.492824,-0.377499,0.203866,41.096023,17.726826,5.763208,4.63583E+18,0.604869,0.341452,0.601103,-0.395247,0
-9.70486,0.579865,-1.899741,1.310704,-0.416524,-0.380521,43.211148,-2.256357,15.731291,4.63583E+18,0.763962,-0.030332,0.644478,0.00953,-6.746414,3.324175,-3.123654,4.479966,-0.705587,2.085498,40.301481,-17.656747,15.306124,4.63582E+18,0.625222,-0.402339,0.599199,0.296953,-9.843805,-1.088114,0.549758,0.514809,-0.369432,0.219596,41.065704,17.699052,5.480708,4.63583E+18,0.60538,0.342665,0.599103,-0.396449,0
-9.728791,0.304703,-1.495449,1.378216,-0.477145,-0.443854,43.284394,-1.848444,15.60616,4.63583E+18,0.765403,-0.027089,0.642965,0.004568,-7.277225,3.121506,-2.793524,4.392177,-0.636098,2.076857,40.134354,-17.659265,15.442365,4.63582E+18,0.631504,-0.384712,0.606425,0.292315,-9.808844,-1.162712,0.517338,0.565558,-0.354923,0.229871,41.175125,17.625817,5.420087,4.63583E+18,0.605795,0.344053,0.597036,-0.397728,0
-9.565553,0.16432,-1.488792,1.479363,-0.514395,-0.504821,43.439502,-1.445136,15.671239,4.63583E+18,0.766923,-0.023682,0.641302,-0.000861,-7.877541,2.745412,-2.137377,4.269026,-0.555186,2.017763,39.808523,-17.707018,15.73139,4.63582E+18,0.637195,-0.3675,0.613372,0.287579,-10.057986,-0.313843,0.76057,0.576249,-0.344129,0.244639,41.325395,17.552579,5.2181,4.63583E+18,0.606187,0.345521,0.594954,-0.398977,0
-9.418043,0.123608,-1.816795,1.55939,-0.512845,-0.560588,43.516326,-1.112471,15.475471,4.63583E+18,0.768408,-0.020171,0.639607,-0.006678,-8.661991,2.19468,-1.355435,4.12892,-0.469315,1.92693,39.399421,-17.756919,16.349438,4.63582E+18,0.642314,-0.350853,0.620007,0.282713,-10.114479,-0.425431,0.538497,0.582432,-0.352117,0.256574,41.471885,17.479334,4.86621,4.63583E+18,0.606604,0.347017,0.592819,-0.40022,0
-9.213097,0.168853,-1.842805,1.638424,-0.461546,-0.611009,43.58956,-0.794603,15.26797,4.63583E+18,0.769721,-0.016545,0.638036,-0.012863,-9.534234,1.420665,-0.719399,3.973248,-0.393668,1.793832,39.110028,-17.804676,16.870044,4.63582E+18,0.646938,-0.334931,0.626249,0.277677,-9.826239,-0.883446,0.121353,0.622493,-0.36707,0.27355,41.576284,17.456587,4.681359,4.63583E+18,0.607023,0.348629,0.590549,-0.401538,0
-8.958765,0.112423,-1.714661,1.74306,-0.406086,-0.665311,43.58094,-0.231558,14.955156,4.63583E+18,0.770844,-0.012717,0.636598,-0.019515,-10.325935,0.342497,-0.463169,3.818097,-0.336331,1.626309,38.989378,-17.854574,17.305009,4.63582E+18,0.651179,-0.319826,0.632031,0.272422,-9.755373,-0.538201,-0.016829,0.64906,-0.384232,0.292372,41.594415,17.397685,4.524801,4.63583E+18,0.60747,0.350322,0.588159,-0.402894,0
-8.854469,-0.042165,-1.825984,1.841632,-0.365898,-0.718757,43.650599,0.330432,14.731356,4.63583E+18,0.77181,-0.008704,0.635237,-0.026609,-10.788254,-0.476543,-0.59649,3.666274,-0.287656,1.43533,38.909858,-17.896053,17.786995,4.63582E+18,0.655115,-0.305599,0.637336,0.266902,-9.803374,-0.262283,-0.100147,0.649289,-0.406072,0.31642,41.472818,17.430038,4.207055,4.63583E+18,0.608003,0.352034,0.585672,-0.404218,0
-8.791894,-0.189166,-1.936363,1.936832,-0.332517,-0.774211,43.653675,0.821802,14.523319,4.63583E+18,0.772628,-0.004529,0.633925,-0.034133,-10.845042,-0.796306,-0.97702,3.454313,-0.207263,1.218075,38.818132,-17.858372,18.263057,4.63582E+18,0.658622,-0.292579,0.642168,0.261218,-9.612825,-0.509591,-0.117454,0.66423,-0.42368,0.347539,41.310343,17.397692,3.895966,4.63583E+18,0.608603,0.353826,0.583063,-0.405521,0
-8.730857,-0.359044,-2.209955,2.033943,-0.284055,-0.821568,43.641981,1.310098,14.491213,4.63583E+18,0.773251,-0.000163,0.632704,-0.042062,-10.728189,-0.840899,-1.59198,3.110251,-0.083993,0.965955,38.645109,-17.734886,18.638662,4.63582E+18,0.661527,-0.281214,0.646538,0.255516,-9.504948,-0.836702,0.041571,0.695422,-0.442314,0.39022,41.361982,17.261764,3.674099,4.63583E+18,0.609266,0.355764,0.580284,-0.406814,0
-8.68152,-0.459768,-2.595932,2.137273,-0.220601,-0.864468,43.711626,1.880191,14.279709,4.63583E+18,0.77363,0.004433,0.631615,-0.0504,-10.399605,-0.799761,-2.323322,2.621264,0.077965,0.675431,38.394697,-17.532595,18.963371,4.63582E+18,0.663624,-0.27211,0.650392,0.250099,-9.825475,-1.297943,0.11828,0.749479,-0.460401,0.44458,41.626254,17.111481,3.47878,4.63583E+18,0.609974,0.357936,0.577278,-0.408121,0
-8.761306,-0.498957,-2.600692,2.284861,-0.145267,-0.905143,43.784863,2.442178,14.060002,4.63583E+18,0.773723,0.009412,0.630677,-0.059251,-10.093772,-1.006609,-3.000267,2.035612,0.265491,0.360162,38.301603,-17.250438,19.38608,4.63582E+18,0.664806,-0.265646,0.653731,0.245155,-10.251051,-1.851849,-0.004109,0.847825,-0.482642,0.497839,41.775377,17.015478,3.224593,4.63583E+18,0.610669,0.360441,0.573959,-0.409556,0
-9.162482,-0.371879,-2.494939,2.445673,-0.143087,-0.942668,43.554093,3.179177,14.202732,4.63583E+18,0.773707,0.014815,0.629639,-0.068649,-9.990534,-1.761414,-3.54017,1.475847,0.441337,0.05623,38.368919,-16.91456,19.811939,4.63582E+18,0.665159,-0.261723,0.65661,0.240682,-10.502469,-1.900253,-0.094684,0.955489,-0.521193,0.537332,41.848621,16.942235,2.876539,4.63583E+18,0.611348,0.363242,0.570286,-0.411197,0
-9.530679,-0.190866,-2.665666,2.596698,-0.235194,-0.986182,43.532118,3.678163,14.186036,4.63583E+18,0.773814,0.02055,0.628185,-0.078569,-9.980424,-2.313826,-3.936013,1.001468,0.600939,-0.232183,38.360545,-16.666943,20.089897,4.63582E+18,0.664821,-0.260056,0.65912,0.236526,-10.508933,-1.246085,0.201367,1.010118,-0.555015,0.572985,41.972335,16.709167,2.49811,4.63583E+18,0.612069,0.366198,0.566365,-0.412918,0
-9.838482,-0.007736,-2.883872,2.739138,-0.294508,-1.021796,43.917426,4.002827,13.705643,4.63583E+18,0.773945,0.026605,0.62641,-0.088944,-9.576937,-3.825611,-3.850248,0.504934,0.880433,-0.491425,38.26882,-16.464315,20.373433,4.63582E+18,0.663415,-0.260748,0.661618,0.232708,-10.511391,-0.623342,0.358629,1.003891,-0.595627,0.602675,42.017883,16.286258,2.119711,4.63583E+18,0.612928,0.369129,0.56229,-0.414599,0
-9.851375,0.105226,-2.951613,2.883249,-0.344004,-1.060115,43.992901,4.64759,13.28698,4.63583E+18,0.774055,0.032999,0.62433,-0.09981,-12.268745,-11.307123,-4.097091,0.34747,0.988383,-0.817716,38.177439,-16.264108,20.8523,4.63582E+18,0.661836,-0.262874,0.663889,0.228301,-10.573243,0.091196,0.374632,0.945805,-0.637877,0.61834,42.017883,15.927931,1.749706,4.63583E+18,0.613985,0.371864,0.558168,-0.416159,0
-9.722797,-0.065467,-2.848991,3.027415,-0.304146,-1.099582,43.598057,5.458594,13.140869,4.63583E+18,0.77389,0.039773,0.622217,-0.111166,-16.648099,-17.970463,-5.820878,1.025249,0.630001,-1.161225,38.123374,-15.929679,21.319311,4.63582E+18,0.662288,-0.263732,0.665415,0.221458,-10.444642,0.383859,0.37843,0.858857,-0.68141,0.635644,42.110396,15.891874,1.232099,4.63583E+18,0.61529,0.374332,0.554043,-0.417528,0
-9.646952,-0.318739,-2.739113,3.16447,-0.207157,-1.124787,43.568739,6.428549,12.81953,4.63583E+18,0.773291,0.046974,0.620242,-0.122943,-15.689793,-14.216666,-5.143127,2.255528,0.233484,-1.194653,38.142891,-15.303687,21.641581,4.63582E+18,0.665162,-0.260904,0.66689,0.211531,-10.199698,-0.059665,0.361611,0.809348,-0.723325,0.666239,42.311941,15.867998,0.856424,4.63583E+18,0.616806,0.37666,0.549835,-0.41876,0
-9.632158,-0.376361,-2.898122,3.281759,-0.239772,-1.128897,43.556532,7.241482,12.489929,4.63583E+18,0.772593,0.054519,0.617977,-0.135026,-11.455811,-5.201326,-2.540489,3.017965,0.102392,-1.00629,38.197653,-14.47745,21.865869,4.63582E+18,0.668961,-0.255291,0.668783,0.200119,-10.187208,-0.478783,0.370832,0.831681,-0.767592,0.698543,42.392514,15.626581,0.701796,4.63583E+18,0.618426,0.379032,0.545407,-0.420018,0
-9.573204,-0.249867,-2.975487,3.389979,-0.355939,-1.113692,43.462514,8.140485,12.066905,4.63583E+18,0.772008,0.062383,0.615142,-0.147353,-7.168277,2.169042,-2.222565,2.965621,0.255333,-0.866476,38.24648,-13.523958,22.187364,4.63582E+18,0.67204,-0.249521,0.671092,0.189042,-10.209189,-0.71668,0.630663,0.88055,-0.820875,0.736138,42.497206,15.317622,0.284649,4.63583E+18,0.620136,0.381511,0.540681,-0.421361,0
-9.325141,-0.033751,-3.025361,3.463099,-0.415241,-1.089486,43.610308,8.798464,11.65129,4.63583E+18,0.771396,0.070487,0.611927,-0.159766,-4.636683,5.313051,-2.660864,2.610741,0.553167,-0.890173,38.295325,-12.654495,22.701621,4.63582E+18,0.673828,-0.245007,0.673831,0.178549,-10.27264,-0.974619,0.853934,0.96164,-0.862034,0.790698,42.643676,15.121756,-0.209574,4.63583E+18,0.621883,0.384236,0.535599,-0.422798,0
-9.185671,0.267805,-3.050814,3.510119,-0.412532,-1.071056,43.675496,9.363638,11.236236,4.63583E+18,0.770598,0.078763,0.608543,-0.172191,-5.891134,4.459305,-3.038562,2.380352,0.659692,-0.972973,38.306472,-11.827902,23.257075,4.63582E+18,0.675049,-0.24142,0.676526,0.168336,-10.513195,-1.078856,0.77726,1.040521,-0.917543,0.839812,42.798565,14.865996,-0.614597,4.63583E+18,0.623687,0.387161,0.530135,-0.424356,0
-9.273455,0.643036,-2.864875,3.562174,-0.441958,-1.069262,43.514486,10.018537,10.739478,4.63583E+18,0.769674,0.087168,0.604884,-0.184713,-8.115668,2.872933,-3.198546,2.446831,0.622574,-0.902313,38.363731,-11.006281,23.812657,4.63582E+18,0.676304,-0.237393,0.679152,0.158147,-10.700698,-1.229359,0.863136,1.135623,-0.972403,0.880664,42.839579,14.552406,-1.12752,4.63583E+18,0.625502,0.390309,0.524268,-0.426086,0
-9.441229,1.009776,-2.914962,3.60531,-0.529173,-1.067171,43.331897,10.73616,10.040319,4.63583E+18,0.768764,0.095634,0.600762,-0.197335,-8.781269,2.247816,-2.349725,2.587232,0.665209,-0.801038,38.37237,-10.305644,24.273658,4.63582E+18,0.677416,-0.232683,0.682002,0.147783,-10.557608,-0.688835,1.028621,1.21415,-1.030691,0.934155,42.877803,14.18461,-1.818888,4.63583E+18,0.627376,0.393653,0.517995,-0.427922,0
-9.577075,1.247454,-3.127915,3.630653,-0.631167,-1.085485,43.382505,11.468082,9.343976,4.63583E+18,0.767887,0.10403,0.59615,-0.210079,-9.042734,1.396124,-1.651789,2.583091,0.7389,-0.794557,38.180841,-9.564782,24.589626,4.63582E+18,0.678212,-0.227984,0.68497,0.137358,-10.860555,-0.616757,2.150015,1.299493,-1.129411,0.994705,43.006073,13.743562,-2.445851,4.63583E+18,0.629392,0.397151,0.511181,-0.42992,0
-9.723025,1.385892,-3.102249,3.655218,-0.696891,-1.120045,43.291636,12.270549,8.730025,4.63583E+18,0.766931,0.112339,0.591166,-0.22298,-9.916088,0.016503,-1.342388,2.482906,0.789491,-0.858625,37.993954,-8.740707,24.908397,4.63582E+18,0.678708,-0.223753,0.687872,0.126971,-10.774957,-0.808882,3.74618,1.422905,-1.230799,1.056325,42.937851,13.48979,-3.011194,4.63583E+18,0.631483,0.400893,0.503741,-0.432157,0
-9.75267,1.520173,-2.796886,3.688986,-0.738488,-1.136891,43.205661,12.924337,8.213133,4.63583E+18,0.765844,0.120641,0.585871,-0.235975,-10.650457,-0.60897,-0.727519,2.34601,0.828274,-0.962895,37.965725,-7.998603,25.425267,4.63582E+18,0.678929,-0.220202,0.690626,0.116628,-10.959586,-0.871325,4.33221,1.578735,-1.296444,1.120478,42.54007,13.650436,-3.505461,4.63583E+18,0.633512,0.405028,0.495697,-0.434625,0
-9.742031,2.016671,-2.5496,3.672048,-0.762719,-1.136555,43.260424,13.489538,7.525156,4.63583E+18,0.764622,0.128827,0.580362,-0.248873,-10.733422,-0.216167,0.085551,2.16383,0.879552,-1.038336,37.895247,-7.295406,26.078228,4.63582E+18,0.678785,-0.217385,0.693286,0.106534,-11.920116,-0.920953,4.378654,1.675585,-1.333343,1.151812,42.039544,13.955635,-4.036595,4.63583E+18,0.635449,0.409377,0.48728,-0.437233,0
-9.648044,2.505957,-2.317163,3.642601,-0.666611,-1.112997,43.251356,14.062697,6.829414,4.63583E+18,0.763007,0.137038,0.575026,-0.261508,-10.274719,0.235456,1.059377,1.975138,0.914365,-1.089273,37.705855,-6.51308,26.580791,4.63582E+18,0.678312,-0.215243,0.69584,0.096797,-12.57857,-0.93997,3.903464,1.760925,-1.352956,1.180334,41.715534,13.832233,-4.530883,4.63583E+18,0.637265,0.413931,0.478557,-0.439929,0
-9.748995,3.029299,-2.564224,3.549313,-0.660207,-1.054695,43.075585,14.694856,6.133595,4.63583E+18,0.761299,0.145068,0.569633,-0.273674,-9.811251,0.222161,2.039033,1.834614,0.915952,-1.145302,37.516827,-5.732904,26.896761,4.63582E+18,0.677654,-0.213683,0.698209,0.087339,-13.052386,-1.20043,3.501793,1.827709,-1.405402,1.218186,41.530227,12.977155,-5.246767,4.63583E+18,0.639069,0.418596,0.469453,-0.442699,0
-10.080799,3.449023,-2.645851,3.48181,-0.718377,-0.989775,42.740634,15.34125,5.250948,4.63583E+18,0.759653,0.15295,0.563954,-0.285465,-9.862205,-0.021637,2.710767,1.734392,0.912625,-1.19703,37.371389,-4.988253,27.165324,4.63582E+18,0.676872,-0.212498,0.700434,0.077982,-13.502462,-0.730297,3.40127,1.843221,-1.468948,1.236387,41.472354,12.264998,-6.08524,4.63583E+18,0.640926,0.42317,0.460065,-0.445512,0
-10.329152,3.630443,-2.567236,3.41763,-0.682159,-0.925641,42.632461,15.906469,4.453264,4.63583E+18,0.757858,0.160793,0.558293,-0.296827,-10.279676,-0.090335,3.098934,1.598652,0.904599,-1.247261,37.223862,-4.331539,27.389924,4.63582E+18,0.675945,-0.211826,0.702484,0.068882,-13.719684,-0.875553,3.225629,1.846231,-1.539389,1.256695,41.670185,12.206756,-6.944354,4.63583E+18,0.642871,0.427609,0.450391,-0.448347,0
-10.725159,3.579399,-2.505147,3.37705,-0.611927,-0.875862,42.616569,16.16429,3.87005,4.63583E+18,0.755825,0.168662,0.552751,-0.307812,-10.642036,-0.174361,3.335041,1.406472,0.891661,-1.316649,37.078433,-3.626053,27.566737,4.63582E+18,0.674845,-0.211881,0.704324,0.060157,-13.49733,-1.456866,2.393468,1.893468,-1.614888,1.288943,42.231953,12.113425,-7.811008,4.63583E+18,0.64485,0.432039,0.440311,-0.451263,0
-11.268182,3.343139,-2.397384,3.389657,-0.556716,-0.831838,42.604362,16.396757,3.284621,4.63583E+18,0.753554,0.176694,0.547219,-0.31857,-10.811212,-0.374573,3.40552,1.213011,0.892695,-1.41635,36.88697,-2.802223,27.888279,4.63582E+18,0.67354,-0.212757,0.705977,0.051713,-13.219714,-2.064192,1.622443,2.029516,-1.683374,1.339626,42.940742,11.141506,-8.602101,4.63583E+18,0.646712,0.436736,0.429637,-0.454352,0
-11.735638,2.853795,-2.089005,3.472052,-0.582981,-0.781922,42.440336,16.710395,2.60537,4.63583E+18,0.751181,0.185022,0.541339,-0.32931,-10.958737,-0.068805,3.042172,0.958872,0.880647,-1.516972,36.656067,-2.021989,28.345881,4.63582E+18,0.672012,-0.214665,0.707391,0.043779,-12.836573,-2.048369,1.235066,2.05977,-1.725746,1.366436,43.400579,9.554306,-9.35056,4.63583E+18,0.648547,0.441416,0.418679,-0.457434,0
-11.9893,2.189797,-2.098616,3.555459,-0.762083,-0.71026,42.409577,17.179607,1.641478,4.63583E+18,0.749065,0.193494,0.534601,-0.340094,-11.173217,0.832699,1.429774,0.551254,0.822488,-1.635246,36.510965,-1.365243,28.609254,4.63582E+18,0.670265,-0.21804,0.708415,0.036764,-13.485205,-1.919589,0.996314,2.088726,-1.798943,1.426287,43.347606,8.324154,-10.086752,4.63583E+18,0.650466,0.446069,0.407291,-0.460468,0
-12.069957,1.448233,-2.228153,3.664334,-0.944896,-0.59776,42.315079,17.50391,0.758213,4.63583E+18,0.747239,0.202252,0.526914,-0.350841,-11.109849,0.928609,-0.683987,0.188253,0.807573,-1.769532,36.413307,-0.873081,28.79512,4.63582E+18,0.668207,-0.222813,0.709173,0.030461,-13.851595,-2.685513,0.734573,2.198258,-1.869494,1.472927,43.16605,7.57128,-10.886425,4.63583E+18,0.652278,0.450885,0.395345,-0.463615,0
-12.34173,0.820449,-3.004744,4.041052,-1.370737,-0.480415,42.21743,17.821268,-0.284125,4.63583E+18,0.745984,0.211762,0.5171,-0.362315,-10.567604,-0.228434,-2.592346,0.17543,0.817382,-1.797342,36.271729,-0.376478,29.169999,4.63582E+18,0.666064,-0.227692,0.709883,0.02411,-13.611832,-3.14883,0.781376,2.381009,-1.946543,1.550936,43.158543,6.844135,-11.792082,4.63583E+18,0.653898,0.456091,0.382614,-0.466909,0
-12.353892,0.571589,-1.381288,4.320515,-1.402945,-0.400729,42.11977,18.056909,-1.345634,4.63583E+18,0.744416,0.22219,0.506517,-0.374053,-9.759623,-1.027461,-4.8437,0.445724,0.767996,-1.724997,36.08864,0.234842,29.483258,4.63582E+18,0.66427,-0.231588,0.710504,0.017206,-13.820494,-3.16475,1.119429,2.561086,-2.027243,1.646588,43.236369,5.957595,-12.664759,4.63583E+18,0.655349,0.461685,0.36905,-0.470285,0
-10.929108,0.421398,1.298126,3.929789,-0.582982,-0.345235,41.87029,18.055277,-2.209143,4.63583E+18,0.741325,0.232733,0.498873,-0.383925,-8.241114,-1.148856,-6.231214,0.77197,0.700421,-1.652601,35.867887,0.844195,29.560056,4.63582E+18,0.662939,-0.234313,0.710997,0.00957,-14.628638,-4.148762,1.387905,2.732051,-2.12906,1.738377,43.095097,5.126822,-13.565818,4.63583E+18,0.656647,0.467574,0.354606,-0.473756,0
-10.374207,-0.740848,-0.218547,3.549901,0.179533,-0.235604,41.777456,17.961344,-2.876653,4.63583E+18,0.736973,0.243532,0.493941,-0.391899,-6.537106,-1.585243,-6.421094,1.066507,0.635639,-1.590711,35.642912,1.549636,29.692127,4.63582E+18,0.662037,-0.236026,0.711335,0.001295,-15.609818,-5.786179,1.91452,2.955455,-2.216234,1.839456,42.90133,4.127224,-14.686713,4.63583E+18,0.657656,0.473922,0.339189,-0.477323,0
-10.632093,-0.968616,-3.013399,3.667265,0.394409,-0.072369,41.76206,17.875362,-3.547521,4.63583E+18,0.732155,0.255319,0.489198,-0.399308,-5.808365,-2.45496,-6.15139,1.261635,0.569536,-1.531996,35.447602,2.373421,30.010852,4.63582E+18,0.66147,-0.23701,0.711499,-0.007331,-17.203052,-7.784351,1.989751,3.30209,-2.291332,1.937847,42.789214,3.037045,-15.769205,4.63583E+18,0.658073,0.481059,0.322575,-0.48111,0
-10.481378,-0.030753,-3.604384,3.90223,0.48954,0.059495,41.901652,17.941701,-4.125589,4.63583E+18,0.726876,0.268239,0.484056,-0.40668,-6.233377,-3.143056,-5.695443,1.289405,0.504286,-1.529201,35.214635,3.197638,30.176362,4.63582E+18,0.661071,-0.237896,0.711432,-0.015968,-18.692803,-10.789618,1.49225,3.835083,-2.469662,2.02776,42.603037,2.043057,-16.66019,4.63583E+18,0.657587,0.489235,0.304101,-0.485542,0
-10.812547,1.191452,-2.598138,4.043393,0.614036,0.212271,42.059799,17.781423,-4.419058,4.63583E+18,0.721307,0.281947,0.478787,-0.413503,-8.075128,-2.730158,-5.649798,1.154582,0.457333,-1.617847,34.908457,3.983785,30.202126,4.63582E+18,0.660619,-0.239403,0.711107,-0.024401,-18.961886,-14.027473,-0.166597,4.625325,-2.795657,2.210828,42.043732,0.771938,-17.599386,4.63583E+18,0.655939,0.498898,0.282608,-0.490895,0
-11.62191,2.634555,-2.352862,4.107581,0.238462,0.2251,42.148442,17.295278,-4.769881,4.63583E+18,0.71623,0.295129,0.47213,-0.420721,-10.009036,-1.490002,-5.610709,0.935644,0.481116,-1.717541,34.648199,4.640593,30.331809,4.63582E+18,0.659818,-0.241793,0.710718,-0.03248,-19.526546,-16.28247,-2.533911,5.55321,-3.233438,2.542276,41.394513,-0.853833,-18.722395,4.63583E+18,0.653091,0.510238,0.257134,-0.497003,0
-12.381959,3.947128,-1.409771,4.034633,-0.682003,0.138542,42.222216,16.876504,-5.590921,4.63583E+18,0.712695,0.306216,0.462826,-0.429057,-10.557726,-0.916897,-5.626374,0.721014,0.559267,-1.765971,34.546616,5.302141,30.458477,4.63582E+18,0.658514,-0.244893,0.710476,-0.040131,-20.425282,-16.22058,-5.32245,6.520716,-3.65427,3.00664,40.93142,-2.684117,-20.040752,4.63583E+18,0.648962,0.523338,0.227276,-0.5033,0
-11.691214,5.404768,1.072391,3.857557,-1.250164,-0.051303,42.132027,16.916787,-6.724859,4.63583E+18,0.709925,0.315314,0.452253,-0.438235,-10.297729,-2.218371,-6.118283,0.625357,0.621147,-1.781238,34.440694,6.002811,30.537983,4.63582E+18,0.656878,-0.248277,0.710355,-0.047599,-22.40747,-10.987372,-7.505278,7.321892,-3.807013,3.465676,40.347753,-4.95012,-21.14323,4.63583E+18,0.64338,0.538061,0.194043,-0.508822,0
-9.708963,5.667329,4.475424,3.572849,-0.970993,-0.20279,42.034379,16.907789,-7.68547,4.63583E+18,0.706534,0.323716,0.443102,-0.446855,-9.850752,-3.901018,-6.847301,0.746646,0.646921,-1.748679,34.125993,6.6995,30.717436,4.63582E+18,0.655248,-0.251213,0.710266,-0.055358,-27.956721,-0.793585,-6.864508,7.546064,-3.817494,3.942096,39.516957,-7.3914,-21.918342,4.63583E+18,0.637383,0.552968,0.158959,-0.512544,0
-8.195373,6.131675,6.5059,3.267008,-0.427998,-0.372774,41.714928,16.592093,-8.345936,4.63583E+18,0.70208,0.331843,0.43625,-0.454587,-9.099535,-4.345179,-7.639801,1.051176,0.649896,-1.668309,33.862024,7.482089,30.935858,4.63582E+18,0.653896,-0.253063,0.710147,-0.063798,-31.797723,1.846529,-9.961406,7.574765,-3.80401,4.491363,38.403864,-10.000613,-22.52641,4.63583E+18,0.631496,0.567486,0.122339,-0.51401,0
-8.316871,7.074564,7.035507,2.800148,-0.342486,-0.574296,41.373692,16.484283,-9.19127,4.63583E+18,0.697598,0.33836,0.430723,-0.461896,-8.706175,-4.290082,-7.901505,1.347899,0.666493,-1.585166,33.758096,8.268316,31.056619,4.63582E+18,0.652775,-0.253838,0.710026,-0.072899,-30.84513,1.160477,-16.76588,7.842197,-3.660282,5.077824,37.203623,-12.904661,-23.033066,4.63583E+18,0.625106,0.582367,0.083935,-0.51288,0
-8.675586,5.214505,5.73703,2.417804,-0.616425,-0.755797,41.358681,16.631721,-9.695647,4.63583E+18,0.693704,0.342864,0.425335,-0.469372,-9.929795,-4.172656,-7.136304,1.522664,0.645753,-1.528556,33.529185,8.92515,31.03586,4.63582E+18,0.651857,-0.253962,0.709794,-0.082331,-30.25982,0.680647,-19.582854,8.380591,-3.338355,5.640135,36.007451,-15.966035,-23.374844,4.63583E+18,0.617343,0.598455,0.0437,-0.508753,0
-8.166465,1.322287,6.026579,2.335837,-0.669988,-0.813766,41.498739,16.872116,-9.997203,4.63583E+18,0.689773,0.346927,0.419946,-0.476969,-11.637711,-3.763631,-5.685657,1.620308,0.574849,-1.496105,33.018186,9.580362,31.019987,4.63582E+18,0.651202,-0.253731,0.709306,-0.09188,-32.562498,-3.338185,-19.943034,8.507619,-2.9349,5.960815,34.509185,-19.322748,-23.252885,4.63583E+18,0.608641,0.614593,0.003346,-0.501817,0
-6.940489,-2.784766,7.034482,2.357339,-0.323708,-0.737449,41.505173,16.871171,-10.38346,4.63583E+18,0.685358,0.351763,0.415408,-0.483718,-11.993699,-3.09125,-4.167954,1.679178,0.525073,-1.469978,32.46584,10.362934,31.143362,4.63582E+18,0.650708,-0.253297,0.708611,-0.101439,-33.989846,-10.812298,-18.47261,8.158554,-2.655933,6.128464,32.93212,-22.483046,-22.696007,4.63583E+18,0.599981,0.62922,-0.03601,-0.492756,0
-6.453196,-5.930504,5.691599,2.496319,-0.096259,-0.660298,41.1084,16.788943,-11.019202,4.63583E+18,0.680409,0.357557,0.411069,-0.490121,-11.74914,-2.752931,-3.103499,1.667597,0.483219,-1.464052,32.277022,11.274442,31.163882,4.63582E+18,0.650265,-0.252871,0.707752,-0.110899,-31.093671,-7.988419,-17.279043,7.615409,-2.141107,6.179032,31.331575,-25.388973,-21.697495,4.63583E+18,0.591825,0.642385,-0.073034,-0.481405,0
-6.690036,-7.327414,4.402287,2.693617,-0.164124,-0.470049,40.775037,16.77351,-11.409463,4.63583E+18,0.675574,0.36406,0.405791,-0.496381,-11.361646,-3.266385,-2.552109,1.619955,0.436826,-1.463741,32.169212,12.094071,31.048073,4.63582E+18,0.649844,-0.252544,0.706739,-0.120187,-30.569175,-8.998885,-18.110666,6.551337,-1.630819,5.467214,29.699663,-28.144739,-20.60876,4.63583E+18,0.584341,0.653188,-0.104655,-0.470041,0
-7.483645,-7.59551,4.81257,2.954597,-0.10644,-0.144935,40.760521,16.691294,-11.881195,4.63583E+18,0.67082,0.371913,0.399583,-0.502011,-10.422184,-4.111033,-2.099171,1.611484,0.389197,-1.442125,31.862753,12.797084,30.982067,4.63582E+18,0.649506,-0.252184,0.705563,-0.129331,-30.726922,-16.782762,-18.331838,5.134973,-1.553522,4.733973,28.147753,-30.418591,-19.890636,4.63583E+18,0.57867,0.660299,-0.13121,-0.460359,0
-9.071645,-6.181679,4.869136,3.183715,0.014823,0.033042,40.830529,16.442487,-12.625653,4.63583E+18,0.665689,0.380954,0.392832,-0.507361,-9.425094,-4.180081,-1.64881,1.594127,0.330804,-1.426497,31.634042,13.62939,31.05788,4.63582E+18,0.649273,-0.251838,0.704197,-0.138309,-27.957399,-20.368332,-16.477279,4.202725,-1.627428,4.20398,26.902553,-32.107863,-19.345915,4.63583E+18,0.574061,0.664803,-0.154598,-0.452317,0
-10.671892,-3.385526,3.902285,3.204993,0.045819,-0.039047,40.903774,16.034443,-12.997458,4.63583E+18,0.660281,0.389868,0.386224,-0.512702,-8.439029,-4.294423,-1.371248,1.530685,0.273868,-1.417208,31.486591,14.457247,31.034596,4.63582E+18,0.64909,-0.251653,0.702668,-0.147006,-23.936835,-21.084984,-15.132983,3.582647,-1.699521,3.628919,25.829835,-33.403468,-18.750102,4.63583E+18,0.569708,0.667674,-0.175311,-0.445994,0
-13.577572,-0.669324,2.317508,3.038092,-0.551222,-0.292835,40.75534,15.619439,-13.363099,4.63583E+18,0.655447,0.396567,0.378673,-0.519355,-7.20922,-5.026822,-1.112347,1.475761,0.217612,-1.400666,31.184487,15.158009,30.726869,4.63582E+18,0.648974,-0.251587,0.700985,-0.155426,-21.943975,-18.6277,-13.320689,2.968426,-1.79338,2.987732,24.830239,-34.549566,-18.060371,4.63583E+18,0.56556,0.669093,-0.193248,-0.441714,0
-15.45894,1.434029,1.954491,2.847603,-0.893357,-0.487154,40.50331,15.519394,-14.102658,4.63583E+18,0.650939,0.401631,0.370859,-0.52672,-6.173354,-5.477405,-0.789667,1.41632,0.159527,-1.382453,30.800772,15.854746,30.474352,4.63582E+18,0.648927,-0.251651,0.699153,-0.163553,-22.122487,-15.822008,-12.350273,2.23357,-1.87096,2.201356,23.836999,-35.404143,-17.675677,4.63583E+18,0.561785,0.669074,-0.207768,-0.439967,0
-13.031955,2.447495,1.75433,2.401246,-0.609874,-0.528284,40.410299,15.422286,-14.766107,4.63583E+18,0.646484,0.406039,0.364751,-0.533056,-5.785673,-5.936072,-0.515477,1.340183,0.091872,-1.362158,30.578273,16.549615,30.508526,4.63582E+18,0.648966,-0.251895,0.697166,-0.171321,-21.798321,-15.373452,-13.187749,1.407452,-1.92324,1.244655,23.096013,-35.910128,-17.586305,4.63583E+18,0.558415,0.667734,-0.218192,-0.441245,0
-10.465705,2.618629,-1.368996,2.422751,-0.408214,-0.456309,40.394841,15.184643,-15.052011,4.63583E+18,0.64186,0.410952,0.359042,-0.538724,-5.567799,-6.086456,-0.396898,1.267968,0.00632,-1.345153,30.436799,17.171167,30.485313,4.63582E+18,0.649148,-0.252334,0.694974,-0.178733,-20.045087,-16.006523,-14.000803,0.643256,-1.922946,0.248398,22.691455,-36.26266,-17.628973,4.63583E+18,0.555285,0.665456,-0.224417,-0.445493,0
-9.826936,3.66281,-1.968668,2.258318,-0.163701,-0.21915,40.090997,14.92883,-15.320574,4.63583E+18,0.637609,0.416293,0.353905,-0.543053,-4.669771,-6.134074,-0.722128,1.192161,-0.075731,-1.337841,30.216135,17.750829,30.183891,4.63582E+18,0.649454,-0.253007,0.692584,-0.185807,-17.122319,-15.22134,-13.979955,-0.016599,-1.823086,-0.736893,22.528828,-36.365856,-17.91182,4.63583E+18,0.552212,0.66271,-0.226438,-0.45233,0
-10.024187,6.35909,-1.488196,1.822906,0.355573,-0.358335,40.076904,14.917447,-15.519144,4.63583E+18,0.632983,0.421413,0.351346,-0.546168,-3.134039,-6.541631,-1.620234,1.147518,-0.13133,-1.34006,29.997332,18.412267,29.88715,4.63582E+18,0.649833,-0.25384,0.690038,-0.192691,-14.701287,-12.427749,-12.198275,-0.588539,-1.689626,-1.700557,22.42278,-36.038845,-18.424424,4.63583E+18,0.54898,0.659751,-0.224392,-0.461516,0
-8.354873,6.610435,-2.036423,1.654026,0.803761,-0.429604,40.380169,14.917447,-15.539481,4.63583E+18,0.627723,0.427021,0.350399,-0.548487,-2.137876,-6.588878,-2.6859,1.133141,-0.164877,-1.347044,29.851801,19.11301,29.823622,4.63582E+18,0.650259,-0.254778,0.687357,-0.199476,-14.029391,-9.58761,-9.371964,-1.038966,-1.53664,-2.628294,22.623139,-35.235786,-19.149065,4.63583E+18,0.545267,0.656827,-0.218546,-0.472757,0
-5.827493,6.196562,-4.127315,1.100112,0.474541,-0.327492,40.394299,14.917447,-15.714962,4.63583E+18,0.624202,0.430512,0.349711,-0.550212,-1.990428,-6.626399,-3.430855,1.120872,-0.207927,-1.35997,29.710645,19.690806,29.752905,4.63582E+18,0.650749,-0.255812,0.684519,-0.206205,-13.972185,-8.902866,-6.850951,-1.3806,-1.39704,-3.545054,23.241541,-34.33402,-19.883771,4.63583E+18,0.540683,0.654082,-0.209148,-0.485898,0
-5.689737,5.045553,-3.617242,1.123545,0.836873,-0.21644,40.242666,14.68417,-15.711472,4.63583E+18,0.620349,0.43504,0.349704,-0.551012,-1.870248,-6.919082,-3.924505,1.114051,-0.249233,-1.372679,29.495913,20.228897,29.401394,4.63582E+18,0.651291,-0.256894,0.681535,-0.212922,-14.23803,-9.396068,-4.150101,-1.379311,-1.238474,-4.352477,24.212401,-33.505482,-20.465995,4.63583E+18,0.534416,0.65214,-0.197122,-0.500256,0
-8.126114,3.674965,-3.215776,1.008474,0.761656,0.107914,40.46885,14.521686,-15.524328,4.63583E+18,0.617492,0.439585,0.349129,-0.550979,-2.127766,-6.586456,-4.344545,1.100962,-0.269336,-1.402035,29.320941,20.852681,29.007012,4.63582E+18,0.651812,-0.258102,0.678438,-0.219648,-14.85421,-9.888353,-2.082216,-0.96085,-1.059909,-5.028365,25.387184,-32.423252,-20.932227,4.63583E+18,0.525517,0.651772,-0.183647,-0.515071,0
-9.02138,1.36254,-5.20428,0.886658,-0.175387,0.121817,40.631362,14.432965,-15.51561,4.63583E+18,0.61629,0.441644,0.346429,-0.552381,-2.89674,-5.890024,-4.585264,1.064872,-0.290365,-1.454449,29.179491,21.473947,28.801983,4.63582E+18,0.652268,-0.259565,0.675223,-0.226378,-15.084523,-9.377021,-0.921844,-0.28009,-0.864407,-5.656066,26.607824,-31.114258,-21.245958,4.63583E+18,0.513296,0.653451,-0.169402,-0.529936,0
-8.941283,0.989159,-7.245407,0.884283,-0.850562,0.196254,40.556818,14.347523,-15.97039,4.63583E+18,0.616223,0.442241,0.341855,-0.554822,-3.008831,-5.820941,-4.557485,1.033233,-0.30278,-1.499585,28.877537,22.010091,28.541985,4.63582E+18,0.652641,-0.26124,0.671916,-0.233115,-15.549223,-7.666173,-0.844272,0.360664,-0.675733,-6.27584,27.987728,-29.851462,-21.502303,4.63583E+18,0.497769,0.656936,-0.154372,-0.544822,0
-8.63267,2.165869,-8.327714,0.647737,-1.785083,0.089561,40.168228,14.01723,-16.597997,4.63583E+18,0.617648,0.439898,0.335608,-0.558899,-2.59,-6.456975,-4.323753,1.045671,-0.284252,-1.511844,28.543844,22.504279,28.195481,4.63582E+18,0.652935,-0.262916,0.668582,-0.239895,-16.740277,-4.890609,-1.166244,0.714083,-0.51873,-6.880416,29.557856,-28.530055,-21.632972,4.63583E+18,0.479621,0.661391,-0.138044,-0.559883,0
-8.151822,2.781673,-7.161107,0.329386,-1.7684,-0.092197,39.823526,13.83858,-17.163079,4.63583E+18,0.619174,0.436493,0.330458,-0.562934,-2.047742,-7.253394,-3.937257,1.083004,-0.244025,-1.491286,28.406326,23.123923,27.996321,4.63582E+18,0.653138,-0.264381,0.665302,-0.246753,-18.503519,-1.97466,-1.353359,0.703917,-0.391076,-7.460174,30.795802,-26.852979,-21.438081,4.63583E+18,0.459786,0.665852,-0.119713,-0.575245,0
-7.698512,3.250987,-4.771634,0.152809,-0.519349,-0.301488,39.656693,13.982638,-17.561316,4.63583E+18,0.618791,0.435259,0.329316,-0.564976,-1.471941,-8.250117,-3.454582,1.156568,-0.177319,-1.427467,28.219271,23.824831,27.786363,4.63582E+18,0.653251,-0.265357,0.662171,-0.253728,-20.336157,-0.407838,-1.215705,0.468656,-0.280249,-7.980274,31.740475,-24.498018,-21.070444,4.63582E+18,0.438929,0.669686,-0.099037,-0.590807,0
-7.876768,4.834744,-4.698224,-0.10787,0.934905,-0.699725,39.871289,14.30465,-17.601991,4.63583E+18,0.615802,0.436303,0.333148,-0.565191,-2.126446,-9.2435,-3.097965,1.294492,-0.105007,-1.309422,27.839957,24.402682,27.481197,4.63582E+18,0.653401,-0.265542,0.659183,-0.260829,-21.81228,-0.826548,-0.632607,0.33814,-0.14851,-8.402922,32.99187,-21.395159,-20.956282,4.63582E+18,0.416935,0.67299,-0.076503,-0.606132,0
-9.215675,5.583887,-5.889576,-0.567675,1.765235,-1.026016,40.126531,14.634211,-17.066532,4.63583E+18,0.611832,0.437568,0.340874,-0.563916,-4.28031,-9.245103,-2.890752,1.37799,-0.044647,-1.143237,27.499976,24.896902,27.326123,4.63582E+18,0.653632,-0.264997,0.656402,-0.267727,-22.74068,-1.461276,-0.293943,0.38168,0.021731,-8.744785,34.416191,-18.665959,-21.152783,4.63582E+18,0.393474,0.676042,-0.052725,-0.620779,0
-10.794116,6.5253,-6.224973,-0.958048,2.399036,-1.270037,40.219598,15.138827,-15.979992,4.63583E+18,0.607032,0.438932,0.351539,-0.56149,-7.16161,-9.242558,-2.726703,1.417231,-0.018237,-0.926866,27.281444,25.435229,27.163823,4.63582E+18,0.654039,-0.263713,0.653854,-0.27416,-23.644459,-1.423262,0.17468,0.551628,0.225633,-8.950144,35.743884,-16.371518,-21.232505,4.63582E+18,0.368509,0.679015,-0.028402,-0.634297,0
-12.019322,6.894174,-6.55291,-1.178318,2.882018,-1.288874,40.165074,15.569834,-14.845912,4.63583E+18,0.601778,0.440767,0.363914,-0.557811,-10.936537,-10.246538,-2.698733,1.587852,-0.095775,-0.655361,27.14807,26.014895,26.714834,4.63582E+18,0.655107,-0.26127,0.651177,-0.28025,-23.699629,-2.23073,0.114925,1.003319,0.497898,-9.000276,36.916766,-13.772825,-21.027637,4.63582E+18,0.341644,0.682441,-0.004671,-0.646167,0
-12.224753,6.302867,-8.725406,-1.281675,2.500092,-1.199442,40.162357,16.148721,-13.827268,4.63583E+18,0.597392,0.441513,0.375342,-0.554352,-14.680994,-10.000569,-2.152986,1.743295,-0.233922,-0.421999,27.181717,26.51358,26.178932,4.63582E+18,0.656956,-0.257922,0.648161,-0.285961,-22.923033,-3.206337,-0.753801,1.633212,0.787428,-8.978563,37.813614,-11.010348,-20.793312,4.63582E+18,0.312556,0.686551,0.017722,-0.656234,0
-12.663331,5.819768,-10.517017,-1.238088,1.517984,-1.037085,40.477246,16.96786,-13.09407,4.63583E+18,0.594602,0.440411,0.383751,-0.552468,-18.593593,-8.168269,-0.755097,1.705417,-0.333027,-0.315599,27.290394,27.015868,25.740655,4.63582E+18,0.659136,-0.25453,0.644983,-0.291122,-22.034061,-2.453515,-1.978052,2.206829,1.051361,-8.891955,38.347436,-8.36883,-20.510418,4.63582E+18,0.281585,0.691121,0.038616,-0.664507,0
-14.946006,4.270736,-10.444415,-1.707301,1.565838,-0.600079,40.73687,17.483073,-12.268875,4.63583E+18,0.593701,0.438812,0.392644,-0.548447,-23.650685,-6.032127,1.624244,1.458388,-0.394273,-0.333152,27.232646,27.595833,25.443817,4.63582E+18,0.661163,-0.251925,0.641889,-0.295594,-20.450909,-1.135546,-3.536208,2.594339,1.276267,-8.804319,38.871364,-5.722235,-20.2014,4.63582E+18,0.249285,0.69575,0.058392,-0.671103,0
-16.649483,1.715246,-10.565617,-2.126292,2.011018,-0.333052,40.829949,17.598715,-11.322147,4.63583E+18,0.59337,0.43758,0.403056,-0.5422,-28.744523,-4.620747,4.218876,1.079479,-0.436163,-0.422029,27.061763,27.962962,25.142564,4.63582E+18,0.662772,-0.250644,0.639032,-0.299247,-19.288173,0.503089,-5.212317,2.755021,1.426926,-8.784571,39.612549,-3.099279,-19.695263,4.63582E+18,0.216162,0.699923,0.077729,-0.67627,0
-17.330589,0.059727,-11.224708,-2.005037,0.69481,-0.33784,40.763791,17.917962,-10.743169,4.63583E+18,0.594952,0.433617,0.409904,-0.538504,-33.217915,-3.26992,5.592652,0.724631,-0.433805,-0.535065,26.978361,28.046655,24.801927,4.63582E+18,0.663849,-0.25064,0.636492,-0.302261,-18.612659,2.573133,-6.482733,2.727573,1.508728,-8.829813,40.112214,-0.457332,-18.896155,4.63582E+18,0.182636,0.703219,0.09723,-0.680202,0
-17.428895,-1.563126,-9.902544,-2.016871,-1.587919,-0.334521,40.608925,18.329151,-10.741422,4.63583E+18,0.600415,0.424459,0.411084,-0.538838,-36.867043,-1.365867,6.352093,0.338041,-0.355308,-0.722318,26.978361,28.177601,24.558964,4.63582E+18,0.66407,-0.252104,0.634449,-0.304842,-18.153015,5.587248,-7.175631,2.377831,1.553431,-8.975628,40.357372,1.827069,-18.264597,4.63582E+18,0.149422,0.705233,0.118033,-0.682926,0
-16.569259,-3.64148,-6.795652,-2.319751,-2.721465,-0.172097,40.286978,18.417692,-11.010717,4.63583E+18,0.608617,0.412208,0.409751,-0.540161,-39.329595,0.544488,7.150034,-0.057494,-0.232452,-0.901298,26.847137,28.421736,24.413646,4.63582E+18,0.663314,-0.254976,0.633052,-0.306997,-18.172669,9.122961,-7.504102,1.624092,1.548719,-9.212082,40.586165,4.315544,-17.944499,4.63582E+18,0.117519,0.705548,0.141487,-0.684377,0
-14.872965,-5.368002,-4.017654,-2.201259,-3.158455,-0.065522,39.945716,18.64253,-11.583012,4.63583E+18,0.617458,0.399358,0.406763,-0.542035,-41.042073,3.386516,7.526301,-0.35279,-0.149005,-0.990938,26.640762,28.540909,24.315981,4.63582E+18,0.661897,-0.25879,0.632157,-0.308704,-18.35507,11.903537,-7.78173,0.578474,1.509104,-9.500537,40.503789,7.2948,-17.586985,4.63582E+18,0.087703,0.703942,0.168524,-0.684378,0
-12.719967,-5.526119,0.291627,-1.978759,-2.621676,-0.035379,39.685565,19.037677,-12.343794,4.63583E+18,0.624897,0.388297,0.404476,-0.543257,-41.728833,5.646623,7.056775,-0.147294,-0.175225,-0.966448,26.519568,28.709624,24.312059,4.63582E+18,0.660791,-0.262006,0.630938,-0.310846,-19.08691,13.847926,-7.756565,-0.639445,1.458443,-9.787104,39.794636,10.461756,-17.021234,4.63582E+18,0.060531,0.70037,0.199573,-0.682634,0
-9.777534,-4.830383,3.881214,-1.806383,-0.603134,-0.052544,39.370912,19.20733,-12.471583,4.63583E+18,0.628596,0.382135,0.407074,-0.541416,-40.639773,9.119754,3.324294,0.569599,-0.252269,-0.935134,26.427874,29.082941,24.347521,4.63582E+18,0.660699,-0.263264,0.6286,-0.314693,-21.339674,15.865854,-6.840641,-1.833039,1.417095,-9.992223,38.52373,14.066185,-16.252562,4.63582E+18,0.036185,0.694965,0.234247,-0.678854,0
-8.489557,-5.287209,2.839721,-1.532487,0.84941,0.056775,39.356667,19.296069,-12.114522,4.63583E+18,0.629605,0.380132,0.412661,-0.537408,-38.58662,12.970049,-3.472545,1.039091,-0.082446,-1.085013,26.167767,29.491744,24.235347,4.63582E+18,0.66046,-0.263393,0.625929,-0.320358,-25.076064,18.684189,-5.332071,-2.897077,1.385904,-10.037872,37.480498,17.820999,-15.506139,4.63582E+18,0.014752,0.687954,0.271614,-0.67285,0
-10.253981,-6.394425,3.38951,-1.097659,0.35834,0.404701,39.741387,19.626332,-11.666186,4.63583E+18,0.631461,0.378805,0.415373,-0.534068,-39.174544,14.421319,-10.431116,0.836834,0.133028,-1.770015,25.70901,29.900811,24.027833,4.63582E+18,0.658487,-0.265568,0.623336,-0.327599,-28.866435,22.63789,-3.800642,-3.851586,1.335824,-9.868641,36.622182,21.397244,-14.597233,4.63582E+18,-0.003444,0.679586,0.310634,-0.664573,0
-12.356271,-7.086625,7.95251,-1.072661,-1.207941,0.944088,39.922706,19.478519,-11.645863,4.63583E+18,0.637241,0.374915,0.413097,-0.531708,-38.962089,13.700801,-14.339528,0.311366,-0.055052,-2.959284,25.16481,30.397043,23.870292,4.63582E+18,0.654726,-0.272509,0.619556,-0.336486,-31.437015,30.092899,-2.353366,-4.818235,1.232074,-9.570877,35.131669,24.825022,-13.110903,4.63582E+18,-0.017938,0.669965,0.350862,-0.654004,0
-10.609811,-7.280108,13.796882,-1.228473,-1.066519,1.412489,39.930416,19.004544,-11.797398,4.63583E+18,0.644015,0.371707,0.41078,-0.527578,-34.070978,6.332767,-15.048339,-0.965156,0.044831,-4.527044,24.110365,31.04575,23.991547,4.63582E+18,0.646888,-0.286772,0.615892,-0.346372,-32.436607,41.1019,0.130592,-5.769333,1.223897,-9.239047,33.197986,28.052463,-11.468222,4.63582E+18,-0.028825,0.659496,0.39203,-0.640739,0
-7.631949,-6.84487,16.161114,-1.277665,-0.012988,1.7272,40.093607,18.51625,-11.69965,4.63583E+18,0.649698,0.371198,0.410876,-0.520851,-37.470908,-2.425359,-19.42122,-2.855477,0.679747,-6.368864,22.365361,31.678501,24.676851,4.63582E+18,0.632091,-0.309737,0.614101,-0.356938,-31.504812,48.472506,2.888136,-6.098722,1.29442,-8.53198,31.195594,30.993152,-9.781152,4.63582E+18,-0.036977,0.649078,0.431333,-0.625526,0
-5.408817,-4.923915,13.719126,-1.285761,0.229088,1.885914,40.416047,18.109549,-11.403278,4.63583E+18,0.655269,0.371434,0.411365,-0.513262,-48.262546,-9.517991,-23.099896,-3.065252,0.741104,-7.652353,20.263111,32.184058,25.689944,4.63582E+18,0.614308,-0.336132,0.610496,-0.370047,-29.90123,47.393165,5.17223,-5.262828,1.271129,-7.246166,29.218872,33.192325,-7.859037,4.63582E+18,-0.043935,0.639685,0.464258,-0.611013,0
-2.326493,-2.20006,10.242354,-1.148373,-0.278856,1.975364,40.664024,17.625164,-11.191369,4.63583E+18,0.661635,0.371078,0.410001,-0.506398,-51.013867,-5.441263,-18.852907,-1.30823,0.23639,-7.965544,17.991545,32.860195,26.303508,4.63582E+18,0.599069,-0.359221,0.601742,-0.387277,-30.676819,44.527591,8.967427,-3.606575,0.943078,-5.369461,27.471308,34.719729,-6.17152,4.63582E+18,-0.049848,0.632088,0.487522,-0.600251,0
2.31375,-1.504158,8.754632,-1.318279,-0.337008,2.181203,40.919825,16.9737,-11.158672,4.63583E+18,0.668728,0.370448,0.408475,-0.498717,-46.550098,6.067188,-10.092675,-0.018302,0.740715,-8.114952,15.678524,33.826474,26.341907,4.63582E+18,0.583568,-0.37825,0.591249,-0.408412,-32.092294,51.199921,13.382244,-2.602827,0.300532,-3.616454,26.183438,35.982626,-5.152644,4.63582E+18,-0.052688,0.62589,0.503526,-0.593252,0
6.873249,-1.791708,8.412015,-1.508124,0.192597,2.5568,41.246037,16.396217,-11.041044,4.63583E+18,0.675898,0.370988,0.40818,-0.488794,-52.832261,2.25079,-8.682083,0.707563,0.937723,-8.277467,13.071838,34.957397,26.239122,4.63582E+18,0.567756,-0.395143,0.579039,-0.431541,-28.460499,59.565721,14.579061,-2.525178,-0.352289,-2.056776,25.353542,36.893424,-4.321189,4.63582E+18,-0.05049,0.621165,0.515278,-0.588298,0
12.126297,-4.521981,5.496951,-1.241454,-0.212407,2.525291,41.645592,15.752487,-10.825728,4.63583E+18,0.683187,0.371347,0.406195,-0.479962,-63.636819,5.792078,-12.431693,2.020207,0.211006,-7.645793,10.397158,36.122235,26.028273,4.63582E+18,0.556339,-0.408271,0.56312,-0.454641,-21.784385,58.200174,11.002214,-2.321334,-0.75977,-0.479806,24.975945,37.235405,-3.592308,4.63582E+18,-0.044072,0.618692,0.522457,-0.585078,0
15.244207,-6.293988,4.753133,-0.691055,-0.045255,2.266033,42.14161,14.942434,-10.699237,4.63583E+18,0.68875,0.373122,0.403943,-0.472476,-56.824439,20.234559,-12.279362,3.446344,-0.173281,-7.239914,8.05,37.295179,25.437107,4.63582E+18,0.5484,-0.417428,0.543677,-0.478984,-18.270553,53.601713,4.576486,-1.486282,-0.81083,1.176088,25.070576,37.180927,-3.322835,4.63582E+18,-0.035654,0.619491,0.523293,-0.584058,0
12.771238,-5.300263,4.899048,-0.220925,1.298295,1.907139,42.478978,14.206108,-10.483946,4.63583E+18,0.69054,0.378261,0.405135,-0.464692,-45.552616,25.367608,-11.257897,4.025418,-0.36626,-7.336199,5.778874,38.472094,24.419632,4.63582E+18,0.541073,-0.42539,0.521834,-0.503957,-17.86054,48.826704,3.724766,-0.321137,-0.808411,2.70489,25.540812,36.875339,-3.237383,4.63583E+18,-0.026525,0.623392,0.517292,-0.585737,0
6.436998,-4.771501,2.285948,-0.001971,2.345652,1.225944,42.668733,13.706763,-9.809857,4.63583E+18,0.688817,0.384876,0.409941,-0.457548,-40.35688,25.591812,-8.905787,3.550148,-0.143224,-7.146347,3.477908,39.438905,23.317175,4.63582E+18,0.532189,-0.433059,0.501217,-0.527273,-17.258327,41.837765,2.353149,1.333755,-0.483065,4.536421,26.591752,36.028072,-3.612433,4.63583E+18,-0.017919,0.631687,0.502323,-0.590188,0
-2.982193,-4.317603,-0.146133,0.570207,2.482362,0.428591,42.921747,13.393231,-8.589757,4.63583E+18,0.684356,0.391972,0.41529,-0.453375,-34.365677,20.81974,-5.945172,3.049815,0.336061,-6.784971,1.189163,40.032433,22.266251,4.63582E+18,0.521643,-0.439592,0.482891,-0.549056,-21.632292,36.325941,6.957735,1.64008,0.012783,5.449798,28.305,34.597691,-4.399299,4.63583E+18,-0.008903,0.642792,0.483923,-0.593765,0
-11.5726,-5.007615,1.444446,0.52982,2.291959,-1.09721,43.096527,13.460859,-7.985457,4.63583E+18,0.677326,0.395908,0.422615,-0.453743,-29.329271,15.280989,-3.291963,3.055755,0.523844,-6.185082,-1.006139,40.379374,21.173888,4.63582E+18,0.511632,-0.44409,0.465624,-0.569395,-32.000509,-20.462798,-1.732212,1.764073,2.521087,4.684917,29.702391,33.626492,-3.913659,4.63583E+18,-0.007166,0.658202,0.466905,-0.590524,0
-39.120936,-11.274759,20.073771,1.650011,-1.944955,-2.471388,42.789774,14.082251,-8.436904,4.63583E+18,0.673216,0.392489,0.418075,-0.466847,-24.852164,13.737671,0.313822,3.093405,0.471576,-5.348416,-2.999475,40.734473,20.08119,4.63582E+18,0.503392,-0.446685,0.449351,-0.587497,-43.996098,-165.418199,-70.624074,-9.09816,0.64101,0.298328,30.343068,33.411663,-1.806713,4.63583E+18,0.017226,0.660124,0.488227,-0.570591,0
-54.747383,-16.092557,28.24094,1.385669,-3.195853,-0.626506,42.518457,14.647627,-9.403326,4.63583E+18,0.675168,0.389014,0.407439,-0.476246,-17.766448,12.917708,3.330307,2.96061,0.258139,-4.133482,-4.717099,41.262061,19.138553,4.63582E+18,0.497997,-0.447565,0.434962,-0.602074,-67.848897,-168.817047,-32.091848,-5.434701,-3.517627,1.660389,30.980292,32.834084,-0.816852,4.63583E+18,0.043223,0.654463,0.496253,-0.568809,0
-19.682244,1.257991,1.213981,-0.056601,-4.04626,0.028536,42.261546,14.66165,-10.625105,4.63583E+18,0.682042,0.380801,0.396114,-0.4826,-9.443637,12.082648,6.236676,2.41641,-0.144689,-2.554185,-5.980144,41.696932,18.301455,4.63582E+18,0.496111,-0.447578,0.423903,-0.611437,-44.771187,-64.111624,41.421871,6.82094,-1.198503,6.525483,31.950864,31.523139,-2.096706,4.63583E+18,0.042488,0.665796,0.461813,-0.584498,0
6.284459,20.703539,-9.801491,-0.94246,-6.871391,-0.328736,41.597464,14.626143,-12.766695,4.63583E+18,0.693896,0.363583,0.378894,-0.492702,-1.234561,13.198329,8.773691,1.184114,-0.456097,-0.864164,-6.619898,41.766691,17.622129,4.63582E+18,0.496718,-0.447892,0.418436,-0.614471,15.074085,52.016835,28.794483,4.901841,-0.109915,3.077956,32.882798,30.089333,-3.83536,4.63583E+18,0.03654,0.672095,0.441304,-0.593468,0
16.846339,17.529793,2.161841,-2.24644,-4.32343,-1.06058,40.844041,15.067088,-14.602134,4.63583E+18,0.701744,0.346457,0.372566,-0.498716,7.823047,16.475952,8.419693,-0.644545,-0.657583,0.609766,-6.438311,41.643823,17.632823,4.63582E+18,0.498025,-0.449924,0.419971,-0.610871,39.120612,70.48464,-18.941524,3.243421,0.420185,3.696869,33.816479,28.865073,-4.672236,4.63583E+18,0.035774,0.680254,0.423023,-0.597517,0
11.858371,4.207449,19.40357,-0.469614,2.254767,-1.640114,40.657929,15.728979,-14.079821,4.63583E+18,0.695398,0.347207,0.382498,-0.499565,20.972038,17.128736,7.359208,-2.407813,-0.850035,1.788302,-5.785386,41.485137,18.320651,4.63582E+18,0.499317,-0.453998,0.427764,-0.60132,-3.793749,64.313581,-28.760871,3.167094,-0.219062,3.775493,34.93978,27.399679,-5.349123,4.63583E+18,0.036531,0.686663,0.404437,-0.602984,0
-10.091159,5.021095,15.52084,0.482938,1.052157,-1.471647,40.650654,16.155782,-13.52657,4.63583E+18,0.689881,0.348437,0.386688,-0.503119,33.589487,15.658407,8.223413,-3.432264,-1.012605,3.39907,-4.801715,41.245388,19.299299,4.63582E+18,0.50285,-0.457601,0.440706,-0.586107,-51.900783,72.84336,-17.231755,4.536333,-1.162245,7.338516,36.361989,25.152412,-6.628595,4.63583E+18,0.043879,0.69632,0.371731,-0.612396,0
-22.232168,12.99839,7.364681,-0.398807,-2.872554,-1.838327,40.254674,16.710543,-14.246757,4.63583E+18,0.69112,0.338258,0.381932,-0.51192,34.2223,11.993464,6.8679,-3.314674,-1.774809,5.755924,-2.878353,40.977893,20.435835,4.63582E+18,0.51345,-0.458198,0.455985,-0.564359,-73.826709,63.718125,5.472705,3.158908,0.610872,5.825717,37.620145,23.190648,-7.631879,4.63583E+18,0.048572,0.707185,0.346863,-0.614179,0
-17.898641,19.784795,12.502994,-2.228664,-2.339674,-1.502829,39.676578,17.505007,-15.039673,4.63583E+18,0.694648,0.324417,0.38205,-0.515999,27.175861,5.375799,2.025115,-1.695771,-3.240058,8.334405,0.054105,40.801803,21.339124,4.63582E+18,0.535408,-0.453352,0.468735,-0.536747,-74.791097,2.151219,17.993528,-1.393495,-0.779709,3.969133,38.479237,22.138201,-7.748274,4.63583E+18,0.063911,0.710508,0.338645,-0.613526,0
-4.738239,14.527109,9.99745,-3.537394,-3.325013,0.21786,39.335232,18.170865,-15.285752,4.63583E+18,0.705006,0.307301,0.379689,-0.514168,22.885035,7.477171,-2.962469,0.212733,-4.388413,10.815266,4.109964,40.430599,21.437977,4.63582E+18,0.567743,-0.441102,0.478458,-0.504158,-13.641444,-8.156803,20.481236,-2.119819,-0.697745,4.112435,39.119625,20.99652,-7.548437,4.63583E+18,0.081628,0.713804,0.331763,-0.611355,0
7.972023,5.711943,14.253168,-2.955626,-1.045295,1.430002,39.47141,18.201239,-15.295877,4.63583E+18,0.71339,0.298606,0.381107,-0.506623,19.126444,16.209911,-6.707173,1.099002,-4.84824,13.008803,8.989269,39.751431,20.798263,4.63582E+18,0.605605,-0.422076,0.4879,-0.465884,31.860776,-3.59528,-0.752105,-1.133875,0.180248,4.380049,39.726205,19.351686,-7.407832,4.63583E+18,0.095851,0.719782,0.321751,-0.607621,0
1.337616,1.74635,17.924277,-1.920953,1.419174,2.209177,39.64177,17.816959,-14.911598,4.63583E+18,0.71806,0.299387,0.38661,-0.495267,11.281122,24.251538,-8.362061,0.559461,-4.727971,14.708052,14.293211,38.745283,19.987688,4.63582E+18,0.643303,-0.399128,0.499855,-0.420717,13.839122,-20.05872,-25.130527,-0.018367,0.315791,5.115811,40.445252,17.565792,-7.047007,4.63583E+18,0.108371,0.727246,0.306631,-0.604439,0
-14.277617,4.416102,14.912324,-1.70434,2.890001,2.661938,39.905833,17.344245,-13.879929,4.63583E+18,0.720829,0.304521,0.395396,-0.480972,-1.522637,29.743801,-8.293816,-1.062615,-4.420557,15.794733,20.027209,36.652568,19.399156,4.63582E+18,0.676729,-0.375934,0.51509,-0.36796,-3.733316,-1.462178,-12.565659,0.77455,-0.549338,4.111715,41.097153,15.942577,-6.947372,4.63583E+18,0.117023,0.731331,0.29205,-0.605117,0
-22.373776,8.919661,14.747107,-1.552568,2.808857,1.396389,40.558598,16.86821,-12.538563,4.63583E+18,0.720812,0.307786,0.405136,-0.470705,-17.333863,28.747195,-6.725462,-2.854564,-4.340242,16.35886,25.624095,33.404842,19.021797,4.63582E+18,0.704729,-0.35457,0.531677,-0.308149,-1.908835,17.492295,4.077302,0.664627,-0.31012,4.024872,41.569843,14.551169,-7.221373,4.63583E+18,0.125466,0.735644,0.278041,-0.604797,0
-24.313688,7.454488,9.646734,-1.874681,0.282266,0.721819,41.136856,16.613348,-11.835579,4.63583E+18,0.724034,0.303961,0.408717,-0.465116,-33.287818,24.816033,-6.333519,-4.250677,-4.524905,16.442083,30.809196,29.192486,18.654809,4.63582E+18,0.727522,-0.335478,0.546854,-0.243139,-6.931813,11.530433,2.05411,-0.226917,-0.651138,3.840372,41.934677,13.232878,-7.529018,4.63583E+18,0.136537,0.738217,0.266588,-0.604421,0
-23.226052,0.887898,14.126921,-1.850889,-1.055203,0.594355,41.396233,16.532208,-11.897706,4.63583E+18,0.729253,0.297331,0.408382,-0.461527,-45.068898,21.253519,-8.768677,-5.441953,-4.722494,16.084703,35.190341,24.108865,18.295584,4.63582E+18,0.744867,-0.319207,0.559187,-0.174898,-14.898598,2.023408,-2.239412,-0.399764,-0.779311,3.439558,42.385196,12.023253,-7.868321,4.63583E+18,0.14724,0.739747,0.256666,-0.604331,0
-16.882971,-2.255258,19.501672,-1.396672,-0.918493,0.411349,41.244522,16.517182,-12.088491,4.63583E+18,0.733274,0.292017,0.407786,-0.459071,-46.302314,17.245051,-13.553425,-6.669125,-4.747719,15.453746,38.526405,18.644047,17.878556,4.63582E+18,0.756224,-0.306499,0.568508,-0.104798,-17.170154,1.273676,-0.359517,-0.066907,-0.617894,2.996036,42.768613,10.913729,-8.234543,4.63583E+18,0.1556,0.741276,0.247324,-0.60426,0
-11.235289,-2.613795,20.566318,-1.186298,0.259139,0.550363,41.236607,16.446782,-11.91131,4.63583E+18,0.73527,0.289827,0.410196,-0.455101,-38.234637,13.208677,-18.638692,-7.547944,-4.642389,14.648322,41.274962,12.673807,16.979757,4.63582E+18,0.761956,-0.296806,0.574562,-0.034745,-14.887698,2.61564,-1.943034,0.234989,-0.38616,2.663981,42.997837,9.927708,-8.282965,4.63583E+18,0.161931,0.743136,0.238362,-0.603913,0
-8.21568,-2.240458,15.903375,-1.146543,1.059702,0.8173,41.329731,16.373531,-11.261996,4.63583E+18,0.736325,0.289722,0.414645,-0.449395,-29.782592,8.971457,-21.204256,-8.225303,-4.557939,14.068096,43.2157,6.456486,15.697727,4.63582E+18,0.762763,-0.289129,0.577374,0.035159,-11.828883,-1.316232,-5.14125,0.06366,-0.303134,2.770739,43.022069,8.987851,-8.235483,4.63583E+18,0.168959,0.7451,0.229526,-0.60299,0
-7.010506,-2.710589,13.090432,-1.100244,0.991023,0.827914,41.497216,16.21882,-10.85836,4.63583E+18,0.737422,0.289637,0.41876,-0.443802,-21.266843,4.717557,-24.991513,-8.333452,-4.530931,13.318523,44.134994,0.520961,14.347692,4.63582E+18,0.759848,-0.282193,0.576578,0.102744,-7.937098,-4.451074,-6.678726,-0.051549,-0.358893,2.799167,43.132089,7.838905,-8.537126,4.63583E+18,0.176445,0.74677,0.22082,-0.60203,0
-6.504299,-1.233027,13.278516,-1.025749,1.507328,0.695421,41.819424,15.827344,-10.374614,4.63583E+18,0.73724,0.290489,0.424459,-0.438096,-12.515274,0.021539,-26.408308,-8.388193,-4.482713,13.588675,44.473304,-4.922745,12.688596,4.63582E+18,0.75309,-0.273454,0.573513,0.170767,-4.18514,-0.624684,-3.730809,-0.04874,-0.2145,2.805827,43.3737,6.543696,-8.73798,4.63583E+18,0.183784,0.74871,0.212163,-0.600537,0
-5.783791,1.459073,11.943738,-1.102672,2.522689,0.726637,42.242137,15.354666,-9.234533,4.63583E+18,0.735345,0.292974,0.433343,-0.43087,-4.87203,-2.005099,-30.596762,-7.387384,-4.229939,13.185652,44.046368,-10.728651,10.248677,4.63582E+18,0.743773,-0.261473,0.568889,0.234092,-7.284685,1.040566,-1.565236,-0.404264,-0.215715,2.73906,43.642252,5.375807,-8.756557,4.63583E+18,0.19204,0.750215,0.204573,-0.598705,0
-6.715608,4.822217,10.469653,-1.332662,2.950854,0.658215,41.971089,15.891104,-8.027844,4.63583E+18,0.732677,0.295388,0.443939,-0.422905,-17.518265,-13.573613,-14.221761,-9.114827,-4.338538,13.561764,42.696725,-16.681605,7.182585,4.63582E+18,0.729055,-0.252634,0.560019,0.301718,-10.503874,1.940525,-1.951158,-0.684549,-0.265248,2.496551,43.676765,4.552988,-8.869734,4.63583E+18,0.200587,0.751074,0.198375,-0.596909,0
-7.007261,9.123087,5.897521,-1.611507,2.839126,0.568231,41.270311,17.035523,-6.831092,4.63583E+18,0.730261,0.296534,0.454711,-0.414757,-73.902547,-75.28676,-8.305546,-13.550256,0.713941,4.687601,42.201374,-18.974927,4.892942,4.63582E+18,0.705962,-0.283186,0.549193,0.346136,-8.739578,-0.504379,-2.412663,-0.684704,-0.173312,2.346684,43.670391,3.899013,-8.915254,4.63583E+18,0.208663,0.751956,0.192702,-0.594885,0
-4.563751,10.932427,2.732163,-1.918935,2.061891,0.504922,41.166784,17.171826,-5.960486,4.63583E+18,0.729468,0.295234,0.463653,-0.407111,-173.179337,-354.057635,-145.554768,-13.312352,-0.512785,-9.181934,43.078728,-17.533206,3.197201,4.63582E+18,0.703074,-0.341865,0.516505,0.349339,-5.397511,-0.133876,-0.313505,-0.471444,-0.15231,2.212855,43.753307,3.063671,-8.836187,4.63583E+18,0.215703,0.752896,0.186918,-0.593027,0
-1.883543,10.650358,3.425772,-2.5025,1.944723,0.370687,41.489177,16.803459,-4.89661,4.63583E+18,0.729275,0.291658,0.47332,-0.398826,-126.073305,-352.827559,-163.1092,-4.887827,-6.029253,-2.147521,43.318238,-17.17674,0.845475,4.63582E+18,0.711836,-0.351764,0.488458,0.361883,-9.096758,5.356128,0.80062,-0.522014,0.053033,2.274886,43.904961,2.127551,-8.918543,4.63583E+18,0.222876,0.754279,0.181232,-0.590376,0
-3.7823,4.698963,10.680403,-2.358394,3.110546,0.560719,41.528441,16.878257,-3.496716,4.63583E+18,0.726762,0.29077,0.485953,-0.388741,40.760262,-48.852141,-65.798687,10.830696,-4.792156,-6.420477,43.055995,-17.399539,-0.705914,4.63582E+18,0.746001,-0.324902,0.480458,0.327234,-13.377127,4.210579,-2.747142,-0.726466,0.056959,1.984958,43.967215,1.404928,-9.030937,4.63583E+18,0.229956,0.7552,0.176948,-0.587778,0
-9.409056,-2.493279,16.434599,-1.952847,3.494953,1.193499,42.018299,16.277767,-2.127048,4.63583E+18,0.723796,0.292933,0.498188,-0.376985,38.526883,140.869097,-56.272814,27.23894,-2.790807,-5.560086,43.839322,-14.919927,0.329115,4.63582E+18,0.790857,-0.245514,0.498163,0.257103,-5.619975,4.933408,-3.738388,-0.648922,0.110061,1.701842,43.987777,0.882647,-8.991044,4.63583E+18,0.236044,0.756067,0.173403,-0.585302,0
-17.928468,-7.031732,13.30281,-2.299796,4.281561,2.879223,43.240525,14.561228,-0.364592,4.63583E+18,0.72196,0.298663,0.511069,-0.358306,-28.674057,184.77891,-12.294456,9.22347,1.680916,3.626862,44.762167,-12.635121,2.198337,4.63582E+18,0.792205,-0.209134,0.51695,0.247864,-2.794086,7.548715,-1.850985,-0.616842,0.095658,1.478638,43.895207,0.414914,-9.01037,4.63583E+18,0.241486,0.756731,0.170459,-0.583084,0
-31.750145,-5.482175,11.867001,-2.503161,7.027529,2.06301,44.032635,13.186546,2.313732,4.63583E+18,0.712651,0.306044,0.533042,-0.338131,-47.579711,39.903517,10.535039,-17.033535,4.663975,-5.13347,44.835642,-12.733501,2.564047,4.63582E+18,0.77029,-0.280507,0.508865,0.262726,-11.332261,9.621783,0.130177,-0.818766,-0.023753,1.188275,43.740376,0.151592,-9.033479,4.63583E+18,0.246934,0.756665,0.168795,-0.581369,0
-34.08604,-8.083267,-1.47053,-2.182442,3.262833,0.024482,44.033823,12.913535,4.547345,4.63583E+18,0.708079,0.304167,0.545744,-0.329045,-24.349208,-91.991035,6.580054,-5.855856,1.369635,-4.306551,44.877262,-12.333195,2.127226,4.63582E+18,0.76488,-0.309742,0.50167,0.25951,-16.493868,5.638631,-0.586933,-1.02461,-0.058915,0.862161,43.80726,0.005759,-8.774486,4.63583E+18,0.252258,0.756049,0.168615,-0.579935,0
-30.061997,-12.752536,-10.558168,-1.862868,-1.816042,-0.057416,43.79944,13.06609,4.732453,4.63583E+18,0.714411,0.29601,0.543031,-0.32728,32.196851,-70.771037,8.109829,7.130363,0.177351,0.340472,45.083121,-11.093081,2.307346,4.63582E+18,0.772993,-0.286308,0.510255,0.245255,-10.751134,1.744558,-1.55172,-1.062353,-0.015337,0.671056,44.320703,-0.780181,-8.521375,4.63583E+18,0.257201,0.755343,0.169168,-0.578521,0
-29.010089,-7.404194,0.519091,-1.650423,-3.758164,-0.361982,43.927553,13.050863,3.549892,4.63583E+18,0.724317,0.285087,0.534512,-0.329222,19.787703,8.237587,1.166697,3.652099,1.558189,-0.333228,45.062096,-10.782439,3.066327,4.63582E+18,0.774242,-0.276781,0.51862,0.234468,-6.025716,4.127188,-1.629354,-1.120777,0.03902,0.519442,44.758153,-1.540761,-8.526559,4.63583E+18,0.261918,0.754578,0.170393,-0.577041,0
-19.813982,-5.698419,11.287502,-1.653906,-2.385687,-0.381127,44.074025,12.88687,2.677095,4.63583E+18,0.730987,0.27593,0.530044,-0.329505,-10.944852,15.080743,3.739257,-0.839993,1.358523,-1.444055,45.058941,-10.782057,3.733961,4.63582E+18,0.771685,-0.283905,0.520578,0.229995,-7.409434,6.664045,-0.567881,-1.150732,0.025577,0.358214,44.46961,-1.265676,-8.557389,4.63583E+18,0.266345,0.753615,0.172178,-0.575743,0
-13.46368,-4.115495,8.326112,-1.237274,2.155428,-0.384382,43.85993,13.123076,3.26491,4.63583E+18,0.727042,0.274248,0.538762,-0.325474,-9.872763,0.474592,9.284275,-1.977427,1.598587,-0.951175,45.205422,-10.321838,4.160253,4.63582E+18,0.766721,-0.293792,0.522761,0.229231,-10.210678,4.138059,0.228113,-0.994714,-0.005792,0.238922,44.17987,-0.941246,-8.615861,4.63583E+18,0.270012,0.752648,0.173924,-0.574775,0
-20.370933,-2.80784,3.560583,-1.079238,3.344414,-0.214586,43.709429,13.379402,4.296203,4.63583E+18,0.72035,0.275008,0.550577,-0.319893,-9.561028,-3.102803,3.99713,-2.499115,1.66258,-0.582209,45.227498,-9.953624,4.731486,4.63582E+18,0.760504,-0.304583,0.525012,0.230705,-11.311146,1.760997,-0.348293,-0.700686,0.029968,0.143632,44.405417,-1.31715,-8.642841,4.63583E+18,0.272499,0.752018,0.175302,-0.574006,0
-26.217631,-2.95601,-1.017079,-1.337008,0.436182,-0.121688,43.702503,13.472933,4.973867,4.63583E+18,0.720663,0.271288,0.553836,-0.316722,-11.633534,-6.214162,-5.342407,-2.171748,1.664802,-0.694898,45.136058,-9.838468,5.444804,4.63582E+18,0.754693,-0.314539,0.527361,0.231072,-12.716212,3.661492,-1.168038,-0.718016,0.053126,0.05875,44.482494,-1.187985,-8.450742,4.63583E+18,0.274819,0.751355,0.177011,-0.573242,0
-23.605772,-5.001686,-2.209886,-1.259569,-1.158639,0.110456,43.865329,13.244369,5.109707,4.63583E+18,0.724856,0.266203,0.551926,-0.314798,-13.096692,-8.08827,-6.112725,-1.139139,1.492033,-0.449779,45.131464,-9.759009,5.917148,4.63582E+18,0.750301,-0.320511,0.530428,0.230146,-13.072223,6.135056,-2.92835,-1.132147,0.123168,-0.110849,44.283977,-0.670156,-8.370423,4.63583E+18,0.277975,0.750248,0.180318,-0.572139,0
-18.0436,-5.021293,2.3699,-1.179777,-0.7075,0.359869,43.873409,13.000249,4.94047,4.63583E+18,0.728211,0.262526,0.550968,-0.311806,-12.870291,-4.036563,-0.638792,-0.648485,1.385106,-0.324334,45.161174,-9.673562,6.204121,4.63582E+18,0.746639,-0.324554,0.533768,0.228661,-8.304593,4.528781,-6.727551,-1.431515,0.273983,-0.284723,44.311565,-0.70927,-8.499538,4.63583E+18,0.28153,0.749001,0.185051,-0.570521,0
-14.796662,-3.737927,2.960711,-0.990821,0.433853,0.382909,43.873409,12.756074,5.117873,4.63583E+18,0.728756,0.26094,0.553191,-0.307903,-13.907984,-0.945979,2.779662,-0.867649,1.377511,-0.359958,45.198736,-9.594311,6.540722,4.63582E+18,0.742696,-0.32934,0.536801,0.227558,-5.993877,3.090508,-9.139869,-1.746804,0.360407,-0.361364,44.194698,-0.596934,-8.557389,4.63583E+18,0.285806,0.747494,0.190864,-0.568452,0
-15.695477,-2.720865,1.815724,-0.86156,0.88808,0.302063,43.885038,12.756158,5.592262,4.63583E+18,0.72799,0.260138,0.556701,-0.304045,-14.025399,-0.398037,1.598518,-0.912287,1.37234,-0.237471,45.234412,-9.558396,6.919194,4.63582E+18,0.738547,-0.333975,0.539914,0.226939,-6.956015,4.767456,-9.486467,-2.404593,0.456752,-0.590853,43.950552,0.07566,-8.306884,4.63583E+18,0.291487,0.745187,0.199048,-0.565784,0
-16.863642,-1.859604,0.362751,-0.882035,0.588502,0.178992,43.815859,12.838118,6.057192,4.63583E+18,0.727766,0.258604,0.559447,-0.300833,-11.002315,-3.183349,-0.093759,-0.331077,1.309641,-0.009606,45.228428,-9.558396,7.39716,4.63582E+18,0.735103,-0.336237,0.543678,0.225793,-6.574341,4.492122,-9.544863,-3.05323,0.528158,-0.822591,43.973599,0.717521,-7.940692,4.63583E+18,0.298535,0.74196,0.209538,-0.562553,0
-15.303472,-2.91173,-0.38132,-0.950497,0.079157,0.056055,43.730988,12.679427,5.997906,4.63583E+18,0.728634,0.255937,0.560854,-0.298381,-9.506672,-5.630001,-0.083317,0.335619,1.218486,0.164134,45.097743,-9.521058,7.871372,4.63582E+18,0.732624,-0.33594,0.548033,0.223753,-7.195492,1.930315,-9.620065,-3.388773,0.565603,-0.955679,43.969804,1.1583,-7.632925,4.63583E+18,0.306215,0.738139,0.221229,-0.558964,0
-11.653934,-3.9661,0.863635,-1.039296,0.160258,-0.074905,43.657173,12.438796,6.005459,4.63583E+18,0.729233,0.252789,0.562749,-0.296025,-10.02945,-3.988762,1.101171,0.309214,1.184156,0.284185,44.847626,-9.485152,8.256001,4.63582E+18,0.730042,-0.335435,0.552396,0.222217,-7.632854,0.487876,-8.52126,-3.444783,0.653897,-1.035858,43.771328,1.757655,-7.418944,4.63583E+18,0.31373,0.734211,0.233359,-0.555024,0
-9.31257,-3.760469,1.183529,-1.121909,0.722,-0.197146,43.735053,12.206248,6.389692,4.63583E+18,0.728436,0.249782,0.56657,-0.293237,-9.83445,-2.419424,2.029967,-0.111218,1.201349,0.35922,44.815028,-9.653136,8.646615,4.63582E+18,0.726741,-0.336046,0.556509,0.221849,-8.001415,0.565222,-6.179903,-3.452246,0.730927,-1.103483,43.740384,2.461768,-7.235848,4.63583E+18,0.320963,0.730212,0.245758,-0.550796,0
-9.018391,-2.29462,-0.442718,-1.138033,0.632869,-0.193794,43.820496,12.357938,6.757619,4.63583E+18,0.727848,0.246619,0.570117,-0.290488,-9.315046,-1.935642,2.265535,-0.518307,1.25481,0.455498,44.8615,-9.945407,9.130576,4.63582E+18,0.722634,-0.337706,0.560525,0.222637,-9.030381,0.799849,-4.424783,-3.414839,0.735232,-1.175887,43.813624,2.952741,-6.927535,4.63583E+18,0.327835,0.726026,0.258237,-0.546557,0
-8.43947,-0.931444,0.32366,-1.225102,0.383908,0.022297,43.743206,12.598587,6.949474,4.63583E+18,0.728174,0.24341,0.572771,-0.287139,-8.747083,-0.925781,2.319407,-0.964314,1.296208,0.5161,44.533204,-10.120875,9.754057,4.63582E+18,0.717714,-0.340592,0.564311,0.224581,-9.616102,1.076034,-3.152607,-3.322996,0.671507,-1.23678,43.578019,3.2766,-6.352631,4.63583E+18,0.334283,0.721586,0.270544,-0.542563,0
-6.156047,-0.134479,2.132912,-1.240625,0.719533,0.371777,43.669389,12.54051,7.411515,4.63583E+18,0.728107,0.241384,0.576086,-0.282346,-7.713311,-1.812725,2.188783,-1.262685,1.26843,0.589752,44.164755,-10.29317,10.325901,4.63582E+18,0.712328,-0.34415,0.567808,0.227474,-9.546307,1.200811,-1.824091,-3.165745,0.586737,-1.272993,43.450009,3.903404,-6.023476,4.63583E+18,0.340199,0.716975,0.282426,-0.538931,0
-3.589941,0.623046,1.28018,-1.377482,1.110307,0.628847,43.758877,12.304518,8.085268,4.63583E+18,0.7275,0.240021,0.580455,-0.276054,-7.573317,-4.351632,1.217109,-1.175919,1.18404,0.732666,44.174236,-10.667942,10.665146,4.63582E+18,0.707099,-0.346981,0.571325,0.230657,-9.781703,1.458877,-0.51544,-2.948403,0.4772,-1.234316,43.754907,4.692929,-5.919352,4.63583E+18,0.345616,0.712332,0.293493,-0.535719,0
-1.932672,0.624331,0.419341,-1.665014,1.128015,0.789372,43.856523,11.83956,8.687449,4.63583E+18,0.727272,0.238176,0.585009,-0.268538,-9.255845,-5.335994,-0.480313,-0.783112,1.024546,0.885824,44.145876,-11.168415,10.816685,4.63582E+18,0.702635,-0.348123,0.574939,0.233581,-10.775741,1.95025,0.933176,-2.665569,0.338251,-1.16708,44.106431,5.377904,-5.65419,4.63583E+18,0.350456,0.707749,0.303479,-0.533078,0
-1.146529,-0.005058,1.680193,-1.812356,1.08525,0.791753,43.721724,11.282114,9.285608,4.63583E+18,0.727244,0.235804,0.589554,-0.260652,-9.742675,-3.573124,-1.566918,-0.29014,0.860284,1.044102,43.870417,-11.581827,10.914338,4.63582E+18,0.699086,-0.3473,0.57874,0.236056,-11.545225,2.057342,1.975062,-2.381275,0.166767,-1.131522,44.203007,5.84577,-5.350264,4.63583E+18,0.354707,0.70315,0.312437,-0.531175,0
-0.669204,-1.036191,3.454224,-1.721423,1.195989,0.666406,43.563614,10.941408,9.790788,4.63583E+18,0.726647,0.233519,0.5944,-0.253262,-9.142885,-1.402949,-1.962393,0.207113,0.750546,1.193281,43.590336,-11.874114,11.161246,4.63582E+18,0.69635,-0.344548,0.582907,0.237915,-11.160067,1.459045,2.325737,-2.125001,0.002358,-1.133521,44.094537,6.236424,-5.136233,4.63583E+18,0.358376,0.698484,0.320555,-0.530029,0
-0.577263,-1.783749,4.330408,-1.464327,1.53622,0.536056,43.497906,10.623467,10.465556,4.63583E+18,0.724758,0.232031,0.600083,-0.24655,-10.163546,-0.58966,-2.080563,0.657485,0.664736,1.290942,43.439473,-12.254813,11.502116,4.63582E+18,0.694345,-0.340151,0.587389,0.239074,-9.557934,1.296446,2.359893,-1.910053,-0.07766,-1.168969,43.927506,6.677104,-5.07828,4.63583E+18,0.361416,0.693849,0.328151,-0.529405,0
-1.061789,-2.179124,3.905449,-1.218777,1.914034,0.450495,43.587937,10.155052,11.242048,4.63583E+18,0.721545,0.231416,0.606693,-0.240299,-11.978015,-0.109499,-2.063505,0.920867,0.616123,1.322891,43.328703,-12.711767,11.795077,4.63582E+18,0.692765,-0.334852,0.59201,0.23974,-8.22676,1.509652,1.830491,-1.699385,-0.113028,-1.170369,43.865065,7.14093,-5.019887,4.63583E+18,0.363863,0.689394,0.335206,-0.529128,0
-1.841756,-2.360012,2.475939,-1.058562,2.037004,0.467837,43.453197,9.899746,11.930358,4.63583E+18,0.717812,0.231433,0.613436,-0.234266,-12.949471,1.071267,-1.559001,0.947316,0.580615,1.323999,43.170006,-13.133036,12.137792,4.63582E+18,0.691271,-0.329423,0.596525,0.240381,-7.923214,1.069795,0.936333,-1.479978,-0.158601,-1.16793,43.852857,7.663183,-5.001169,4.63583E+18,0.365724,0.685128,0.341677,-0.529247,0
-2.205299,-2.100977,0.987223,-0.914813,1.873519,0.46485,42.992969,9.980956,12.695313,4.63583E+18,0.714288,0.231704,0.619495,-0.228761,-12.333239,2.48294,-0.533868,0.758262,0.54617,1.368543,42.974019,-13.467021,12.57192,4.63582E+18,0.689535,-0.324347,0.600799,0.241621,-8.001552,0.095971,0.559703,-1.269803,-0.208754,-1.194441,43.673801,8.212561,-4.938296,4.63583E+18,0.366977,0.680993,0.347664,-0.529817,0
-1.803429,-1.866687,0.288077,-0.751347,1.521326,0.393472,42.83062,9.764877,13.475999,4.63583E+18,0.711401,0.231922,0.62438,-0.224211,-10.764792,2.212498,-0.129859,0.430432,0.52914,1.361006,42.698582,-13.760881,12.954745,4.63582E+18,0.687377,-0.320199,0.604658,0.243669,-8.190948,-0.611146,0.808508,-1.034091,-0.254234,-1.232213,43.534252,8.645053,-4.782263,4.63583E+18,0.367526,0.677029,0.353151,-0.530887,0
-0.527476,-1.588298,0.755954,-0.609236,1.325026,0.269912,42.986229,9.219261,14.257184,4.63583E+18,0.708747,0.232023,0.628649,-0.220553,-10.240279,0.776283,-0.561601,0.161701,0.46848,1.253451,42.424701,-14.183494,13.005307,4.63582E+18,0.685084,-0.31705,0.607888,0.246194,-8.50627,-0.873013,0.739811,-0.800948,-0.292916,-1.253879,43.548885,9.248632,-4.799325,4.63583E+18,0.36741,0.673274,0.358108,-0.532419,0
0.65136,-1.43535,1.489917,-0.446911,1.537554,0.09916,42.704047,8.80881,14.957044,4.63583E+18,0.705197,0.232327,0.633541,-0.217594,-10.275071,1.457191,-0.934646,-0.065436,0.395369,1.227886,42.23628,-14.683967,12.921648,4.63582E+18,0.68268,-0.314531,0.610624,0.249313,-8.876965,-0.064881,0.688692,-0.60184,-0.328504,-1.241494,43.551543,9.906622,-5.04263,4.63583E+18,0.366804,0.669739,0.362521,-0.534307,0
0.77774,-1.451503,3.059557,-0.131992,1.796868,-0.089148,42.3175,8.951988,15.536757,4.63583E+18,0.700449,0.233288,0.639057,-0.215767,-9.250598,2.691843,-0.970378,-0.365122,0.412983,1.291428,42.046299,-15.227941,13.076783,4.63582E+18,0.679751,-0.312713,0.613161,0.253344,-9.347092,1.605458,0.632979,-0.507596,-0.352805,-1.215469,43.36869,10.366237,-5.197689,4.63583E+18,0.366017,0.666309,0.366601,-0.536347,0
-0.334102,-1.220311,2.660944,-0.097112,1.687448,-0.242629,42.066283,9.204223,16.098891,4.63583E+18,0.695779,0.233837,0.644333,-0.214585,-8.130594,0.491758,-1.007885,-0.461308,0.461109,1.319104,41.770857,-15.726896,13.220617,4.63582E+18,0.676519,-0.311138,0.615745,0.257631,-9.818091,2.097271,0.189577,-0.557743,-0.382245,-1.196792,43.229083,10.752991,-5.233107,4.63583E+18,0.365444,0.662743,0.370685,-0.538345,0
-1.447793,-1.347938,-0.464967,-0.278086,1.22994,-0.322118,41.9151,9.21659,16.671984,4.63583E+18,0.692416,0.233223,0.648499,-0.213579,-8.502224,-2.59268,-0.565179,-0.173915,0.421015,1.318677,41.540474,-16.141922,13.177123,4.63582E+18,0.673738,-0.3087,0.618501,0.261222,-9.719425,0.666656,-0.49197,-0.622112,-0.425911,-1.212482,43.135291,11.193658,-5.236976,4.63583E+18,0.36507,0.658934,0.374877,-0.540369,0
-2.395915,-1.715106,-1.540213,-0.374739,0.76387,-0.215001,41.687319,8.995892,16.990119,4.63583E+18,0.69049,0.232188,0.651291,-0.212443,-9.441344,-2.527891,0.20677,0.234663,0.279843,1.344675,41.47476,-16.513459,13.284274,4.63582E+18,0.671797,-0.304882,0.621319,0.264005,-9.157003,-1.08447,-1.495622,-0.575674,-0.457195,-1.222691,42.987616,11.607477,-5.437075,4.63583E+18,0.364581,0.655085,0.378931,-0.542546,0
-2.650586,-1.582431,0.039412,-0.515401,0.48819,-0.078231,41.594755,8.822012,17.01653,4.63583E+18,0.689556,0.23089,0.653269,-0.210813,-9.108235,-0.127163,0.693102,0.405066,0.169454,1.349833,41.399988,-16.849272,13.527549,4.63582E+18,0.670328,-0.300442,0.624001,0.26649,-8.889667,-1.299037,-2.830956,-0.452788,-0.455161,-1.196038,42.875077,11.948077,-5.529953,4.63583E+18,0.363802,0.651446,0.382625,-0.544852,0
-2.173357,-1.470214,1.887651,-0.449146,0.37064,0.048366,41.671933,8.895054,17.098429,4.63583E+18,0.688982,0.23003,0.654721,-0.20912,-8.340617,1.80381,0.444086,0.267592,0.163692,1.266191,41.079788,-17.228332,13.673158,4.63582E+18,0.668773,-0.296588,0.626389,0.269098,-9.171081,0.224407,-3.525594,-0.416396,-0.395311,-1.165268,42.78962,12.315524,-5.471588,4.63583E+18,0.362888,0.648027,0.386231,-0.54699,0
-2.404045,-1.267424,2.360913,-0.3387,0.24131,0.122572,41.676075,8.980506,17.276805,4.63583E+18,0.688714,0.229579,0.65563,-0.207643,-8.346861,2.207615,-0.689808,0.067464,0.185445,1.141346,40.727968,-17.643334,13.770806,4.63582E+18,0.667037,-0.293634,0.628443,0.271845,-9.497651,1.892112,-3.087599,-0.517527,-0.330919,-1.146592,42.529113,12.856168,-5.511194,4.63583E+18,0.362176,0.644613,0.390103,-0.548746,0
-3.055769,-1.001881,2.275929,-0.463325,0.225847,0.144332,41.455432,8.984649,17.657291,4.63583E+18,0.688625,0.228813,0.656579,-0.205774,-8.334448,1.931986,-1.721023,-0.018796,0.209113,1.046692,40.539501,-18.10186,13.824991,4.63582E+18,0.665226,-0.291188,0.630336,0.27452,-9.224383,1.918117,-1.948549,-0.685446,-0.301298,-1.159355,42.24568,13.316452,-5.667194,4.63583E+18,0.361827,0.640971,0.394426,-0.550151,0
