Accelerometer-X,Accelerometer-Y,Accelerometer-Z,Gyroscope-X,Gyroscope-Y,Gyroscope-Z,Magnetometer-X,Magnetometer-Y,Magnetometer-Z,Barometer-pressure,Orientation-S,Orientation-X,Orientation-Y,Orientation-Z,Accelerometer-X,Accelerometer-Y,Accelerometer-Z,Gyroscope-X,Gyroscope-Y,Gyroscope-Z,Magnetometer-X,Magnetometer-Y,Magnetometer-Z,Barometer-pressure,Orientation-S,Orientation-X,Orientation-Y,Orientation-Z,Accelerometer-X,Accelerometer-Y,Accelerometer-Z,Gyroscope-X,Gyroscope-Y,Gyroscope-Z,Magnetometer-X,Magnetometer-Y,Magnetometer-Z,Barometer-pressure,Orientation-S,Orientation-X,Orientation-Y,Orientation-Z,jump
-9.833133,-3.380408,0.681218,1.733885,-0.206587,0.14457,42.68757,-8.569146,-15.816115,4.63583E+18,-0.227016,0.710522,-0.190334,-0.638275,-8.61096,8.237889,-3.248197,1.573745,-0.426923,2.249855,26.179894,37.15821,-1.001366,4.63582E+18,0.048818,0.605582,0.500697,-0.616595,-10.412516,0.303093,-1.463892,0.83789,0.408878,-1.241236,42.807327,-7.358921,14.3435,4.63583E+18,-0.587363,0.469423,-0.577458,-0.318102,0
-10.492138,-2.470331,0.956124,1.784812,-0.397664,0.111664,42.384585,-8.864368,-15.757364,4.63583E+18,-0.232385,0.707499,-0.194978,-0.638299,-4.111756,28.719846,-5.442861,0.07732,-0.350143,2.978881,26.889269,36.653641,-1.402035,4.63582E+18,0.056891,0.610811,0.49298,-0.616964,-10.486359,0.676638,-1.842222,0.67653,0.36045,-1.342453,42.815299,-6.654928,14.356205,4.63583E+18,-0.589442,0.471373,-0.576746,-0.312618,0
-11.095422,-1.70536,1.621985,1.820049,-0.589836,-0.001856,42.381343,-9.245051,-15.849748,4.63583E+18,-0.238299,0.703977,-0.199187,-0.638713,1.031286,30.927893,-4.405377,-1.406807,0.388122,3.389488,27.829695,35.982937,-0.938161,4.63582E+18,0.068266,0.618313,0.488111,-0.612189,-10.267841,0.217113,-1.958534,0.541516,0.328636,-1.425006,42.900446,-6.055984,14.343193,4.63583E+18,-0.591432,0.473764,-0.57562,-0.307275,0
-11.155667,-0.902801,2.225671,1.846575,-0.696357,-0.147742,42.445141,-9.565204,-16.027951,4.63583E+18,-0.245428,0.700002,-0.203666,-0.63897,-6.732454,15.835407,-5.245558,-3.081863,0.488721,3.088522,28.877247,35.261943,-0.131355,4.63582E+18,0.082962,0.624811,0.48818,-0.603662,-9.734999,-0.198833,-1.325242,0.420861,0.335688,-1.520054,42.982476,-5.685448,14.619082,4.63583E+18,-0.59325,0.476694,-0.574127,-0.301986,0
-10.551371,-0.09428,2.417066,1.857498,-0.60473,-0.258104,42.350255,-9.617171,-16.159957,4.63583E+18,-0.252303,0.696451,-0.207401,-0.638971,-18.313714,-10.453613,-10.400345,-2.868978,0.380336,2.116068,29.717658,34.640896,0.703687,4.63582E+18,0.094852,0.628964,0.490071,-0.596019,-9.330701,-0.281192,-0.497946,0.29868,0.361657,-1.608075,42.901165,-5.247153,14.990164,4.63583E+18,-0.594848,0.480148,-0.572344,-0.296708,0
-10.035116,0.136925,2.28568,1.873696,-0.493407,-0.285218,42.286446,-9.728796,-16.133531,4.63583E+18,-0.259182,0.693151,-0.211206,-0.63856,-33.31909,-22.616052,-6.426122,-1.021221,-0.001945,1.527875,30.231492,34.201087,1.225673,4.63582E+18,0.101206,0.631611,0.488694,-0.593299,-9.447121,-0.429124,-0.287644,0.220801,0.394042,-1.679263,42.827712,-4.543214,15.076468,4.63583E+18,-0.596271,0.483984,-0.570376,-0.291362,0
-10.182473,-0.296484,1.898075,1.828859,-0.553638,-0.226637,42.293744,-10.024032,-16.023667,4.63583E+18,-0.265819,0.689633,-0.214995,-0.638375,-24.116248,2.455364,0.222727,0.782423,-0.530163,2.815045,30.884083,33.564511,1.280316,4.63582E+18,0.107058,0.636268,0.479197,-0.595039,-10.052266,-1.197974,-0.807662,0.226648,0.422586,-1.74874,42.835562,-3.867557,15.031129,4.63583E+18,-0.597691,0.48798,-0.568316,-0.285759,0
-10.750899,-0.846177,1.076468,1.653136,-0.710394,-0.096894,42.050509,-10.15656,-16.147354,4.63583E+18,-0.27152,0.685802,-0.218281,-0.638988,-6.751234,16.881573,-1.23079,0.339794,0.176906,3.254289,31.857218,32.612774,1.047613,4.63582E+18,0.113741,0.643252,0.469869,-0.593728,-10.999607,-1.386765,-1.273712,0.292041,0.441421,-1.806075,42.852349,-3.212634,15.144806,4.63583E+18,-0.599233,0.491946,-0.566232,-0.279805,0
-11.135135,-1.205472,0.228648,1.456054,-0.795699,0.078201,41.686569,-10.112775,-16.428103,4.63583E+18,-0.276253,0.681768,-0.221436,-0.640189,-14.966221,9.496126,-3.402244,-0.073525,-0.018912,2.8478,32.575982,31.832978,0.891937,4.63582E+18,0.120889,0.648657,0.462484,-0.592232,-11.864453,-0.163381,-1.337984,0.347913,0.466711,-1.863365,42.811135,-2.488678,15.347937,4.63583E+18,-0.600859,0.495908,-0.564124,-0.273509,0
-11.18942,-1.208959,-0.126701,1.263244,-0.742832,0.277025,41.656144,-10.324084,-16.650471,4.63583E+18,-0.279844,0.677883,-0.224694,-0.641619,-15.546651,-0.20216,-3.145085,0.898861,-0.320843,2.771305,33.075415,31.245864,0.788243,4.63582E+18,0.125783,0.653566,0.452688,-0.593383,-12.150045,0.76574,-1.755405,0.293798,0.472919,-1.914744,42.880342,-1.731648,15.616478,4.63583E+18,-0.602379,0.500103,-0.561827,-0.267183,0
-11.184367,-0.967473,-0.046866,1.055172,-0.520447,0.466583,41.724903,-10.734234,-16.76792,4.63583E+18,-0.28212,0.674632,-0.228185,-0.642816,-14.964743,-0.062597,-3.859129,1.647716,-0.157089,2.886431,33.4779,30.61337,0.474092,4.63582E+18,0.128592,0.65938,0.440738,-0.595343,-12.151226,0.159057,-2.617121,0.161384,0.441985,-1.942867,42.864817,-0.999469,15.824587,4.63583E+18,-0.603685,0.50463,-0.55921,-0.261146,0
-11.033599,-0.569837,0.197212,0.905159,-0.026911,0.61563,41.63001,-11.047201,-16.790087,4.63583E+18,-0.283097,0.67272,-0.232267,-0.642928,-17.704287,5.823998,-4.774466,1.378013,-0.039166,3.025234,33.731223,30.176432,-0.087345,4.63582E+18,0.132243,0.66547,0.429054,-0.5963,-11.826526,-0.986489,-3.449329,0.057081,0.410574,-1.96395,42.74227,-0.250487,15.817374,4.63583E+18,-0.604828,0.509402,-0.556318,-0.255348,0
-10.786918,0.008493,0.151876,0.763193,0.586503,0.716779,41.617312,-11.342471,-16.719475,4.63583E+18,-0.282802,0.672505,-0.236971,-0.641564,-15.26989,7.154833,-3.25841,0.763507,-0.036108,2.816473,33.951538,30.017722,-0.574839,4.63582E+18,0.137051,0.670744,0.419407,-0.596169,-11.455059,-1.396281,-3.791623,0.00598,0.392448,-1.966118,42.717853,0.441185,15.682484,4.63583E+18,-0.605843,0.514306,-0.553238,-0.249743,0
-11.204735,0.896424,-2.090278,0.600401,0.596785,0.796473,41.702764,-11.664778,-16.492795,4.63583E+18,-0.283499,0.671779,-0.243234,-0.639671,-12.659093,5.973847,-1.075681,0.682455,-0.047411,2.574239,34.494843,29.743228,-0.641297,4.63582E+18,0.141483,0.675431,0.410575,-0.59599,-11.441627,-1.31803,-3.842411,-0.103788,0.36189,-1.956911,42.645103,1.145158,15.762924,4.63583E+18,-0.606667,0.51935,-0.549995,-0.24441,0
-12.37325,1.887901,-3.002246,0.48595,0.170477,0.874452,41.642194,-11.989486,-16.246006,4.63583E+18,-0.282595,0.670511,-0.247332,-0.63983,-12.669839,3.978434,0.937005,0.499104,0.209213,2.470796,35.274499,28.813301,-0.621762,4.63582E+18,0.145718,0.680392,0.402594,-0.59477,-11.653413,-1.456078,-3.363709,-0.256586,0.327976,-1.934515,42.506431,1.740246,16.06771,4.63583E+18,-0.607175,0.524662,-0.546523,-0.239543,0
-12.993344,2.964117,-2.18178,0.389016,-0.149937,0.890458,41.48351,-12.413968,-16.148001,4.63583E+18,-0.281514,0.668546,-0.250638,-0.641075,-15.292607,6.245445,0.200803,-0.079001,0.242523,2.321023,35.571583,27.879547,-0.698801,4.63582E+18,0.151148,0.684765,0.396449,-0.592519,-11.929022,-1.586962,-2.622958,-0.384533,0.31583,-1.893694,42.477484,2.183235,16.349488,4.63583E+18,-0.607352,0.530159,-0.542947,-0.235084,0
-12.796641,3.729537,-1.918825,0.205575,-0.203302,0.869935,41.427018,-12.909505,-16.174682,4.63583E+18,-0.280485,0.666483,-0.253805,-0.642427,-15.027867,3.127486,-1.078595,-0.380392,0.151005,2.153611,35.260579,27.646067,-0.749027,4.63582E+18,0.157162,0.688387,0.391433,-0.590087,-12.449512,-1.671522,-1.991463,-0.477569,0.306978,-1.817617,42.462013,2.780867,16.434937,4.63583E+18,-0.60723,0.535679,-0.53939,-0.231036,0
-12.291598,3.792098,-1.90209,-0.009624,-0.048508,0.84071,41.475723,-13.256736,-16.199224,4.63583E+18,-0.278515,0.665204,-0.256224,-0.643647,-11.950201,-0.342171,-2.726889,-0.330509,0.198278,2.075211,36.094805,26.843004,-0.532044,4.63582E+18,0.162749,0.691977,0.38652,-0.587608,-12.886471,-1.855395,-1.547618,-0.542437,0.287059,-1.700334,42.266967,3.428325,16.552587,4.63583E+18,-0.606861,0.54105,-0.535952,-0.227464,0
-11.878441,3.224411,-1.95532,-0.164877,0.138293,0.745846,41.512471,-13.405992,-16.133534,4.63583E+18,-0.276165,0.6647,-0.258176,-0.6444,-10.452347,1.828085,-4.478531,-0.415298,0.25256,1.930547,38.12259,24.921064,-0.284333,4.63582E+18,0.168125,0.695361,0.382239,-0.584893,-12.79934,-2.020839,-1.08465,-0.596526,0.251232,-1.531352,42.075154,3.897144,16.739723,4.63583E+18,-0.60626,0.54612,-0.532725,-0.224512,0
-12.033068,2.503952,-2.349946,-0.303464,0.26235,0.598285,41.371412,-13.53523,-15.972584,4.63583E+18,-0.273695,0.664839,-0.259488,-0.644784,-11.321129,2.367914,-5.279971,-0.435271,0.228941,1.774704,39.101145,23.836811,-0.169008,4.63582E+18,0.173206,0.698383,0.378419,-0.582289,-12.048901,-2.629215,-0.498192,-0.634151,0.180488,-1.331662,42.017883,4.178166,16.866606,4.63583E+18,-0.605519,0.550754,-0.529716,-0.222302,0
-12.672055,1.934758,-3.050099,-0.374025,0.309089,0.438724,41.229446,-13.642832,-15.828361,4.63583E+18,-0.271197,0.665435,-0.260003,-0.645017,-13.058964,0.106384,-5.809742,-0.114177,0.136603,1.733823,39.092354,23.458985,-0.156801,4.63582E+18,0.177388,0.70131,0.373851,-0.580459,-10.14052,-4.05644,-0.038105,-0.619632,0.048153,-1.193109,41.985689,4.462403,16.858423,4.63583E+18,-0.604954,0.554904,-0.526687,-0.220708,0
-13.202674,1.78453,-3.719495,-0.380052,0.244871,0.254456,41.199986,-13.72337,-15.784172,4.63583E+18,-0.269245,0.666061,-0.259916,-0.645224,-12.862745,1.193188,-6.388714,0.211817,0.068547,1.704977,39.460692,22.871981,-0.157861,4.63582E+18,0.180644,0.704234,0.368509,-0.57933,-7.024667,-6.460624,0.453272,-0.53903,-0.106004,-1.195962,41.892053,4.85304,16.886593,4.63583E+18,-0.6049,0.558699,-0.523322,-0.219282,0
-13.28193,1.702153,-3.561166,-0.416863,0.180368,0.057266,41.192689,-13.662884,-15.900923,4.63583E+18,-0.267791,0.666766,-0.259108,-0.645426,-12.605813,3.145936,-6.524021,0.31932,0.076041,1.627121,39.922207,22.239367,-0.217839,4.63582E+18,0.183375,0.707104,0.363124,-0.578376,-7.152951,-9.430067,0.641806,-0.338393,-0.128482,-1.016779,41.830747,5.219519,16.911686,4.63583E+18,-0.605185,0.561565,-0.520488,-0.217919,0
-12.882616,1.142047,-3.230335,-0.451789,0.297086,-0.136914,41.238851,-13.453127,-16.045155,4.63583E+18,-0.266636,0.668031,-0.257795,-0.645122,-14.70255,2.361934,-5.353381,0.42676,0.030664,1.573271,40.092058,21.749176,-0.190478,4.63582E+18,0.185719,0.709832,0.357588,-0.577735,-12.876657,-9.847987,-1.113048,-0.110507,-0.175454,-0.368546,41.870836,5.460454,16.781852,4.63583E+18,-0.605498,0.562428,-0.519225,-0.217836,0
-12.420711,0.168602,-3.638449,-0.499728,0.444108,-0.270873,41.368072,-13.347604,-15.863199,4.63583E+18,-0.26555,0.669884,-0.25614,-0.644307,-15.149216,0.887748,-3.196498,0.656447,-0.073701,1.542297,40.201079,21.237318,-0.110917,4.63582E+18,0.187456,0.712407,0.351493,-0.577745,-16.974944,0.485302,-2.692044,0.120115,-0.242227,0.448637,42.025371,5.441314,16.650898,4.63583E+18,-0.605764,0.560851,-0.519945,-0.219441,0
-12.479982,-0.990724,-4.169123,-0.527027,0.432601,-0.288908,41.482989,-13.393753,-15.543153,4.63583E+18,-0.265996,0.671135,-0.255963,-0.642889,-13.508376,2.132813,-1.219407,0.744125,-0.112627,1.441269,40.398463,20.688234,-0.224751,4.63582E+18,0.188737,0.714776,0.345441,-0.578053,-17.602923,14.362911,-0.387741,0.193338,-0.257022,1.162525,42.220412,5.132941,16.650898,4.63583E+18,-0.605579,0.557495,-0.522381,-0.222691,0
-13.162273,-1.871018,-4.423549,-0.508086,0.387138,-0.188773,41.47361,-13.326016,-15.488516,4.63583E+18,-0.264724,0.67275,-0.254452,-0.642326,-11.759985,4.400063,-0.229667,0.46498,-0.026604,1.238197,40.740271,20.275075,-0.464923,4.63582E+18,0.190228,0.716813,0.34072,-0.577843,-18.303482,17.983474,0.834773,0.07431,-0.395143,1.774275,42.39215,4.588633,16.594586,4.63583E+18,-0.604827,0.552948,-0.525762,-0.228048,0
-14.247878,-2.632266,-4.4048,-0.398615,0.385366,0.00626,41.531658,-13.067605,-15.65181,4.63583E+18,-0.263239,0.67403,-0.253776,-0.641862,-11.490287,4.681318,0.028012,0.008524,0.049424,1.011803,41.055578,19.883593,-0.535233,4.63582E+18,0.192425,0.718332,0.337828,-0.576926,-17.244317,17.024442,1.778261,0.328726,-0.559383,2.289318,42.436668,3.856533,16.387505,4.63583E+18,-0.604483,0.546428,-0.530117,-0.234503,0
-15.157352,-3.207081,-4.280195,-0.242642,0.40476,0.226542,41.743783,-13.034662,-15.501954,4.63583E+18,-0.262328,0.674657,-0.254941,-0.641113,-11.695552,3.184764,-0.278359,-0.312395,0.080442,0.832704,41.228355,19.540787,-0.538157,4.63582E+18,0.195104,0.719407,0.336262,-0.5756,-14.885465,15.458343,2.148252,0.486141,-0.614901,2.743855,42.526136,3.02704,16.0786,4.63583E+18,-0.604102,0.538384,-0.535456,-0.24185,0
-15.216279,-3.15045,-4.513107,-0.104369,0.335103,0.360828,41.89803,-13.288165,-15.169671,4.63583E+18,-0.260994,0.675011,-0.256223,-0.640775,-11.609069,1.120336,-1.57836,-0.358341,0.075463,0.733712,41.396337,19.152214,-0.6255,4.63582E+18,0.197688,0.720285,0.335096,-0.574299,-13.986996,13.863072,0.822162,0.137463,-0.60715,3.060129,42.647907,2.095333,15.712408,4.63583E+18,-0.602505,0.53043,-0.541086,-0.250713,0
-14.291023,-2.521774,-4.896724,0.015929,0.123971,0.333743,41.786598,-13.466977,-15.10277,4.63583E+18,-0.260298,0.674694,-0.257522,-0.640871,-11.410665,-0.359163,-3.092405,-0.212175,0.026871,0.71781,41.495022,18.919416,-0.706138,4.63582E+18,0.19986,0.721138,0.333584,-0.573356,-13.432139,9.060357,-1.039898,-0.534523,-0.575939,3.075258,42.818812,1.131244,15.410502,4.63583E+18,-0.59923,0.524066,-0.546031,-0.261015,0
-12.909505,-1.942116,-4.642978,0.128309,-0.092223,0.170598,41.542444,-13.501388,-15.304894,4.63583E+18,-0.260579,0.673854,-0.25842,-0.641278,-10.959749,-0.733465,-4.09867,-0.006146,-0.047561,0.733183,41.664021,18.788215,-0.680704,4.63582E+18,0.201552,0.722,0.331469,-0.572906,-12.306721,0.192477,-2.661334,-1.159378,-0.581995,2.840809,42.945495,0.069837,15.303915,4.63583E+18,-0.594756,0.51969,-0.549673,-0.272117,0
-11.563856,-1.587783,-4.127251,0.277037,-0.232985,-0.050862,41.393092,-13.457638,-15.417951,4.63583E+18,-0.261802,0.672801,-0.258711,-0.641768,-10.293859,-0.837815,-4.807263,0.178541,-0.12003,0.756682,41.811378,18.83587,-0.567926,4.63582E+18,0.202841,0.72287,0.328778,-0.572905,-10.541429,-6.982692,-3.658184,-1.36282,-0.686536,2.578033,43.006219,-1.117852,15.296184,4.63583E+18,-0.590282,0.516208,-0.552167,-0.283212,0
-10.391506,-1.136792,-3.772923,0.409031,-0.324928,-0.26031,41.409719,-13.428144,-15.417951,4.63583E+18,-0.264052,0.671581,-0.258667,-0.642143,-9.504021,-0.933853,-5.157342,0.331446,-0.183989,0.777205,41.898718,18.62427,-0.431188,4.63582E+18,0.203804,0.723735,0.325604,-0.573283,-9.007182,-8.779004,-2.251864,-1.266199,-0.716568,2.467979,43.16428,-2.262485,15.154658,4.63583E+18,-0.586125,0.512622,-0.55438,-0.293834,0
-9.343878,-0.682242,-3.256297,0.479467,-0.319121,-0.424728,41.444134,-13.47189,-15.417951,4.63583E+18,-0.266931,0.670469,-0.258357,-0.642239,-8.66121,-0.457083,-5.326204,0.393056,-0.198488,0.780486,41.983146,18.163481,-0.614273,4.63582E+18,0.204605,0.724613,0.322256,-0.57378,-9.920567,-7.13865,-0.631876,-0.994585,-0.728977,2.489512,43.392511,-3.198401,14.845784,4.63583E+18,-0.58247,0.508232,-0.556862,-0.303866,0
-8.498462,-0.430158,-2.655506,0.522424,-0.184037,-0.532552,41.444134,-13.457652,-15.476265,4.63583E+18,-0.27007,0.66978,-0.25801,-0.641784,-8.271159,-0.293272,-5.243134,0.369084,-0.171138,0.778845,41.993465,17.943891,-0.814321,4.63582E+18,0.205435,0.725524,0.31899,-0.574157,-11.50723,-1.985413,0.439749,-0.575568,-0.80062,2.71087,43.459001,-4.158212,14.483607,4.63583E+18,-0.579505,0.502144,-0.560089,-0.31357,0
-7.999308,-0.366222,-2.465714,0.537071,-0.057727,-0.59354,41.538879,-13.085602,-15.479169,4.63583E+18,-0.273275,0.66947,-0.257673,-0.640886,-8.567046,-0.801473,-4.528279,0.382718,-0.158678,0.783545,42.019879,17.8207,-1.090344,4.63582E+18,0.206216,0.726473,0.315684,-0.574505,-12.319352,2.998039,2.089722,-0.337773,-0.782038,2.974355,43.292434,-5.23182,14.161716,4.63583E+18,-0.576559,0.494807,-0.564134,-0.323264,0
-7.846993,-0.431807,-2.679778,0.524095,-0.056226,-0.615875,41.595542,-12.708651,-15.46186,4.63583E+18,-0.276499,0.669194,-0.25724,-0.639965,-8.892646,-1.471821,-3.608249,0.501156,-0.184893,0.810419,42.192652,17.453425,-1.256467,4.63582E+18,0.206734,0.727485,0.311986,-0.575058,-12.016199,2.747854,1.661345,-0.3441,-0.813563,3.042071,43.133096,-6.379594,13.873251,4.63583E+18,-0.573483,0.487192,-0.568135,-0.333142,0
-7.851728,-0.643702,-2.683815,0.512089,-0.128143,-0.595502,41.590622,-12.653973,-15.46678,4.63583E+18,-0.279709,0.668709,-0.256748,-0.639273,-8.912301,-1.9267,-2.869267,0.685848,-0.217667,0.846476,42.375758,16.904195,-1.316514,4.63582E+18,0.206817,0.72861,0.307703,-0.57591,-10.939695,2.491054,1.55754,-0.297264,-0.808324,3.074777,43.072063,-7.478172,13.515251,4.63583E+18,-0.570342,0.479304,-0.572177,-0.342915,0
-7.839706,-0.931753,-2.213953,0.499942,-0.188071,-0.541109,41.692645,-12.683492,-15.46678,4.63583E+18,-0.282802,0.668014,-0.256305,-0.638818,-8.810805,-1.495402,-2.19522,0.830703,-0.231287,0.860103,42.581459,16.528747,-1.334451,4.63582E+18,0.206506,0.729827,0.303013,-0.576967,-11.251378,3.219693,1.500145,-0.246434,-0.792946,3.144526,42.934762,-8.62902,13.157057,4.63583E+18,-0.567062,0.471059,-0.576361,-0.352636,0
-7.773939,-1.253863,-1.683579,0.482645,-0.186387,-0.468304,41.907261,-12.537759,-15.35748,4.63583E+18,-0.28808,0.666277,-0.258561,-0.637362,-8.537495,-0.593263,-1.721995,0.83293,-0.208262,0.849487,42.899754,16.356864,-1.532633,4.63582E+18,0.206128,0.731069,0.298362,-0.577953,-11.186496,1.91605,0.829764,-0.190802,-0.803408,3.163795,42.641794,-9.858238,12.843357,4.63583E+18,-0.563781,0.462528,-0.58053,-0.362221,0
-7.630194,-1.581097,-1.508797,0.480426,-0.151362,-0.387779,41.954669,-12.439344,-15.283669,4.63583E+18,-0.29089,0.665434,-0.258767,-0.636883,-8.22779,-0.194262,-1.308751,0.70079,-0.154697,0.806174,43.09394,16.086341,-1.813404,4.63582E+18,0.205977,0.732255,0.294201,-0.578638,-11.076807,0.299945,0.413182,-0.019887,-0.841567,3.186443,42.401004,-10.953817,12.587022,4.63583E+18,-0.56078,0.45339,-0.5848,-0.371446,0
-7.403382,-1.73818,-1.57929,0.485146,-0.172423,-0.308725,41.869222,-12.490344,-15.341955,4.63583E+18,-0.293526,0.664438,-0.25918,-0.636546,-8.265464,0.034812,-0.803658,0.535889,-0.114938,0.740438,42.945571,15.684483,-2.080983,4.63582E+18,0.206119,0.733302,0.290668,-0.579047,-10.990675,-0.832417,0.844114,0.192062,-0.864087,3.222849,42.290798,-11.94595,12.298567,4.63583E+18,-0.55807,0.44354,-0.589298,-0.380207,0
-7.103327,-1.692299,-1.616299,0.474533,-0.240523,-0.24967,41.79106,-12.568507,-15.374043,4.63583E+18,-0.29582,0.663298,-0.259408,-0.63658,-8.509583,0.105994,-0.564445,0.380877,-0.088971,0.668148,42.837714,15.379391,-2.24428,4.63582E+18,0.206525,0.734181,0.287748,-0.579246,-11.022942,-1.102507,1.284247,0.359822,-0.874051,3.247049,42.177608,-13.072657,11.976662,4.63583E+18,-0.555544,0.433133,-0.593965,-0.388551,0
-6.766467,-1.567872,-1.589524,0.468055,-0.249845,-0.22817,41.710537,-12.503345,-15.485669,4.63583E+18,-0.298047,0.662113,-0.259666,-0.63667,-8.751829,-0.267766,-0.822661,0.278951,-0.053898,0.614836,43.01989,15.210384,-2.233955,4.63582E+18,0.207071,0.734987,0.285265,-0.579258,-11.136291,-1.195454,1.44152,0.449782,-0.888943,3.270928,41.933825,-14.228602,11.748405,4.63583E+18,-0.553066,0.422342,-0.598663,-0.396671,0
-6.497513,-1.462732,-1.436364,0.455533,-0.191448,-0.230271,41.719778,-12.439344,-15.622709,4.63583E+18,-0.30018,0.661096,-0.259958,-0.636605,-8.991318,-0.747502,-1.096892,0.293524,-0.04865,0.593641,43.215121,15.038499,-2.24713,4.63582E+18,0.207513,0.735787,0.282815,-0.579286,-11.159123,-1.42671,1.137536,0.496904,-0.915953,3.283852,41.588685,-15.303243,11.521333,4.63583E+18,-0.550601,0.411273,-0.603275,-0.404664,0
-6.423454,-1.406415,-1.226275,0.446486,-0.124325,-0.230944,41.749321,-12.49033,-15.662099,4.63583E+18,-0.303284,0.659827,-0.261417,-0.635852,-9.189301,-0.790607,-1.422729,0.377891,-0.0691,0.587236,43.128721,14.805664,-2.319407,4.63582E+18,0.207703,0.736596,0.280161,-0.579479,-10.825511,-1.732241,0.633366,0.534183,-0.935392,3.289087,41.213231,-16.300586,11.175514,4.63583E+18,-0.548124,0.399982,-0.607784,-0.41252,0
-6.498855,-1.267821,-1.183914,0.423542,-0.089141,-0.225191,41.800305,-12.524796,-15.603829,4.63583E+18,-0.305427,0.659016,-0.262,-0.635428,-8.870935,-0.532393,-1.867799,0.424955,-0.06055,0.589945,42.996353,14.647933,-2.334445,4.63582E+18,0.207743,0.737464,0.27739,-0.579694,-10.515835,-1.924403,0.192203,0.591425,-0.935588,3.300257,40.965466,-17.268472,10.853633,4.63583E+18,-0.545607,0.388444,-0.612279,-0.420165,0
-6.543168,-1.002047,-1.266796,0.392738,-0.084159,-0.213253,41.783792,-12.379139,-15.571722,4.63583E+18,-0.30722,0.658334,-0.262305,-0.635144,-8.30948,-0.286377,-2.276219,0.390352,-0.019879,0.575561,43.044299,14.564355,-2.430231,4.63582E+18,0.207806,0.738376,0.27478,-0.579753,-10.436079,-1.881191,-0.123403,0.687487,-0.938021,3.295236,40.588109,-18.32196,10.633363,4.63583E+18,-0.543143,0.37661,-0.616795,-0.427463,0
-6.521321,-0.638619,-1.087725,0.368379,-0.081629,-0.192565,41.749321,-12.178696,-15.583929,4.63583E+18,-0.308888,0.657664,-0.262606,-0.634905,-8.330176,-0.179352,-2.26585,0.324627,-0.00148,0.545737,43.252711,14.462925,-2.502518,4.63582E+18,0.207977,0.739236,0.272434,-0.579703,-10.395752,-1.047538,-0.203832,0.759575,-0.969027,3.228585,40.063209,-19.352609,10.514944,4.63583E+18,-0.540876,0.364643,-0.621133,-0.434377,0
-6.477417,-0.257621,-0.983664,0.309196,-0.052918,-0.165449,41.749321,-12.109744,-15.588854,4.63583E+18,-0.310288,0.657115,-0.262861,-0.634685,-8.531076,-0.141781,-2.044275,0.258975,-0.007311,0.512462,43.276195,14.195292,-2.515674,4.63582E+18,0.208275,0.739982,0.270343,-0.579623,-9.2478,0.401379,1.020091,0.522449,-0.943201,2.956213,39.534326,-20.223273,10.449904,4.63583E+18,-0.538571,0.353886,-0.624565,-0.441162,0
-6.566937,0.101293,-1.086028,0.240541,-0.00403,-0.145531,41.749321,-12.109744,-15.530603,4.63583E+18,-0.311394,0.656761,-0.263053,-0.63443,-8.392123,-0.02816,-2.157938,0.177716,0.00978,0.486743,43.361642,13.892012,-2.616156,4.63582E+18,0.20874,0.740666,0.268542,-0.57942,-9.988767,-1.013091,-0.446728,0.2186,-0.705946,2.696434,39.045298,-21.098198,10.256416,4.63583E+18,-0.535595,0.344865,-0.627489,-0.447732,0
-6.85197,0.520818,-1.178973,0.140386,0.056589,-0.146935,41.851251,-12.16071,-15.374702,4.63583E+18,-0.312162,0.656698,-0.263055,-0.634117,-8.473782,0.09859,-2.666812,0.096877,0.03533,0.449362,43.447079,13.731468,-2.726037,4.63582E+18,0.209335,0.741296,0.267071,-0.579078,-13.111568,-6.148708,-4.443442,0.427333,-0.877065,2.683261,38.658685,-21.964888,9.812959,4.63583E+18,-0.533313,0.335044,-0.630309,-0.453908,0
-7.34432,0.824522,-1.244937,0.016667,0.101153,-0.165055,41.963907,-12.14423,-15.244911,4.63583E+18,-0.312591,0.656934,-0.262739,-0.633793,-8.767733,0.172782,-2.98518,0.053243,0.044123,0.446239,43.53254,13.549278,-2.433029,4.63582E+18,0.210047,0.741904,0.265723,-0.578662,-10.198689,-8.289727,-0.995994,0.715425,-0.93219,2.571848,38.2282,-22.807505,9.489534,4.63583E+18,-0.531712,0.324723,-0.633304,-0.459091,0
-8.017593,0.903348,-1.094852,-0.068353,0.108128,-0.179204,41.949787,-12.058785,-15.210424,4.63583E+18,-0.312818,0.657313,-0.262169,-0.633523,-8.912329,0.203765,-3.111004,0.010026,0.056201,0.433259,43.606721,13.303262,-2.213289,4.63582E+18,0.210847,0.742486,0.264529,-0.578172,-10.514906,-3.582119,-0.774267,0.724924,-0.782635,2.53753,37.771207,-23.52486,9.456544,4.63583E+18,-0.529721,0.314708,-0.636514,-0.463901,0
-8.699046,1.005258,-0.918358,-0.155349,0.114233,-0.188386,41.963898,-12.075247,-15.326893,4.63583E+18,-0.312823,0.657832,-0.261352,-0.63332,-9.273841,0.362401,-3.236837,-0.03163,0.0502,0.401295,43.630178,13.075084,-2.398242,4.63582E+18,0.211705,0.742979,0.263528,-0.577681,-11.279792,-2.006589,-1.323955,0.434544,-0.75728,2.488183,37.474233,-24.110415,9.416859,4.63583E+18,-0.527312,0.30547,-0.639071,-0.469275,0
-9.287803,1.125207,-0.79886,-0.252384,0.15828,-0.20819,42.044421,-12.058789,-15.405743,4.63583E+18,-0.315076,0.657577,-0.262891,-0.631829,-9.361227,0.625379,-3.20777,-0.054878,0.065564,0.39604,43.702503,12.986826,-2.548546,4.63582E+18,0.212605,0.743482,0.262612,-0.577121,-11.262931,-4.241576,-1.796366,0.341819,-0.730727,2.437738,37.092996,-24.849246,9.24998,4.63583E+18,-0.52475,0.296582,-0.641362,-0.474691,0
-9.757034,1.07964,-0.722816,-0.362707,0.207285,-0.22725,42.12259,-11.835052,-15.362072,4.63583E+18,-0.314716,0.658573,-0.261755,-0.631442,-9.263431,0.786723,-2.900878,-0.109418,0.08496,0.369515,43.728735,12.830946,-2.435917,4.63582E+18,0.213587,0.743952,0.261926,-0.576464,-11.74533,-3.479895,-1.863062,0.326747,-0.734614,2.329479,36.527886,-25.721273,9.091297,4.63583E+18,-0.522334,0.287974,-0.643408,-0.479859,0
-10.092009,0.777975,-0.831753,-0.475349,0.220696,-0.23413,42.348665,-11.60501,-15.165108,4.63583E+18,-0.314056,0.659755,-0.260328,-0.631126,-9.606079,1.297551,-2.354275,-0.184673,0.081428,0.321036,43.873409,12.75583,-2.255589,4.63582E+18,0.21469,0.744292,0.261567,-0.575778,-10.866707,-3.061155,-1.560388,0.142394,-0.675839,2.229705,35.981379,-26.353232,8.868541,4.63583E+18,-0.519685,0.280121,-0.645025,-0.485183,0
-10.212667,0.348367,-0.937389,-0.560081,0.224065,-0.218435,42.430818,-11.535996,-15.051728,4.63583E+18,-0.313131,0.661033,-0.258738,-0.630904,-10.110429,1.723116,-2.088365,-0.274882,0.080839,0.279619,43.860302,12.670385,-2.157938,4.63582E+18,0.215973,0.744503,0.261552,-0.575032,-11.369245,-2.697093,-1.735033,-0.043245,-0.665858,2.125273,35.618781,-26.829302,8.542563,4.63583E+18,-0.516957,0.272943,-0.646105,-0.49072,0
-10.181216,-0.105589,-0.879416,-0.615926,0.240249,-0.186848,41.770566,-11.143087,-15.059004,4.63583E+18,-0.311729,0.662479,-0.256874,-0.630843,-10.346195,1.632298,-2.141978,-0.356179,0.105329,0.260628,43.814181,12.571815,-2.045287,4.63582E+18,0.217435,0.744677,0.261812,-0.574137,-11.084511,-3.504115,-1.754254,-0.179763,-0.670971,2.002604,35.313621,-27.357381,8.30604,4.63583E+18,-0.514295,0.266352,-0.6467,-0.496322,0
-10.14201,-0.482126,-0.844653,-0.655486,0.265429,-0.153943,41.099127,-10.243878,-15.034836,4.63583E+18,-0.310103,0.664002,-0.255028,-0.630791,-10.520634,0.945155,-1.941346,-0.356732,0.118081,0.259973,43.958858,12.402814,-1.864972,4.63582E+18,0.218883,0.744878,0.262085,-0.5732,-11.368326,-3.690679,-1.929215,-0.260097,-0.684474,1.899086,34.984436,-28.020153,8.203173,4.63583E+18,-0.511758,0.260161,-0.646934,-0.501892,0
-10.13942,-0.712219,-0.898168,-0.688825,0.290655,-0.122535,41.258794,-9.370982,-15.044206,4.63583E+18,-0.308274,0.665597,-0.253209,-0.63074,-10.96584,0.245046,-1.347685,-0.265111,0.101153,0.257502,43.93452,12.255335,-1.810364,4.63582E+18,0.220058,0.745118,0.262132,-0.572417,-11.026466,-2.874277,-1.535467,-0.362874,-0.64657,1.790754,34.602036,-28.660316,8.139773,4.63583E+18,-0.5092,0.254537,-0.646871,-0.507429,0
-10.19527,-0.868562,-1.13871,-0.722777,0.316062,-0.082014,41.531674,-9.2665,-15.056661,4.63583E+18,-0.306216,0.667253,-0.251443,-0.630699,-11.157883,0.360448,-1.035757,-0.185359,0.090373,0.263996,43.788931,12.169884,-2.010319,4.63582E+18,0.221012,0.745411,0.261957,-0.571747,-11.43721,-2.501596,-2.051563,-0.447096,-0.593037,1.707573,34.207399,-29.084395,7.839204,4.63583E+18,-0.506554,0.24941,-0.646612,-0.512924,0
-10.295265,-1.015044,-1.347239,-0.742113,0.328763,-0.039473,41.478927,-9.937936,-15.080822,4.63583E+18,-0.303977,0.668917,-0.249757,-0.63069,-10.530645,0.658026,-1.023551,-0.202587,0.10902,0.258189,43.740013,12.097537,-2.273336,4.63582E+18,0.221985,0.745724,0.261859,-0.571006,-12.060914,-2.82066,-2.33768,-0.461054,-0.569987,1.653764,33.784569,-29.481781,7.508999,4.63583E+18,-0.503916,0.24449,-0.646276,-0.518287,0
-10.441487,-1.132432,-1.209829,-0.749385,0.310967,-0.000591,41.659715,-10.397592,-15.100558,4.63583E+18,-0.301633,0.670496,-0.248134,-0.630779,-10.004554,1.03931,-1.041276,-0.262051,0.131038,0.213086,43.823595,12.123727,-2.296165,4.63582E+18,0.22301,0.745985,0.262061,-0.570172,-11.904941,-1.770245,-1.955698,-0.531133,-0.551236,1.599052,33.368717,-30.015281,7.21667,4.63583E+18,-0.501247,0.239889,-0.645733,-0.523674,0
-10.510574,-1.099191,-1.071915,-0.750703,0.276379,0.03277,41.720756,-10.076329,-14.99875,4.63583E+18,-0.299231,0.671945,-0.246552,-0.631001,-9.826073,1.322141,-1.243088,-0.35416,0.156346,0.16173,43.896839,12.26844,-1.92237,4.63582E+18,0.224172,0.746163,0.262665,-0.569206,-11.820785,-0.789482,-1.904164,-0.717984,-0.490113,1.53314,33.023331,-30.463375,6.762464,4.63583E+18,-0.498342,0.235976,-0.644806,-0.529335,0
-10.379694,-1.042566,-1.011146,-0.732662,0.259788,0.044862,41.360816,-9.516636,-14.827859,4.63583E+18,-0.296862,0.67331,-0.245027,-0.631259,-9.727546,1.282998,-1.570674,-0.433725,0.178044,0.117767,43.971944,12.242271,-1.682752,4.63582E+18,0.225452,0.746267,0.263614,-0.568124,-12.241081,-1.089183,-2.480836,-0.843449,-0.468898,1.476107,32.652493,-30.857995,6.27566,4.63583E+18,-0.495356,0.232509,-0.643553,-0.535165,0
-10.159956,-1.073986,-0.787536,-0.697459,0.28076,0.034682,41.650547,-9.706905,-14.744208,4.63583E+18,-0.294596,0.674691,-0.243589,-0.631403,-9.562252,0.860594,-2.024208,-0.462104,0.187013,0.084982,44.070478,12.097537,-1.672414,4.63582E+18,0.226731,0.746328,0.264738,-0.567011,-12.041781,-1.385425,-2.41292,-0.936623,-0.474551,1.427326,32.36732,-31.232821,6.064579,4.63583E+18,-0.49238,0.229335,-0.641997,-0.541117,0
-10.027487,-1.120477,-0.65193,-0.666847,0.310508,0.01314,42.272069,-10.169745,-14.734336,4.63583E+18,-0.292441,0.67613,-0.242204,-0.631398,-9.427984,0.318526,-2.465629,-0.446772,0.177499,0.055806,44.215214,12.084462,-1.627587,4.63582E+18,0.227903,0.746345,0.265907,-0.56597,-11.830257,-0.224077,-1.897215,-1.108146,-0.469141,1.37786,32.151157,-31.602186,5.672083,4.63583E+18,-0.489311,0.226641,-0.63998,-0.547389,0
-9.954244,-1.171638,-0.741502,-0.621288,0.30645,-0.012699,41.887959,-9.714183,-14.639827,4.63583E+18,-0.290485,0.677524,-0.240857,-0.631322,-9.254479,0.189315,-2.781154,-0.398139,0.151122,0.035272,44.20214,11.987803,-1.351419,4.63582E+18,0.228904,0.746322,0.266999,-0.565082,-11.586548,0.65671,-1.734313,-1.328582,-0.443631,1.326572,31.912521,-32.10224,5.057095,4.63583E+18,-0.486053,0.224577,-0.637422,-0.554086,0
-9.902807,-1.269031,-0.68936,-0.551926,0.284222,-0.036223,41.44207,-9.168838,-14.524746,4.63583E+18,-0.288808,0.678795,-0.239597,-0.631206,-8.918008,0.583954,-3.125563,-0.346016,0.129007,0.009135,44.092408,11.851521,-1.196326,4.63582E+18,0.229705,0.746265,0.268028,-0.564345,-11.413485,0.623955,-1.579843,-1.547109,-0.447497,1.274644,31.485731,-32.655525,4.539777,4.63583E+18,-0.482688,0.223066,-0.634257,-0.561224,0
-9.815309,-1.391087,-0.501338,-0.486275,0.280034,-0.058855,41.84364,-9.266358,-14.541069,4.63583E+18,-0.28738,0.679996,-0.238439,-0.631004,-8.898195,0.706162,-3.6348,-0.327595,0.120788,-0.008446,43.861337,11.854254,-1.211266,4.63582E+18,0.230416,0.746186,0.269059,-0.563669,-11.406802,1.063639,-1.325015,-1.79069,-0.450116,1.216614,31.033621,-33.085186,4.024161,4.63583E+18,-0.479204,0.222172,-0.630411,-0.568845,0
-9.693246,-1.498614,-0.4854,-0.428804,0.283695,-0.081716,42.045477,-9.101728,-14.473893,4.63583E+18,-0.28617,0.681158,-0.237369,-0.630703,-8.954635,0.787273,-3.792922,-0.327418,0.116503,-0.025309,43.775442,11.939697,-1.293985,4.63582E+18,0.231091,0.746076,0.270138,-0.563021,-11.283856,1.003163,-1.121543,-2.047788,-0.436969,1.159267,30.678743,-33.243875,3.405165,4.63583E+18,-0.475543,0.221949,-0.625869,-0.576962,0
-9.585701,-1.559938,-0.590335,-0.371553,0.265684,-0.097152,41.930381,-8.753828,-14.412004,4.63583E+18,-0.285181,0.682218,-0.236384,-0.630376,-8.966538,1.251059,-3.619143,-0.33369,0.122837,-0.019907,44.07044,12.012085,-1.279054,4.63582E+18,0.231791,0.74598,0.27122,-0.56234,-11.19952,-0.13026,-1.325944,-2.220134,-0.42689,1.111088,30.426402,-33.506426,2.847665,4.63583E+18,-0.471767,0.222189,-0.620822,-0.585361,0
-9.488051,-1.58929,-0.576646,-0.319601,0.248064,-0.107197,42.092025,-8.902138,-14.467814,4.63583E+18,-0.284383,0.683178,-0.235484,-0.630033,-9.310751,0.807941,-3.465347,-0.306388,0.118918,0.004082,44.176025,12.025148,-1.166468,4.63582E+18,0.232465,0.745927,0.272159,-0.561678,-10.999984,-1.09733,-1.343705,-2.293429,-0.421686,1.073742,30.154291,-33.930582,2.202454,4.63583E+18,-0.467952,0.222653,-0.615501,-0.593805,0
-9.404934,-1.591904,-0.551658,-0.289977,0.259229,-0.108544,41.985625,-8.917512,-14.393403,4.63583E+18,-0.283662,0.684133,-0.234671,-0.629625,-9.958015,-0.394871,-3.098483,-0.221405,0.089858,0.034373,43.94767,12.097537,-0.987953,4.63582E+18,0.232979,0.745921,0.272776,-0.561173,-10.752969,-1.189233,-1.173255,-2.330852,-0.3958,1.029639,29.796742,-34.247962,1.396126,4.63583E+18,-0.464094,0.22334,-0.610024,-0.602169,0
-9.331684,-1.550627,-0.852221,-0.282423,0.290793,-0.102364,41.524616,-8.377725,-14.217546,4.63583E+18,-0.282915,0.685155,-0.233931,-0.629124,-10.24693,-0.719561,-2.552708,-0.105006,0.044403,0.081312,43.90986,12.058374,-0.898771,4.63582E+18,0.233293,0.745976,0.272931,-0.560895,-10.434471,-1.106199,-0.973507,-2.355925,-0.357369,0.97946,29.437633,-34.565328,0.719649,4.63583E+18,-0.46019,0.22427,-0.60444,-0.610393,0
-9.316575,-1.489592,-1.267839,-0.287078,0.311213,-0.091072,41.561861,-8.081301,-14.213781,4.63583E+18,-0.282105,0.686224,-0.233235,-0.628581,-10.009582,-0.467965,-2.195645,-0.041984,0.019627,0.108683,44.033125,11.82813,-0.820604,4.63582E+18,0.233503,0.746064,0.272829,-0.56074,-10.319022,-1.307688,-0.834778,-2.34001,-0.323069,0.925024,29.217445,-34.854768,0.098207,4.63583E+18,-0.456307,0.225365,-0.598842,-0.618371,0
-9.457247,-1.428558,-1.350664,-0.296258,0.303659,-0.073372,41.82663,-8.226624,-14.250981,4.63583E+18,-0.28123,0.687266,-0.232556,-0.628087,-9.664539,-0.240217,-2.034084,-0.042002,0.027609,0.127417,43.958031,11.768765,-0.88845,4.63582E+18,0.233747,0.746192,0.272677,-0.560542,-10.307961,-1.718715,-0.729142,-2.228027,-0.318476,0.865582,29.042562,-35.062736,-0.678326,4.63583E+18,-0.452625,0.226381,-0.593419,-0.625888,0
-9.662447,-1.338456,-1.168136,-0.310322,0.278711,-0.049262,41.801348,-8.369046,-14.129781,4.63583E+18,-0.280275,0.688235,-0.231879,-0.627703,-9.660619,-0.365195,-1.93166,-0.029925,0.023769,0.142789,43.89866,11.854225,-0.805689,4.63582E+18,0.233995,0.74634,0.272444,-0.560354,-10.061967,-1.690518,-0.515305,-2.041461,-0.33546,0.807501,28.891405,-35.249339,-1.396795,4.63583E+18,-0.449273,0.227121,-0.58834,-0.632792,0
-9.77783,-1.264927,-1.052458,-0.324868,0.260681,-0.03019,41.73711,-8.449544,-13.992606,4.63583E+18,-0.279245,0.689154,-0.231196,-0.627406,-9.720178,-0.395585,-1.87994,-0.019137,0.006336,0.154538,43.997151,11.889369,-0.820594,4.63582E+18,0.234256,0.746471,0.272133,-0.560222,-9.709583,-0.723086,-0.044622,-1.923407,-0.321308,0.754114,28.754077,-35.465554,-1.860676,4.63583E+18,-0.446107,0.227786,-0.5835,-0.639241,0
-9.758966,-1.208839,-1.037629,-0.336413,0.269702,-0.029652,41.73711,-8.433303,-13.894956,4.63583E+18,-0.278172,0.690108,-0.230494,-0.627091,-9.474364,-0.186198,-1.889255,-0.036631,0.001793,0.161071,44.155013,11.656402,-0.901485,4.63582E+18,0.234592,0.746581,0.271837,-0.560078,-9.699709,-0.103741,0.450013,-1.861848,-0.304094,0.696827,28.478017,-35.572372,-2.4203,4.63583E+18,-0.443082,0.228503,-0.578758,-0.645371,0
-9.69298,-1.249495,-1.066686,-0.345824,0.287049,-0.042011,41.686263,-8.30426,-13.804554,4.63583E+18,-0.277087,0.69113,-0.229752,-0.626719,-9.115306,0.024301,-1.969016,-0.118658,0.016656,0.138629,44.214336,11.524666,-0.89301,4.63582E+18,0.235114,0.74662,0.271817,-0.559817,-9.818742,-0.516869,0.654494,-1.783777,-0.301567,0.635247,28.188088,-35.572372,-3.145211,4.63583E+18,-0.440262,0.229216,-0.574131,-0.651155,0
-9.631949,-1.344825,-1.115511,-0.344836,0.28314,-0.048702,41.847759,-8.189157,-13.661007,4.63583E+18,-0.276026,0.692145,-0.228987,-0.626346,-8.969579,0.147482,-2.153993,-0.202043,0.043467,0.119142,44.128888,11.597034,-0.903348,4.63582E+18,0.23582,0.746617,0.272078,-0.559397,-9.743169,-0.999583,0.736197,-1.684331,-0.295303,0.575016,28.036889,-35.652173,-3.772518,4.63583E+18,-0.43766,0.229893,-0.569692,-0.656547,0
-9.4983,-1.415745,-1.062671,-0.334182,0.275379,-0.047229,42.126493,-8.103713,-13.536007,4.63583E+18,-0.274999,0.693126,-0.228244,-0.625985,-9.002593,0.04436,-2.381044,-0.197718,0.036101,0.114794,44.056519,11.570884,-0.90148,4.63582E+18,0.23651,0.746596,0.272335,-0.559009,-9.490833,-1.251199,0.745135,-1.575444,-0.276037,0.521944,27.923528,-35.892304,-4.333991,4.63583E+18,-0.435242,0.230538,-0.565504,-0.66153,0
-9.336985,-1.4913,-0.88978,-0.3112,0.284679,-0.040212,42.080189,-8.018267,-13.443301,4.63583E+18,-0.27401,0.694096,-0.227591,-0.625581,-8.861841,-0.104663,-2.722251,-0.166643,0.004524,0.104276,44.069593,11.439204,-0.863123,4.63582E+18,0.237115,0.746519,0.272521,-0.558764,-9.27063,-1.588504,0.647971,-1.399027,-0.258293,0.475583,27.752638,-36.072388,-4.863586,4.63583E+18,-0.433061,0.231009,-0.561764,-0.665969,0
-9.299407,-1.569487,-0.776648,-0.276212,0.279534,-0.032505,41.886875,-7.881998,-13.294824,4.63583E+18,-0.273108,0.695005,-0.227045,-0.625164,-8.61583,0.643354,-2.785749,-0.162235,0.004739,0.095316,44.141972,11.511581,-0.708029,4.63582E+18,0.237686,0.746437,0.272724,-0.558532,-9.115677,-1.783504,0.533383,-1.17112,-0.233747,0.439572,27.609648,-36.097782,-5.235753,4.63583E+18,-0.43113,0.231213,-0.558646,-0.669763,0
-9.270692,-1.59191,-0.756859,-0.243478,0.237009,-0.03499,41.967751,-7.812738,-13.104467,4.63583E+18,-0.272346,0.695769,-0.226528,-0.624835,-8.381896,2.484959,-3.292209,-0.231037,0.044694,0.091446,44.128907,11.498517,-0.736025,4.63582E+18,0.238415,0.746375,0.273139,-0.558102,-9.085311,-1.464839,0.536388,-0.966704,-0.207742,0.408946,27.500277,-36.076372,-5.390947,4.63583E+18,-0.429415,0.231186,-0.556102,-0.672983,0
-9.124849,-1.579703,-0.713301,-0.238776,0.193302,-0.049887,42.161087,-7.957931,-13.076117,4.63583E+18,-0.271678,0.696426,-0.225929,-0.62461,-8.398941,2.827033,-4.146784,-0.398754,0.12413,0.096698,44.082647,11.427996,-0.87621,4.63582E+18,0.239588,0.746335,0.274006,-0.557227,-9.2998,-0.966377,0.61037,-0.824566,-0.183525,0.375203,27.313691,-36.161817,-5.544404,4.63583E+18,-0.42787,0.231044,-0.553958,-0.675778,0
-8.907757,-1.574755,-0.719912,-0.261958,0.181354,-0.07229,42.181852,-8.064145,-13.226902,4.63583E+18,-0.271012,0.697101,-0.225192,-0.624413,-9.096771,1.340169,-4.03093,-0.456405,0.13905,0.109339,44.238618,11.436471,-0.750561,4.63582E+18,0.240952,0.746285,0.27498,-0.556225,-9.513802,-0.777039,0.618342,-0.72525,-0.160026,0.331104,27.093459,-36.243281,-5.908634,4.63583E+18,-0.426485,0.230892,-0.552085,-0.678234,0
-8.72664,-1.538461,-0.75191,-0.282136,0.183288,-0.096856,42.101352,-7.916658,-13.255258,4.63583E+18,-0.27035,0.697825,-0.224332,-0.6242,-9.610785,0.391484,-3.427065,-0.393732,0.113328,0.134468,44.276424,11.388832,-0.510846,4.63582E+18,0.242208,0.746265,0.275705,-0.555348,-9.445547,-0.869208,0.638771,-0.613667,-0.141759,0.29069,26.97039,-36.240797,-6.442253,4.63583E+18,-0.425272,0.230687,-0.550513,-0.680341,0
-8.70355,-1.368542,-0.597165,-0.305116,0.203411,-0.111261,42.161075,-7.761926,-13.111736,4.63583E+18,-0.269639,0.698641,-0.223393,-0.623932,-9.754733,0.454557,-2.961994,-0.326156,0.096296,0.168648,44.119593,11.142819,-0.470665,4.63582E+18,0.243351,0.746311,0.276148,-0.554565,-9.454218,-0.973621,0.635038,-0.474951,-0.138815,0.270701,26.953947,-36.082114,-6.766886,4.63583E+18,-0.424238,0.23029,-0.549315,-0.682087,0
-8.829892,-1.109914,-0.568124,-0.353435,0.235884,-0.107307,42.276207,-7.778086,-12.979451,4.63583E+18,-0.268747,0.699591,-0.222375,-0.623616,-9.692678,0.378604,-2.67106,-0.287451,0.093775,0.199402,44.006668,10.938678,-0.292133,4.63582E+18,0.244448,0.746424,0.276403,-0.553802,-9.800264,-0.615692,0.634278,-0.331642,-0.144875,0.245287,26.930039,-35.979202,-6.711354,4.63583E+18,-0.42343,0.229677,-0.548486,-0.68346,0
-9.051589,-0.906669,-0.992672,-0.419397,0.251418,-0.086033,42.260062,-7.761941,-12.939848,4.63583E+18,-0.267592,0.700634,-0.221265,-0.623336,-9.692678,0.301914,-2.293319,-0.254089,0.071183,0.208379,44.09295,11.05021,-0.219733,4.63582E+18,0.245488,0.746529,0.276529,-0.553138,-9.98642,0.137407,0.743377,-0.218853,-0.150216,0.200731,26.824924,-35.959537,-6.639553,4.63583E+18,-0.42287,0.228951,-0.547926,-0.6845,0
-9.40956,-0.813281,-1.397559,-0.506611,0.222035,-0.05318,42.131062,-7.582139,-12.947105,4.63583E+18,-0.266124,0.701666,-0.219989,-0.623256,-9.65541,0.736246,-2.150366,-0.236011,0.054858,0.199361,44.238602,11.267433,-0.219733,4.63582E+18,0.246469,0.746603,0.276624,-0.552554,-9.928344,0.765972,0.874692,-0.14247,-0.164966,0.164349,26.658017,-35.957738,-6.854515,4.63583E+18,-0.422517,0.228132,-0.547521,-0.685314,0
-9.836788,-0.85879,-1.414433,-0.586258,0.178589,-0.0175,42.161045,-7.388804,-12.959311,4.63583E+18,-0.26437,0.702638,-0.218561,-0.62341,-9.429898,1.467841,-2.181205,-0.291362,0.079824,0.174395,44.30253,11.241349,-0.189922,4.63582E+18,0.247536,0.746647,0.27695,-0.551854,-10.017006,1.197473,0.875208,-0.101171,-0.192873,0.133047,26.527203,-36.172456,-7.039688,4.63583E+18,-0.422355,0.227235,-0.547153,-0.686006,0
-10.104397,-0.990418,-1.253439,-0.629624,0.174855,0.005049,42.370524,-7.317186,-12.848168,4.63583E+18,-0.262432,0.703624,-0.21708,-0.623634,-9.324594,1.976156,-2.291268,-0.417843,0.109838,0.139005,44.312874,11.070463,-0.011381,4.63582E+18,0.24888,0.746588,0.277706,-0.550949,-10.164007,1.477096,0.78257,-0.088815,-0.208524,0.103049,26.505736,-36.429838,-7.031464,4.63583E+18,-0.422328,0.226338,-0.546764,-0.686629,0
-10.284861,-1.11514,-1.155095,-0.670729,0.20297,0.020205,42.563883,-7.363026,-12.768944,4.63583E+18,-0.260307,0.70471,-0.215565,-0.623824,-9.357074,1.627937,-2.283611,-0.507732,0.11842,0.090286,44.288669,10.914454,0.048003,4.63582E+18,0.250381,0.746396,0.278827,-0.549961,-10.233786,1.433297,0.611419,-0.06116,-0.227006,0.082037,26.563309,-36.536758,-7.031464,4.63583E+18,-0.42243,0.225387,-0.546402,-0.687167,0
-10.53095,-1.232253,-1.120778,-0.701249,0.201598,0.038765,42.533937,-7.303371,-12.776199,4.63583E+18,-0.258045,0.705804,-0.214021,-0.624058,-9.602466,1.233985,-2.387678,-0.539415,0.102489,0.041206,44.154179,10.83935,-0.037447,4.63582E+18,0.251886,0.746075,0.280156,-0.549034,-10.245993,1.394583,0.520675,-0.025144,-0.246976,0.065225,26.563309,-36.512865,-7.031464,4.63583E+18,-0.42266,0.224353,-0.546091,-0.687611,0
-10.724654,-1.36883,-0.958531,-0.712625,0.170251,0.046364,42.23016,-7.043121,-12.781151,4.63583E+18,-0.255755,0.706818,-0.212433,-0.624396,-9.632686,1.251912,-2.589602,-0.535833,0.082756,0.011698,44.178365,10.76693,-0.054052,4.63582E+18,0.253333,0.745674,0.281545,-0.548201,-10.242272,1.672747,0.576948,-0.000788,-0.25675,0.054218,26.563309,-36.435638,-7.031464,4.63583E+18,-0.422968,0.223274,-0.545822,-0.687987,0
-10.66308,-1.55883,-0.818251,-0.720102,0.161662,0.037679,42.161007,-7.054461,-12.723123,4.63583E+18,-0.253473,0.707819,-0.210787,-0.62475,-9.559441,1.802877,-2.780971,-0.522915,0.075005,-0.010804,44.350084,10.779953,0.301007,4.63582E+18,0.254698,0.74524,0.282965,-0.547428,-10.173814,2.157778,0.66716,0.00815,-0.253499,0.043121,26.559329,-36.326319,-7.095148,4.63583E+18,-0.423308,0.222213,-0.545573,-0.688318,0
-10.373483,-1.764047,-0.836999,-0.712982,0.190948,0.024429,42.805643,-7.545198,-12.668986,4.63583E+18,-0.251218,0.708896,-0.20915,-0.62499,-9.475037,2.418695,-3.067547,-0.57796,0.085666,-0.040295,44.532839,10.852382,0.504687,4.63582E+18,0.256152,0.744733,0.284612,-0.546584,-10.079335,2.37355,0.643812,0.018715,-0.256309,0.040566,26.471496,-36.223344,-7.254645,4.63583E+18,-0.42367,0.221134,-0.545345,-0.688624,0
-10.099251,-1.857824,-0.997279,-0.687641,0.217808,0.010976,43.158483,-7.812738,-12.608307,4.63583E+18,-0.249048,0.710023,-0.207564,-0.625107,-9.322986,2.49663,-3.235768,-0.683696,0.10598,-0.075031,44.398327,10.863536,0.256355,4.63582E+18,0.257829,0.744114,0.286627,-0.545585,-10.071108,2.262349,0.529706,0.040773,-0.257146,0.04377,26.310933,-36.283303,-7.2804,4.63583E+18,-0.424044,0.220007,-0.545181,-0.688884,0
-9.894024,-1.845974,-1.246024,-0.650953,0.216695,-0.009256,42.69358,-7.471849,-12.580878,4.63583E+18,-0.24704,0.711123,-0.206009,-0.625169,-9.164042,2.059023,-3.272885,-0.77887,0.112573,-0.115734,44.420635,10.938639,0.328857,4.63582E+18,0.259699,0.743352,0.288988,-0.54449,-10.035312,2.274554,0.447972,0.0674,-0.248207,0.049063,26.343026,-36.362429,-7.218553,4.63583E+18,-0.424408,0.218846,-0.545114,-0.689083,0
-9.763988,-1.787598,-1.398534,-0.62052,0.202609,-0.042705,42.679144,-7.137461,-12.593085,4.63583E+18,-0.245219,0.712179,-0.204419,-0.625206,-9.169368,1.61876,-3.083701,-0.804777,0.107487,-0.134679,44.546674,10.986914,0.734303,4.63582E+18,0.26161,0.742521,0.291458,-0.543393,-9.941354,2.342444,0.426984,0.099469,-0.244606,0.054152,26.316837,-36.304817,-7.222805,4.63583E+18,-0.424778,0.217628,-0.545149,-0.689212,0
-9.67854,-1.634591,-1.486278,-0.602732,0.19527,-0.085397,42.828892,-6.923057,-12.54728,4.63583E+18,-0.243567,0.71323,-0.202738,-0.6252,-9.360688,1.028084,-3.154816,-0.761033,0.094299,-0.125833,44.519871,10.826376,0.70007,4.63582E+18,0.263418,0.74171,0.293784,-0.542373,-9.832597,2.597132,0.487466,0.111977,-0.244954,0.045008,26.132627,-36.356516,-7.242413,4.63583E+18,-0.425186,0.216408,-0.54521,-0.689297,0
-9.636597,-1.448819,-1.620195,-0.595191,0.195037,-0.133432,41.928977,-6.483118,-12.403816,4.63583E+18,-0.242063,0.71431,-0.200932,-0.625134,-9.638009,0.089967,-3.288835,-0.645418,0.057448,-0.102589,44.312874,10.705626,0.466534,4.63582E+18,0.264965,0.740966,0.295733,-0.541577,-9.625089,2.920426,0.589372,0.083957,-0.246718,0.024043,26.154531,-36.5152,-7.33581,4.63583E+18,-0.425632,0.215282,-0.545167,-0.689408,0
-9.646139,-1.328694,-1.75711,-0.60721,0.195471,-0.175379,41.240032,-6.148706,-12.220744,4.63583E+18,-0.24063,0.715435,-0.198969,-0.625029,-9.721077,-0.237258,-3.081313,-0.500314,0.004482,-0.076443,44.324018,10.879178,0.577193,4.63582E+18,0.266186,0.74029,0.297213,-0.541091,-9.405635,3.003581,0.650968,0.046224,-0.253401,-0.000524,26.370848,-36.618234,-7.409894,4.63583E+18,-0.426131,0.214259,-0.544982,-0.689565,0
-9.64156,-1.279489,-1.82844,-0.635347,0.187226,-0.193935,41.893121,-6.325718,-12.20435,4.63583E+18,-0.239168,0.716578,-0.196867,-0.624946,-9.577529,0.138207,-2.883089,-0.412724,-0.018808,-0.061141,44.410249,11.109522,0.732444,4.63582E+18,0.267201,0.739675,0.298422,-0.540767,-9.181373,2.906487,0.702929,0.011599,-0.261025,-0.026134,26.45003,-36.586149,-7.409894,4.63583E+18,-0.42669,0.213334,-0.54466,-0.68976,0
-9.537421,-1.26957,-1.872309,-0.662952,0.172707,-0.185124,42.674013,-6.494339,-12.359989,4.63583E+18,-0.237612,0.717699,-0.194703,-0.624932,-9.402629,0.51535,-2.731035,-0.413323,-0.022269,-0.057749,44.520689,11.143008,0.747291,4.63582E+18,0.268228,0.739055,0.299616,-0.540446,-9.026098,2.752061,0.76566,-0.006061,-0.25638,-0.055643,26.364585,-36.485092,-7.46951,4.63583E+18,-0.427307,0.212522,-0.544268,-0.689938,0
-9.378733,-1.313052,-1.899395,-0.693859,0.181216,-0.160191,42.625999,-6.204455,-12.446591,4.63583E+18,-0.235889,0.718847,-0.192539,-0.624935,-9.350871,0.570347,-2.553509,-0.440118,-0.022986,-0.066361,44.362012,10.925626,0.815268,4.63582E+18,0.269319,0.738389,0.300896,-0.540102,-8.84895,2.640774,0.696106,-0.01473,-0.247959,-0.09119,26.275159,-36.354216,-7.656595,4.63583E+18,-0.427997,0.211833,-0.543834,-0.690065,0
-9.328743,-1.451521,-1.831884,-0.714523,0.20071,-0.119303,42.268925,-5.708912,-12.292115,4.63583E+18,-0.233982,0.720028,-0.190461,-0.624929,-9.332342,0.400228,-2.41445,-0.456128,-0.033017,-0.079691,44.214451,10.962685,0.717621,4.63582E+18,0.270442,0.737664,0.30224,-0.539781,-8.471391,2.649007,0.71512,-0.047046,-0.2263,-0.128996,26.185452,-36.253157,-7.788323,4.63583E+18,-0.428717,0.211352,-0.543311,-0.690178,0
-9.367648,-1.634619,-1.775035,-0.708085,0.205319,-0.070806,42.328358,-5.505539,-12.190235,4.63583E+18,-0.231962,0.721172,-0.188547,-0.624944,-9.232501,0.348875,-2.350133,-0.438192,-0.038939,-0.082505,44.153083,11.169774,0.664416,4.63582E+18,0.27151,0.736941,0.303544,-0.539502,-8.111132,2.533791,0.837472,-0.076136,-0.19786,-0.159995,26.132078,-36.146122,-7.820107,4.63583E+18,-0.429436,0.211075,-0.542727,-0.690275,0
-9.336774,-1.788738,-1.748337,-0.677247,0.198944,-0.034787,42.602261,-5.599732,-12.18795,4.63583E+18,-0.229945,0.722236,-0.186814,-0.624981,-9.281006,0.573095,-2.455541,-0.397761,-0.042955,-0.075867,44.226332,11.182745,0.872721,4.63582E+18,0.272473,0.73626,0.304731,-0.539276,-8.015714,2.175804,0.970888,-0.07666,-0.165815,-0.188487,26.207274,-36.221608,-7.854199,4.63583E+18,-0.430164,0.210957,-0.542173,-0.690293,0
-9.229585,-1.8723,-1.675486,-0.637092,0.201177,-0.012087,42.658024,-5.620761,-12.132269,4.63583E+18,-0.227987,0.723245,-0.185253,-0.624996,-9.456692,0.80898,-2.462192,-0.361484,-0.050689,-0.061659,44.28846,11.28115,1.110874,4.63582E+18,0.273367,0.735619,0.305784,-0.539103,-8.092638,1.936715,1.158543,-0.061732,-0.136553,-0.217996,26.431841,-36.401897,-7.792296,4.63583E+18,-0.430926,0.210962,-0.541689,-0.690196,0
-9.078541,-1.928371,-1.758953,-0.615523,0.216495,-0.003639,42.671721,-5.590991,-12.097537,4.63583E+18,-0.226059,0.724263,-0.183786,-0.62495,-9.594673,0.555925,-2.439629,-0.33798,-0.058592,-0.046447,44.30142,11.413169,1.096062,4.63582E+18,0.274233,0.735005,0.306726,-0.538965,-8.123067,1.945242,1.324878,-0.04638,-0.109581,-0.251106,26.511095,-36.427477,-7.828331,4.63583E+18,-0.431736,0.211092,-0.541268,-0.689981,0
-8.95111,-2.003894,-1.937492,-0.602541,0.216071,-0.003838,42.846379,-5.634456,-12.15549,4.63583E+18,-0.224169,0.725265,-0.182351,-0.62489,-9.718199,0.283023,-2.423723,-0.287816,-0.087102,-0.03609,44.375763,11.290721,1.000263,4.63582E+18,0.275004,0.734396,0.307492,-0.538965,-7.988785,1.833454,1.528432,-0.020731,-0.079917,-0.281786,26.477272,-36.302605,-7.889954,4.63583E+18,-0.432588,0.211333,-0.540946,-0.689625,0
-8.947625,-2.045881,-2.002014,-0.563699,0.193945,-0.003639,42.902181,-5.570061,-12.02858,4.63583E+18,-0.222412,0.726169,-0.180995,-0.624861,-9.641256,0.886711,-2.422251,-0.266617,-0.08147,-0.025926,44.37317,11.035128,0.955513,4.63582E+18,0.275727,0.733837,0.308184,-0.538963,-7.902161,1.623879,1.676091,0.047641,-0.060318,-0.309505,26.57831,-36.118325,-7.838625,4.63583E+18,-0.433537,0.21157,-0.540831,-0.689047,0
-9.066604,-1.978411,-1.987528,-0.51303,0.173146,-0.004472,42.872402,-5.404133,-11.972372,4.63583E+18,-0.220825,0.726971,-0.179748,-0.624852,-9.530665,1.044699,-2.573179,-0.302091,-0.064833,-0.008319,44.272935,11.219691,1.110874,4.63582E+18,0.276577,0.733295,0.30892,-0.538843,-7.918337,1.75003,1.724916,0.135456,-0.042161,-0.347105,26.736993,-36.032879,-7.715079,4.63583E+18,-0.43463,0.211786,-0.540967,-0.688185,0
-9.254263,-1.899799,-1.977599,-0.483978,0.171701,-0.005974,42.966557,-5.436033,-12.178667,4.63583E+18,-0.219331,0.727741,-0.178569,-0.62482,-9.371589,0.537126,-2.471825,-0.314423,-0.063506,-0.000906,44.119403,11.462403,1.066509,4.63582E+18,0.277479,0.732751,0.309663,-0.538693,-7.918932,2.166271,1.777716,0.188533,-0.025392,-0.398672,26.81629,-35.975216,-7.746839,4.63583E+18,-0.435878,0.212071,-0.541238,-0.687094,0
-9.490742,-1.756829,-2.042776,-0.467324,0.166939,-0.003241,43.125241,-5.599683,-12.176986,4.63583E+18,-0.217883,0.72848,-0.177437,-0.624788,-9.347176,0.553753,-2.384864,-0.32549,-0.065579,0.000647,44.144544,11.218276,0.834524,4.63582E+18,0.278421,0.73219,0.310422,-0.538532,-7.874074,2.344718,1.826842,0.221357,-0.013591,-0.455281,26.834049,-35.923612,-7.816708,4.63583E+18,-0.437286,0.212462,-0.541572,-0.685814,0
-9.747085,-1.520348,-2.101948,-0.460372,0.144817,0.000833,43.146344,-5.613547,-11.815129,4.63583E+18,-0.216461,0.729151,-0.176314,-0.624818,-9.319061,0.628505,-2.496591,-0.340998,-0.061953,0.00589,44.238514,11.024019,0.970284,4.63582E+18,0.279418,0.731625,0.311203,-0.538333,-7.817612,2.246766,1.839349,0.275186,-0.006809,-0.51293,27.069939,-35.76493,-7.733669,4.63583E+18,-0.43889,0.212904,-0.542019,-0.684297,0
-9.952739,-1.271252,-2.024996,-0.47621,0.124015,0.000869,43.022423,-5.433976,-11.628688,4.63583E+18,-0.215005,0.72978,-0.17513,-0.624919,-9.275778,0.515676,-2.624208,-0.333717,-0.06357,0.016086,44.263696,11.094681,1.208533,4.63582E+18,0.280417,0.731077,0.311934,-0.538136,-7.684236,2.157647,1.815236,0.31353,0.003046,-0.570316,27.286308,-35.657825,-7.484647,4.63583E+18,-0.440668,0.213433,-0.54254,-0.682575,0
-10.080196,-1.179151,-2.001591,-0.499112,0.113695,0.0019,42.899933,-5.18984,-11.80741,4.63583E+18,-0.213483,0.7304,-0.173879,-0.625065,-9.254335,0.484202,-2.78843,-0.317015,-0.074412,0.021785,44.054671,11.110184,1.193755,4.63582E+18,0.281393,0.73053,0.312597,-0.537985,-7.488622,1.936376,1.738632,0.34384,0.022272,-0.626125,27.365637,-35.582432,-7.329319,4.63583E+18,-0.442584,0.214087,-0.543129,-0.680659,0
-10.141657,-1.256516,-2.062628,-0.508637,0.101585,0.012707,42.860191,-5.039809,-11.933873,4.63583E+18,-0.211913,0.730988,-0.172625,-0.62526,-9.177397,0.64804,-2.965275,-0.310409,-0.085515,0.017189,44.081258,11.294019,1.110874,4.63582E+18,0.282353,0.729959,0.313245,-0.53788,-7.282029,1.497251,1.624197,0.41014,0.043233,-0.687058,27.383335,-35.318773,-7.330845,4.63583E+18,-0.444678,0.214818,-0.543885,-0.678457,0
-10.14208,-1.429268,-2.094706,-0.49367,0.073527,0.028729,42.91087,-5.055714,-11.880922,4.63583E+18,-0.210365,0.731476,-0.171433,-0.62554,-9.079739,0.957316,-3.007118,-0.311611,-0.092022,0.012073,44.301389,11.472793,1.110874,4.63582E+18,0.283313,0.729363,0.313902,-0.537799,-6.98539,1.10081,1.55492,0.498102,0.07023,-0.745058,27.69065,-35.068514,-7.474898,4.63583E+18,-0.446944,0.215597,-0.54488,-0.675918,0
-10.074227,-1.651274,-2.041755,-0.455563,0.03911,0.044751,42.945644,-5.141166,-11.833941,4.63583E+18,-0.208916,0.731828,-0.170358,-0.625907,-9.059615,1.078781,-2.871005,-0.285415,-0.097451,0.014855,44.349917,11.218309,1.097953,4.63582E+18,0.284208,0.72879,0.314486,-0.537764,-6.675647,0.856372,1.517684,0.588432,0.103313,-0.808714,28.110868,-35.010834,-7.364154,4.63583E+18,-0.449388,0.216445,-0.546125,-0.673015,0
-9.867971,-1.818056,-1.944096,-0.400131,0.021835,0.055705,42.945644,-5.175939,-11.828974,4.63583E+18,-0.207619,0.732079,-0.169444,-0.626294,-9.48205,0.765499,-2.724516,-0.19677,-0.126552,0.024171,44.215214,11.023999,1.038343,4.63582E+18,0.284892,0.728267,0.314807,-0.537922,-6.430912,0.597033,1.517997,0.69397,0.137515,-0.881948,28.337348,-34.983084,-6.962314,4.63583E+18,-0.452047,0.217354,-0.547655,-0.66969,0
-9.572743,-1.889449,-1.926072,-0.359085,0.034428,0.055581,43.046988,-5.270045,-11.828974,4.63583E+18,-0.206438,0.732326,-0.168648,-0.62661,-9.8924,0.395462,-2.59464,-0.080146,-0.150796,0.050614,44.228133,11.107604,1.08319,4.63582E+18,0.285315,0.727862,0.314757,-0.538275,-6.211809,0.286939,1.469797,0.817446,0.173375,-0.966943,28.448658,-34.873847,-6.553616,4.63583E+18,-0.454962,0.218321,-0.549508,-0.665873,0
-9.332717,-1.904355,-2.064028,-0.339983,0.052462,0.050241,43.116547,-5.283967,-11.771067,4.63583E+18,-0.205315,0.732607,-0.167901,-0.62685,-9.972745,0.418568,-2.550644,0.014132,-0.172418,0.07852,44.300667,11.182685,0.898253,4.63582E+18,0.285543,0.727557,0.314385,-0.538783,-5.998748,0.046764,1.380069,0.953623,0.213353,-1.06507,28.766038,-34.687412,-6.285064,4.63583E+18,-0.458165,0.219363,-0.551707,-0.661501,0
-9.209787,-1.933305,-2.126791,-0.307733,0.058947,0.0525,43.015223,-5.053772,-11.68789,4.63583E+18,-0.20428,0.732877,-0.167249,-0.627048,-9.86885,0.853204,-2.441216,0.03355,-0.185958,0.08775,44.311733,11.24416,0.761954,4.63582E+18,0.285751,0.727257,0.313925,-0.539347,-5.916947,-0.125717,1.306831,1.099365,0.248168,-1.174359,29.087368,-34.419507,-5.95312,4.63583E+18,-0.461703,0.220468,-0.554253,-0.656528,0
-9.259601,-1.945945,-2.090162,-0.253361,0.068685,0.062512,42.902209,-4.919583,-11.708746,4.63583E+18,-0.203378,0.733118,-0.166779,-0.627184,-9.644731,1.279492,-2.20076,-0.010166,-0.177935,0.087204,44.386821,11.169072,0.927763,4.63582E+18,0.286081,0.72692,0.313574,-0.53983,-5.919632,-0.186435,1.197922,1.225658,0.291532,-1.288886,29.409042,-34.074375,-5.584343,4.63583E+18,-0.465544,0.221706,-0.557094,-0.650969,0
-9.393902,-1.912012,-2.249048,-0.212743,0.069701,0.069828,42.915848,-4.970272,-11.743522,4.63583E+18,-0.202579,0.733324,-0.166438,-0.627293,-9.347643,1.366993,-2.036336,-0.074711,-0.162298,0.076624,44.461205,11.08363,0.885376,4.63582E+18,0.286562,0.726528,0.313418,-0.540194,-6.029495,-0.382825,0.991045,1.344603,0.337545,-1.415213,29.745913,-33.727017,-5.381748,4.63583E+18,-0.469697,0.223125,-0.560196,-0.64481,0
-9.542677,-1.870421,-2.375478,-0.173998,0.05672,0.072833,42.945644,-5.05573,-11.743522,4.63583E+18,-0.201899,0.733461,-0.166196,-0.627415,-9.22719,1.14496,-2.186511,-0.119331,-0.156111,0.059957,44.471569,10.98712,0.617506,4.63582E+18,0.287134,0.726073,0.313419,-0.5405,-6.09974,-0.770438,0.758478,1.494337,0.37637,-1.542772,30.176454,-33.538668,-4.990409,4.63583E+18,-0.47418,0.224662,-0.563608,-0.637986,0
-9.70137,-1.790349,-2.315267,-0.148545,0.045767,0.067999,42.902195,-5.090487,-11.627653,4.63583E+18,-0.201316,0.733553,-0.165996,-0.627548,-9.440699,1.097055,-2.344513,-0.138396,-0.156534,0.042565,44.458671,10.852382,0.466415,4.63582E+18,0.287725,0.725572,0.313516,-0.540802,-6.119223,-0.917174,0.61894,1.644536,0.414448,-1.660325,30.664749,-33.345939,-4.315688,4.63583E+18,-0.478983,0.226264,-0.567334,-0.630485,0
-9.794888,-1.687729,-2.212647,-0.142299,0.040825,0.057119,42.872402,-5.184623,-11.540962,4.63583E+18,-0.200784,0.733635,-0.165776,-0.627681,-9.486105,1.240583,-2.437322,-0.155425,-0.153491,0.040047,44.37323,10.889211,0.53276,4.63582E+18,0.288359,0.725053,0.313661,-0.541076,-6.299729,-0.84101,0.506741,1.770948,0.455701,-1.774237,31.12134,-32.899868,-3.67437,4.63583E+18,-0.484057,0.227971,-0.571309,-0.622353,0
-9.778546,-1.619035,-2.194641,-0.134026,0.02875,0.04537,42.915848,-5.299872,-11.709786,4.63583E+18,-0.200316,0.733688,-0.165532,-0.627833,-9.203701,0.875527,-2.562395,-0.156117,-0.15651,0.027915,44.287778,11.09653,0.454196,4.63582E+18,0.288972,0.72451,0.31384,-0.541372,-6.654369,-1.062722,0.266572,1.896604,0.504024,-1.889241,31.5951,-32.314615,-3.131658,4.63583E+18,-0.489375,0.229801,-0.575531,-0.613569,0
-9.681312,-1.577449,-2.289184,-0.134948,0.006158,0.041223,43.039769,-5.240511,-11.886897,4.63583E+18,-0.19987,0.733686,-0.165254,-0.62805,-9.120098,0.54767,-2.628272,-0.097842,-0.186941,0.009554,44.193134,11.07077,0.537126,4.63582E+18,0.289408,0.723944,0.313906,-0.541858,-6.987272,-1.346118,0.038591,2.006736,0.552638,-2.001454,32.265852,-31.727347,-2.399214,4.63583E+18,-0.494852,0.231822,-0.579929,-0.604204,0
-9.57373,-1.598742,-2.35106,-0.141393,-0.020108,0.050525,43.111578,-5.1687,-11.702227,4.63583E+18,-0.199398,0.733616,-0.164966,-0.628358,-9.057893,0.82377,-2.682126,-0.030419,-0.206372,0.002721,44.092645,10.901706,0.509526,4.63582E+18,0.289652,0.723406,0.313816,-0.542499,-7.425406,-1.277155,-0.153419,2.055174,0.57885,-2.111065,32.93459,-31.219274,-1.666798,4.63583E+18,-0.500587,0.233974,-0.584339,-0.594321,0
-9.468829,-1.710455,-2.240202,-0.12793,-0.036677,0.066747,43.065874,-5.214406,-11.432377,4.63583E+18,-0.198965,0.733488,-0.164715,-0.62871,-9.100212,1.27141,-2.87058,0.004523,-0.217815,-0.000161,44.240301,10.779809,0.324575,4.63582E+18,0.289799,0.722879,0.313642,-0.543223,-7.871447,-0.97759,-0.358938,2.027985,0.592618,-2.219777,33.440668,-30.666027,-1.025454,4.63583E+18,-0.506448,0.23645,-0.588512,-0.58417,0
-9.337259,-1.835216,-2.05214,-0.10673,-0.027923,0.088902,42.987668,-5.198517,-11.410789,4.63583E+18,-0.198548,0.733356,-0.164575,-0.629033,-9.393856,1.233944,-2.812876,0.057403,-0.243816,0.000381,44.312874,10.852382,0.143978,4.63582E+18,0.289823,0.722357,0.313314,-0.544093,-8.238635,-0.847932,-0.705037,1.948828,0.604659,-2.320847,33.831304,-30.132194,-0.57378,4.63583E+18,-0.512345,0.239356,-0.592315,-0.573911,0
-9.219724,-1.894416,-1.999312,-0.088572,-0.004027,0.109471,42.950614,-5.069641,-11.624249,4.63583E+18,-0.198115,0.733259,-0.164566,-0.629285,-9.750843,0.975415,-2.383316,0.111949,-0.257263,0.009832,44.312874,10.86525,0.035301,4.63582E+18,0.289722,0.721882,0.312818,-0.545062,-8.725955,-0.779938,-1.133569,1.843665,0.606474,-2.425868,34.328787,-29.553221,-0.007347,4.63583E+18,-0.518298,0.242716,-0.595669,-0.563591,0
-9.093108,-1.904355,-2.166226,-0.070412,0.008942,0.122128,42.996313,-5.005035,-11.801428,4.63583E+18,-0.197696,0.733173,-0.164654,-0.629494,-10.002723,1.04314,-2.092859,0.119944,-0.256355,0.017573,44.325733,10.950693,-0.139259,4.63582E+18,0.289614,0.721427,0.31228,-0.54603,-9.211786,-0.783969,-1.63377,1.719829,0.610988,-2.543723,35.06875,-28.755848,0.675615,4.63583E+18,-0.524305,0.246611,-0.598523,-0.553225,0
-8.997292,-1.88988,-2.285052,-0.059221,0.013848,0.127941,43.125183,-5.200446,-11.776044,4.63583E+18,-0.197291,0.733088,-0.164793,-0.629684,-9.941036,1.070578,-1.879826,0.102485,-0.25507,0.021098,44.398327,11.021448,-0.29049,4.63582E+18,0.289566,0.720957,0.311772,-0.546966,-9.839841,-0.431639,-1.885158,1.544219,0.627555,-2.665389,35.774844,-27.954116,1.079133,4.63583E+18,-0.530281,0.251194,-0.600783,-0.542921,0
-8.986914,-1.887176,-2.302228,-0.054712,0.017922,0.139376,43.095726,-5.385287,-11.673427,4.63583E+18,-0.196866,0.733003,-0.164983,-0.629866,-9.799426,1.053508,-1.661401,0.093885,-0.246365,0.02676,44.40934,11.000064,-0.192841,4.63582E+18,0.289545,0.720502,0.311276,-0.547857,-11.717079,1.591363,-1.577435,1.337567,0.648905,-2.669249,36.272725,-27.164622,1.55578,4.63583E+18,-0.535909,0.256254,-0.602519,-0.533015,0
-8.982384,-1.884911,-2.278254,-0.053407,0.00593,0.167864,42.886372,-5.420087,-11.626419,4.63583E+18,-0.196378,0.732867,-0.165253,-0.630106,-9.592452,1.050389,-1.591828,0.077646,-0.235627,0.031988,44.473405,10.937834,-0.124551,4.63582E+18,0.289573,0.720058,0.310814,-0.548688,-17.511298,10.653084,1.081981,1.280722,0.417672,-2.402424,36.66333,-26.403188,2.197192,4.63583E+18,-0.541387,0.260226,-0.603812,-0.524017,0
-9.008617,-1.843765,-2.120903,-0.047077,-0.024729,0.199746,42.786949,-5.463498,-11.679329,4.63583E+18,-0.195846,0.732624,-0.165613,-0.630459,-9.283687,0.928403,-1.537493,0.054308,-0.221428,0.024993,44.470929,10.924986,-0.236892,4.63582E+18,0.289636,0.719609,0.310442,-0.549454,-20.923771,27.373553,5.805704,1.551646,0.125281,-1.77928,37.077699,-25.78579,2.557893,4.63583E+18,-0.546472,0.261355,-0.605643,-0.516002,0
-9.142,-1.746555,-1.780447,-0.049056,-0.060412,0.218457,42.888235,-5.594618,-11.769751,4.63583E+18,-0.195282,0.732277,-0.165996,-0.630936,-9.148787,1.045026,-1.497902,0.024175,-0.220033,0.018795,44.374483,10.839543,-0.417517,4.63582E+18,0.289775,0.719117,0.310159,-0.550184,-24.038619,49.537327,9.027652,1.878468,-0.006716,-0.577794,37.399187,-25.489744,2.855346,4.63583E+18,-0.549495,0.258554,-0.609073,-0.510132,0
-9.397474,-1.443591,-1.264079,-0.046443,-0.074137,0.209948,43.001265,-5.714883,-11.804559,4.63583E+18,-0.194757,0.731899,-0.166348,-0.631445,-9.023797,1.295819,-1.809341,-0.05723,-0.200436,-0.002949,44.226789,10.76693,-0.500504,4.63582E+18,0.290083,0.718543,0.310151,-0.550776,-31.927155,66.533779,7.186904,-0.02784,0.135619,0.931213,37.316843,-25.543029,3.270547,4.63583E+18,-0.547015,0.256416,-0.610449,-0.512228,0
-9.594111,-0.857253,-1.119459,-0.082166,-0.024333,0.166633,42.980461,-5.699051,-11.862428,4.63583E+18,-0.194201,0.731711,-0.166515,-0.631789,-9.418781,1.30069,-2.608254,-0.17161,-0.195957,-0.046362,44.167015,10.76693,-0.528012,4.63582E+18,0.290628,0.717784,0.31054,-0.551259,-24.238954,36.161461,-0.875143,-3.051121,-0.122169,0.854837,37.051196,-25.860423,3.008748,4.63583E+18,-0.542076,0.260783,-0.604645,-0.522063,0
-9.651081,-0.349542,-1.755481,-0.146091,0.058342,0.114021,42.902251,-5.664235,-11.844358,4.63583E+18,-0.193531,0.73183,-0.16642,-0.631882,-9.925769,1.300725,-3.091486,-0.211328,-0.217475,-0.056876,44.265285,10.779758,-0.712937,4.63582E+18,0.291297,0.716913,0.311025,-0.551766,-1.634669,-4.810507,-7.873109,-3.373589,-0.207615,-0.339691,36.994684,-26.047307,2.030128,4.63583E+18,-0.539482,0.268674,-0.596525,-0.53003,0
-9.706689,-0.311051,-2.329336,-0.153815,0.074139,0.097162,42.923034,-5.664235,-11.753926,4.63583E+18,-0.19287,0.73201,-0.166266,-0.631916,-9.395383,1.389129,-2.804628,-0.16577,-0.224153,-0.034983,44.395873,10.878039,-0.878933,4.63582E+18,0.291889,0.716109,0.31133,-0.552325,10.066301,-19.638479,-7.323576,-2.019224,0.309593,-0.452084,37.210297,-25.886417,1.448714,4.63583E+18,-0.537293,0.274904,-0.59235,-0.533727,0
-9.799372,-0.672725,-2.099269,-0.120545,0.010056,0.125919,42.907222,-5.714866,-11.827603,4.63583E+18,-0.192279,0.731976,-0.166236,-0.632144,-9.140326,0.847162,-2.667331,-0.106699,-0.248937,-0.041606,44.314706,11.010458,-0.864274,4.63582E+18,0.292323,0.71531,0.311489,-0.553041,4.167634,-21.06047,-6.475995,-0.3055,0.546011,-0.207606,37.394632,-25.644399,1.531716,4.63583E+18,-0.535885,0.277248,-0.592753,-0.533484,0
-9.745145,-1.119861,-1.508368,-0.081699,-0.016776,0.173943,42.872402,-5.800314,-12.010705,4.63583E+18,-0.191697,0.731807,-0.166434,-0.632464,-9.379557,0.770294,-2.815029,-0.035035,-0.294168,-0.052927,44.336068,10.937834,-0.795923,4.63582E+18,0.292576,0.714478,0.31146,-0.553998,-5.284042,-11.648904,-6.471008,0.818641,0.546835,-0.601496,37.456279,-25.586718,1.844208,4.63583E+18,-0.536688,0.278001,-0.595215,-0.529528,0
-9.506913,-1.496469,-1.443128,-0.034784,0.062719,0.196301,42.923022,-5.878528,-11.911771,4.63583E+18,-0.191143,0.731796,-0.166888,-0.632525,-9.25077,1.842711,-3.038422,-0.017144,-0.306291,-0.051004,44.361703,10.961639,-0.922881,4.63582E+18,0.292796,0.713641,0.311368,-0.555011,-8.186987,-2.944065,-3.987283,1.244311,0.619214,-0.62824,37.488314,-25.511371,2.218642,4.63583E+18,-0.537834,0.278037,-0.598721,-0.524368,0
-9.467015,-1.765918,-1.764966,0.013947,0.151177,0.185589,42.957851,-5.857779,-11.626079,4.63583E+18,-0.190703,0.731988,-0.167507,-0.632272,-9.222689,2.306596,-2.856535,-0.060617,-0.294275,-0.055864,44.141362,11.109347,-1.201206,4.63582E+18,0.29312,0.712771,0.311406,-0.555936,-10.2702,5.509932,-1.100172,1.201528,0.719442,-0.550326,37.593284,-25.251671,2.616589,4.63583E+18,-0.538489,0.278185,-0.602425,-0.519352,0
-9.832581,-1.884437,-1.882671,0.057146,0.172885,0.152647,42.914484,-5.822931,-11.395933,4.63583E+18,-0.190466,0.732226,-0.168158,-0.631895,-9.592533,1.668866,-2.595945,-0.055871,-0.306716,-0.05752,44.094341,11.171003,-1.352591,4.63582E+18,0.293442,0.711874,0.31142,-0.556906,-13.017408,12.094104,2.634382,0.913159,0.758385,-0.424324,37.684878,-24.989803,3.052696,4.63583E+18,-0.53838,0.27879,-0.605694,-0.515323,0
-10.263534,-1.889899,-1.918329,0.083189,0.14011,0.112254,42.927976,-5.916896,-11.258439,4.63583E+18,-0.190437,0.732386,-0.168729,-0.631565,-9.931938,0.843512,-2.216314,0.00352,-0.326425,-0.056292,44.263415,11.095929,-1.254932,4.63582E+18,0.293617,0.711004,0.311269,-0.558009,-13.858237,10.447453,4.895668,0.23766,0.652939,-0.324898,37.61164,-24.890896,3.371633,4.63583E+18,-0.537571,0.28038,-0.607402,-0.51329,0
-10.564704,-1.894396,-2.097745,0.100476,0.093702,0.094868,42.965079,-6.032224,-11.218604,4.63583E+18,-0.190538,0.732424,-0.169255,-0.63135,-9.975278,1.047344,-1.738972,0.039257,-0.328617,-0.055596,44.398327,11.023285,-1.186547,4.63582E+18,0.293692,0.710172,0.311028,-0.559162,-12.969693,4.903771,5.136298,-0.537642,0.373314,-0.418034,37.637499,-24.839362,3.440098,4.63583E+18,-0.536758,0.283344,-0.60671,-0.513332,0
-10.669271,-1.904355,-2.226245,0.111045,0.016388,0.097792,42.919464,-6.016483,-11.276428,4.63583E+18,-0.190717,0.732249,-0.169758,-0.631364,-9.974688,1.384921,-1.555235,0.021797,-0.319165,-0.064512,44.398327,11.036081,-1.311615,4.63582E+18,0.293785,0.709328,0.310865,-0.560274,-10.681109,0.733024,4.566333,-0.890044,0.2544,-0.626908,37.865467,-24.652925,3.209115,4.63583E+18,-0.536222,0.287421,-0.604715,-0.513979,0
-10.654814,-1.897127,-2.065461,0.086028,-0.070104,0.088389,42.877381,-5.988856,-11.424683,4.63583E+18,-0.190905,0.731874,-0.170098,-0.631651,-9.872217,1.436156,-1.528334,-0.017425,-0.309022,-0.085597,44.387365,11.108737,-1.579572,4.63582E+18,0.293933,0.70843,0.310868,-0.561331,-8.639048,-1.200925,2.799354,-0.758129,0.272613,-0.716755,37.986112,-24.412751,3.066432,4.63583E+18,-0.536027,0.291408,-0.602949,-0.514012,0
-10.666534,-1.704263,-1.854261,0.043898,-0.098945,0.05798,42.829043,-6.181719,-11.492147,4.63583E+18,-0.191063,0.731479,-0.170212,-0.632029,-9.59632,1.586901,-1.62783,-0.14282,-0.284035,-0.132434,44.312284,11.121533,-1.745659,4.63582E+18,0.294309,0.707375,0.311331,-0.562207,-8.725147,-0.152931,0.995127,-0.47012,0.295864,-0.722568,37.956148,-24.204583,3.289504,4.63583E+18,-0.536128,0.294813,-0.601833,-0.513272,0
-10.674253,-1.141248,-1.736687,0.004381,-0.089615,0.031346,42.70523,-6.361803,-11.371565,4.63583E+18,-0.191164,0.731161,-0.170148,-0.632384,-9.319149,1.77622,-1.748646,-0.300505,-0.232755,-0.189803,44.226841,11.217937,-1.776714,4.63582E+18,0.29495,0.70617,0.312394,-0.562796,-9.714206,2.170785,0.306355,-0.345789,0.347945,-0.750946,38.089137,-24.045906,3.44345,4.63583E+18,-0.536305,0.29812,-0.601056,-0.512086,0
-10.633141,-0.408752,-1.696829,-0.03135,-0.084384,0.022235,42.691041,-6.346097,-11.291848,4.63583E+18,-0.191176,0.730892,-0.169968,-0.63274,-9.259358,1.540885,-1.98108,-0.345012,-0.224194,-0.212546,44.154179,11.37846,-1.982413,4.63582E+18,0.295657,0.704898,0.313638,-0.563327,-9.65558,1.674547,-0.172922,-0.271764,0.428517,-0.781714,38.344826,-23.883262,3.365282,4.63583E+18,-0.536431,0.301508,-0.60057,-0.510539,0
-10.507074,0.150259,-1.675152,-0.065726,-0.081855,0.033376,42.91378,-6.166713,-11.414685,4.63583E+18,-0.191051,0.73065,-0.169732,-0.63312,-9.091623,0.729551,-2.45725,-0.335262,-0.249249,-0.253833,44.141392,11.523788,-2.13389,4.63582E+18,0.29627,0.703523,0.314947,-0.563993,-9.184976,-0.674873,-0.186996,-0.046032,0.505326,-0.784304,38.578709,-23.692551,3.448144,4.63583E+18,-0.536647,0.304559,-0.600723,-0.508316,0
-10.379536,0.416291,-1.638534,-0.095914,-0.081375,0.063782,43.03608,-5.973164,-11.672756,4.63583E+18,-0.190752,0.730414,-0.169511,-0.633542,-8.653455,0.373523,-2.709358,-0.271549,-0.25918,-0.28822,44.068726,11.523788,-2.050844,4.63582E+18,0.29663,0.702155,0.316194,-0.564811,-10.018227,-0.610077,0.256414,0.093436,0.501616,-0.771668,38.660196,-23.40913,3.724942,4.63583E+18,-0.537015,0.307256,-0.60117,-0.505771,0
-10.383012,0.447194,-1.587466,-0.116296,-0.110058,0.094213,42.937191,-6.009515,-11.842917,4.63583E+18,-0.190331,0.730097,-0.169306,-0.634088,-8.209537,0.488065,-2.851626,-0.216964,-0.271409,-0.330357,44.068726,11.560295,-2.065446,4.63582E+18,0.296746,0.700767,0.317418,-0.565786,-11.445294,1.390725,0.514024,-0.058848,0.433117,-0.809139,38.733434,-23.042283,3.934087,4.63583E+18,-0.537432,0.31024,-0.601085,-0.503603,0
-10.38402,0.362246,-1.439745,-0.139271,-0.198141,0.112895,42.922966,-6.274326,-11.928369,4.63583E+18,-0.189852,0.729554,-0.169027,-0.634931,-8.131264,1.036565,-2.873081,-0.176773,-0.287481,-0.376814,44.066901,11.829983,-2.177701,4.63582E+18,0.296656,0.699326,0.318661,-0.566915,-11.405608,2.008227,0.141829,-0.274606,0.39969,-0.856771,38.834397,-22.752609,4.019539,4.63583E+18,-0.537746,0.313753,-0.600401,-0.501904,0
-10.29908,0.281279,-1.174452,-0.180945,-0.325305,0.121724,42.907293,-6.408887,-12.07882,4.63583E+18,-0.189311,0.728701,-0.168565,-0.636194,-8.35316,1.860095,-2.716958,-0.188728,-0.312618,-0.43426,44.031005,12.208502,-2.360223,4.63582E+18,0.296499,0.697731,0.320067,-0.56817,-10.237054,0.654893,-0.747961,-0.295904,0.415048,-0.865459,38.993086,-22.516718,4.168336,4.63583E+18,-0.538003,0.317365,-0.599685,-0.500211,0
-10.21088,0.169679,-0.992052,-0.216416,-0.466215,0.122641,42.727941,-6.264426,-12.158574,4.63583E+18,-0.188758,0.7275,-0.167899,-0.637906,-8.856767,2.250358,-2.38515,-0.21258,-0.351773,-0.501506,43.885616,12.341134,-2.453688,4.63582E+18,0.296303,0.695919,0.321674,-0.569585,-9.87476,-0.711623,-1.515016,-0.119734,0.423679,-0.840085,39.124062,-22.22509,4.354085,4.63583E+18,-0.538411,0.320533,-0.599378,-0.498115,0
-10.209865,-0.049035,-0.981069,-0.213175,-0.664567,0.112921,42.527133,-6.114179,-12.216356,4.63583E+18,-0.188377,0.725773,-0.167056,-0.640203,-9.341292,2.597277,-1.685947,-0.243321,-0.374455,-0.552981,43.909321,12.281204,-2.481039,4.63582E+18,0.296103,0.69394,0.323472,-0.571083,-10.440258,-0.982546,-1.463955,0.039344,0.413693,-0.822619,39.197308,-21.909661,4.345836,4.63583E+18,-0.538717,0.323634,-0.5992,-0.495988,0
-10.222582,-0.375362,-0.74823,-0.173683,-0.886278,0.083433,42.507904,-6.129842,-12.422344,4.63583E+18,-0.188345,0.723437,-0.166052,-0.643112,-10.012563,3.90226,-0.860448,-0.170874,-0.352123,-0.550846,44.031565,12.390311,-2.63862,4.63582E+18,0.295667,0.692101,0.325115,-0.572606,-11.053562,-0.77107,-0.345964,0.071078,0.362169,-0.802096,39.298255,-21.774717,4.37354,4.63583E+18,-0.539443,0.326146,-0.599182,-0.493569,0
-10.008178,-0.734337,-0.335444,-0.118624,-0.998989,0.032541,42.53558,-6.17196,-12.876405,4.63583E+18,-0.188689,0.72078,-0.164952,-0.646269,-10.678507,2.692253,-1.5291,-0.138688,-0.340438,-0.549506,43.920619,12.647206,-2.63626,4.63582E+18,0.295124,0.690324,0.326689,-0.574132,-11.57127,-0.472218,1.290106,0.049282,0.299921,-0.77496,39.456937,-21.614093,4.49064,4.63583E+18,-0.540232,0.328509,-0.599009,-0.491344,0
-9.870803,-0.994465,-0.286435,-0.01672,-1.084481,-0.0142,42.480048,-6.176946,-13.284048,4.63583E+18,-0.18952,0.717832,-0.163916,-0.649562,-11.244094,0.271129,-0.688418,-0.077382,-0.323312,-0.557808,43.689758,12.964054,-2.57812,4.63582E+18,0.294361,0.688648,0.328159,-0.575698,-11.618839,-0.103301,2.093781,0.057149,0.300577,-0.752904,39.583978,-21.249219,4.642096,4.63583E+18,-0.540981,0.330799,-0.598875,-0.489142,0
-9.991321,-0.95872,-0.44565,0.181439,-1.219622,-0.048231,42.488466,-6.227491,-13.569805,4.63583E+18,-0.191122,0.714369,-0.163203,-0.65308,-11.20938,0.288407,-0.189627,0.014265,-0.335373,-0.596623,43.627967,13.209997,-2.704881,4.63582E+18,0.293257,0.686995,0.329502,-0.577466,-11.40476,-0.118352,1.72304,0.116558,0.326705,-0.729406,39.676665,-20.856571,4.695894,4.63583E+18,-0.541693,0.332947,-0.598947,-0.486804,0
-9.96281,-0.575699,-0.536603,0.3163,-1.287027,-0.06657,42.467847,-6.312937,-14.023832,4.63583E+18,-0.193214,0.710608,-0.162745,-0.656672,-10.037254,1.238748,-0.37168,-0.050392,-0.299847,-0.646645,43.664827,13.464528,-2.970565,4.63582E+18,0.292167,0.685274,0.331183,-0.579099,-11.051454,-0.358994,1.052708,0.157077,0.33442,-0.702794,39.835347,-20.691549,4.71533,4.63583E+18,-0.542382,0.334952,-0.599148,-0.484407,0
-9.700296,-0.250714,-0.814215,0.232721,-1.209272,-0.031333,42.18748,-6.304534,-14.532579,4.63583E+18,-0.194903,0.707084,-0.162221,-0.660098,-9.19841,2.02591,-0.444658,-0.141312,-0.230448,-0.718862,43.493942,13.695926,-3.03497,4.63582E+18,0.291065,0.683503,0.333371,-0.58049,-10.529949,-0.383951,0.355521,0.241345,0.35284,-0.672104,39.942623,-20.616397,4.832425,4.63583E+18,-0.543077,0.336725,-0.599596,-0.481838,0
-9.303491,-0.30085,-1.263131,0.07723,-1.030616,0.040577,41.729113,-6.180755,-14.837636,4.63583E+18,-0.19581,0.704114,-0.161623,-0.663144,-9.089062,1.887737,-0.710885,-0.286104,-0.185904,-0.819905,43.359396,13.905526,-2.885102,4.63582E+18,0.290067,0.681515,0.336246,-0.581668,-9.938883,-1.044379,0.042133,0.487788,0.419016,-0.654083,39.942623,-20.281638,5.106491,4.63583E+18,-0.54391,0.338025,-0.600706,-0.478595,0
-9.212769,-0.621625,-1.373279,0.029574,-0.884481,0.114515,41.529587,-6.267495,-15.133998,4.63583E+18,-0.196269,0.701526,-0.161227,-0.665842,-9.074255,1.460996,-0.892178,-0.372715,-0.145405,-0.925219,43.396282,14.393303,-3.009512,4.63582E+18,0.288999,0.679362,0.339672,-0.582726,-9.814061,-1.650809,0.623376,0.588298,0.431324,-0.621847,39.994023,-19.807473,5.511026,4.63583E+18,-0.544542,0.339341,-0.601909,-0.475422,0
-9.587954,-0.795708,-0.907035,0.068086,-0.877695,0.164407,41.529587,-6.473301,-15.565129,4.63583E+18,-0.196695,0.698884,-0.161088,-0.668523,-9.195027,1.157885,-1.059443,-0.379602,-0.117156,-1.033373,43.199934,14.808348,-3.18795,4.63582E+18,0.287643,0.677102,0.343448,-0.583813,-9.970337,-0.447613,1.626306,0.56163,0.384836,-0.545118,40.176442,-19.644283,5.669226,4.63583E+18,-0.545336,0.340129,-0.603223,-0.472274,0
-9.925222,-0.654146,-0.341141,0.119207,-0.939208,0.167015,41.378044,-6.543168,-16.041194,4.63583E+18,-0.1973,0.696017,-0.161046,-0.67134,-9.392651,1.209258,-1.182302,-0.336321,-0.088726,-1.136655,42.894491,15.210642,-3.19834,4.63582E+18,0.285867,0.6748,0.347436,-0.584991,-10.157605,0.486553,1.820527,0.546789,0.350718,-0.509781,40.360931,-19.67252,5.694116,4.63583E+18,-0.546118,0.340792,-0.604472,-0.469286,0
-10.060579,-0.419455,-0.153704,0.157168,-0.982847,0.12443,41.179429,-6.593676,-16.401802,4.63583E+18,-0.198158,0.693015,-0.160948,-0.67421,-9.731551,1.742384,-1.070185,-0.226581,-0.071502,-1.232725,42.785932,15.540241,-3.200156,4.63582E+18,0.283517,0.672513,0.351436,-0.586377,-9.988492,0.902741,1.352843,0.302383,0.328174,-0.443609,40.391055,-19.381,6.002497,4.63583E+18,-0.546477,0.341798,-0.60528,-0.467091,0
-10.008944,-0.271881,-0.201985,0.182462,-1.036548,0.060003,41.06403,-6.729628,-16.733063,4.63583E+18,-0.199301,0.689873,-0.160688,-0.677151,-10.422925,2.959977,-0.53552,-0.063368,-0.037411,-1.286756,42.59142,15.880733,-3.212363,4.63582E+18,0.28052,0.670403,0.355219,-0.587953,-9.774534,0.972436,0.900712,0.124211,0.333324,-0.329832,40.309555,-19.093087,6.25019,4.63583E+18,-0.546232,0.343081,-0.605826,-0.465726,0
-9.64601,-0.369023,-0.318519,0.23097,-1.071256,-0.021616,40.978578,-6.70573,-17.055995,4.63583E+18,-0.200833,0.686635,-0.160299,-0.680076,-11.268463,3.846438,-0.925483,0.111782,-0.027485,-1.289531,42.296339,16.285351,-3.23909,4.63582E+18,0.277005,0.668498,0.35858,-0.589745,-9.670399,-0.541894,0.030466,0.08869,0.327607,-0.28447,40.311373,-19.043549,6.25019,4.63583E+18,-0.545969,0.344179,-0.606432,-0.464433,0
-9.017911,-0.658659,-0.493853,0.310252,-1.019446,-0.096622,40.893132,-6.597543,-17.348952,4.63583E+18,-0.202764,0.683514,-0.15996,-0.682721,-12.330009,2.558397,-1.556925,0.164283,-0.075088,-1.363075,42.222275,16.713109,-3.319916,4.63582E+18,0.273227,0.666404,0.36195,-0.591815,-9.55732,-1.157188,-0.430132,0.134587,0.325063,-0.24093,40.470056,-18.992205,6.341029,4.63583E+18,-0.545693,0.345059,-0.60718,-0.463126,0
-8.461397,-0.952176,-0.537681,0.392787,-0.901663,-0.156289,40.807685,-6.618077,-17.576995,4.63583E+18,-0.205016,0.680687,-0.159784,-0.684911,-13.242567,1.475931,-1.286897,0.296732,-0.091834,-1.436025,42.236127,17.224492,-3.248984,4.63582E+18,0.268917,0.664286,0.365163,-0.594191,-9.738278,-0.595289,-0.44162,0.191324,0.326822,-0.18592,40.577408,-18.857206,6.558607,4.63583E+18,-0.545388,0.345674,-0.608117,-0.461795,0
-8.240552,-1.01155,-0.541565,0.463624,-0.832524,-0.190179,40.527471,-6.797303,-17.8106,4.63583E+18,-0.207515,0.678008,-0.159771,-0.686816,-13.705905,0.924713,-1.395362,0.492327,-0.185563,-1.504598,41.967108,17.787291,-3.290204,4.63582E+18,0.264029,0.662022,0.36796,-0.597177,-9.9257,-0.389902,-0.292978,0.220697,0.333136,-0.150798,40.553714,-18.775706,6.648005,4.63583E+18,-0.545039,0.346147,-0.609173,-0.460459,0
-8.186729,-0.853964,-0.626461,0.498485,-0.838253,-0.200763,40.2639,-6.897183,-18.144083,4.63583E+18,-0.210142,0.67528,-0.15982,-0.688691,-14.054823,0.096985,-0.574507,0.679027,-0.246334,-1.531841,41.63802,18.287743,-3.512206,4.63582E+18,0.25864,0.659738,0.370283,-0.600617,-9.697401,-0.980807,-0.391678,0.292751,0.345953,-0.137791,40.504166,-18.726156,6.804876,4.63583E+18,-0.544735,0.34645,-0.610411,-0.45895,0
-8.137902,-0.588753,-0.830083,0.491544,-0.829614,-0.199793,40.285528,-6.760145,-18.47921,4.63583E+18,-0.212736,0.672571,-0.159859,-0.690534,-14.188247,-0.589678,-0.182254,0.956838,-0.35219,-1.53336,41.379853,18.822678,-3.802894,4.63582E+18,0.252634,0.657449,0.371779,-0.604746,-9.292377,-1.529873,-0.665279,0.438769,0.358771,-0.132609,40.480477,-18.730104,7.058011,4.63583E+18,-0.544597,0.346432,-0.611961,-0.457059,0
-8.190034,-0.38456,-0.954392,0.481541,-0.788933,-0.205179,40.345467,-6.614765,-18.777148,4.63583E+18,-0.215286,0.669982,-0.159887,-0.692252,-14.39701,-0.791473,-0.369945,1.263221,-0.53526,-1.578614,41.102229,19.508007,-4.01042,4.63582E+18,0.245942,0.654904,0.372408,-0.609857,-9.193934,-1.403916,-0.774108,0.592991,0.372279,-0.117279,40.43092,-18.710731,7.221741,4.63583E+18,-0.544623,0.346039,-0.613858,-0.454776,0
-8.362575,-0.235864,-0.899491,0.482559,-0.764456,-0.225567,40.201257,-6.73121,-19.05569,4.63583E+18,-0.217877,0.667467,-0.159882,-0.69387,-14.172121,0.082894,-0.887052,1.49262,-0.65606,-1.607838,40.759944,19.897687,-4.288619,4.63582E+18,0.238719,0.652185,0.372378,-0.615631,-9.414016,-0.988898,-0.652777,0.710389,0.386886,-0.108919,40.458546,-18.601607,7.347018,4.63583E+18,-0.54476,0.345385,-0.616015,-0.452185,0
-8.606135,-0.026712,-0.81847,0.50595,-0.733395,-0.232906,40.101318,-6.980338,-19.324235,4.63583E+18,-0.220529,0.665016,-0.159951,-0.695368,-13.472789,2.173997,-2.336058,1.525538,-0.708809,-1.603765,40.355778,20.192555,-4.957716,4.63582E+18,0.231478,0.649308,0.372165,-0.621539,-9.558029,-0.562006,-0.489767,0.78659,0.399391,-0.109706,40.516373,-18.470537,7.530129,4.63583E+18,-0.544879,0.344706,-0.618264,-0.449483,0
-8.83143,0.17417,-0.771854,0.542703,-0.686836,-0.221889,40.000393,-6.986577,-19.607202,4.63583E+18,-0.223216,0.662651,-0.160198,-0.69671,-13.01531,4.41421,-3.69349,1.287641,-0.678388,-1.606336,40.026699,20.776592,-5.51642,4.63582E+18,0.224807,0.646217,0.37257,-0.626943,-9.677518,-0.212948,-0.41826,0.790536,0.405896,-0.108541,40.520319,-18.47227,7.657988,4.63583E+18,-0.545057,0.343917,-0.620587,-0.446661,0
-9.005133,0.352296,-0.7136,0.57019,-0.619647,-0.206303,39.786219,-6.827869,-19.842521,4.63583E+18,-0.225884,0.660436,-0.16063,-0.697852,-12.319723,5.537138,-4.622226,0.878544,-0.605895,-1.607011,39.782993,21.32686,-5.874039,4.63582E+18,0.219109,0.642881,0.374084,-0.631471,-10.005978,-0.260153,-0.535265,0.734254,0.402444,-0.113536,40.504909,-18.579668,7.788547,4.63583E+18,-0.545179,0.343241,-0.622791,-0.443955,0
-9.199874,0.434469,-0.741291,0.587768,-0.51639,-0.184603,39.6358,-6.762901,-19.864805,4.63583E+18,-0.228465,0.658484,-0.161268,-0.698709,-11.057631,5.160418,-5.312497,0.514208,-0.486781,-1.618801,39.59942,21.741903,-5.987991,4.63582E+18,0.214158,0.639469,0.376675,-0.635084,-10.36937,-0.655851,-0.734157,0.657315,0.391763,-0.115047,40.431664,-18.48104,8.194593,4.63583E+18,-0.545217,0.342722,-0.624818,-0.441455,0
-9.513286,0.482715,-0.788482,0.618488,-0.404778,-0.156448,39.608023,-6.856607,-19.824823,4.63583E+18,-0.23097,0.656803,-0.162178,-0.699257,-11.003403,4.147717,-5.379389,0.234899,-0.376773,-1.629042,39.330426,22.193097,-6.209969,4.63582E+18,0.209742,0.636048,0.380109,-0.637941,-10.590961,-0.938102,-0.883251,0.586689,0.379011,-0.109049,40.307143,-18.171922,8.571674,4.63583E+18,-0.545172,0.342322,-0.626688,-0.439164,0
-10.086301,0.628032,-0.815104,0.654468,-0.32824,-0.134109,39.605815,-6.878352,-19.940144,4.63583E+18,-0.233453,0.65529,-0.163328,-0.699584,-11.102833,2.564793,-5.242385,0.009013,-0.273561,-1.586036,38.975953,22.852298,-6.444595,4.63582E+18,0.205867,0.632741,0.3841,-0.640097,-10.633401,-1.172466,-0.874613,0.535784,0.364337,-0.101507,40.122544,-17.933429,8.703878,4.63583E+18,-0.544938,0.342186,-0.628329,-0.43721,0
-10.844727,0.823336,-0.995857,0.668854,-0.311166,-0.122696,39.600815,-6.94204,-20.070588,4.63583E+18,-0.235927,0.653801,-0.164566,-0.699858,-10.66564,0.629761,-4.927704,-0.090794,-0.214538,-1.500666,38.5487,23.473496,-6.286357,4.63582E+18,0.202379,0.629615,0.388166,-0.641837,-10.532551,-1.372302,-0.902971,0.512153,0.354379,-0.094507,40.14357,-17.883846,8.763033,4.63583E+18,-0.544804,0.341892,-0.630005,-0.435192,0
-11.393189,0.953796,-1.276633,0.670359,-0.349156,-0.120894,39.507125,-7.158395,-20.20649,4.63583E+18,-0.238422,0.652192,-0.165776,-0.700228,-10.326123,-0.570985,-4.475628,-0.112355,-0.180995,-1.429937,38.148602,23.865454,-6.2443,4.63582E+18,0.199077,0.62665,0.392116,-0.643369,-10.362032,-1.262817,-0.90016,0.498234,0.343698,-0.076793,40.360106,-17.856244,8.977682,4.63583E+18,-0.544643,0.341564,-0.63165,-0.433262,0
-11.504964,0.94556,-1.456504,0.670166,-0.404943,-0.132489,39.247539,-7.263405,-20.334151,4.63583E+18,-0.240986,0.650423,-0.166898,-0.700729,-10.1005,-1.407387,-3.981447,-0.084469,-0.129367,-1.36601,37.913496,24.2077,-6.422901,4.63582E+18,0.195783,0.623929,0.395853,-0.644735,-10.147018,-1.160084,-0.850195,0.487865,0.334052,-0.054676,40.471483,-17.747145,9.25843,4.63583E+18,-0.544451,0.341181,-0.633282,-0.431418,0
-11.294829,0.857914,-1.494305,0.67099,-0.460043,-0.146862,39.112518,-7.263405,-20.374157,4.63583E+18,-0.243628,0.648496,-0.167926,-0.701355,-10.042636,-2.373584,-3.716472,-0.00911,-0.092855,-1.272574,37.732199,24.622738,-6.435109,4.63582E+18,0.192478,0.621501,0.39916,-0.646034,-9.934027,-0.965775,-0.835188,0.47142,0.321056,-0.036829,40.452153,-17.616045,9.480068,4.63583E+18,-0.544236,0.340765,-0.634876,-0.429673,0
-10.931993,0.738636,-1.496509,0.674387,-0.483433,-0.146003,39.256628,-7.263405,-20.374157,4.63583E+18,-0.246289,0.64649,-0.168942,-0.702033,-9.865685,-3.073302,-3.745861,0.09574,-0.048251,-1.146366,37.572099,25.037952,-6.4745,4.63582E+18,0.189164,0.619472,0.401883,-0.647273,-9.878967,-0.432994,-0.765125,0.419617,0.296489,-0.02084,40.370648,-17.566454,9.546189,4.63583E+18,-0.543981,0.340381,-0.636339,-0.428133,0
-10.478686,0.561111,-1.703281,0.669832,-0.478196,-0.120626,39.212545,-7.313848,-20.597545,4.63583E+18,-0.248856,0.64448,-0.170018,-0.702716,-9.373006,-3.778991,-3.739087,0.249112,0.001672,-1.027418,37.440043,25.414941,-6.671612,4.63582E+18,0.185688,0.617883,0.403914,-0.648532,-9.976234,-0.080741,-0.81597,0.331035,0.267097,-0.004063,40.297409,-17.594039,9.640766,4.63583E+18,-0.543647,0.340103,-0.637596,-0.426907,0
-10.012073,0.332002,-1.915361,0.675542,-0.482453,-0.072967,38.968434,-7.399287,-20.911082,4.63583E+18,-0.251298,0.642411,-0.171232,-0.703446,-9.277152,-4.332765,-3.788868,0.438477,0.054725,-0.917826,37.11042,25.562777,-6.848353,4.63582E+18,0.181929,0.616757,0.405184,-0.649876,-10.082547,-0.228486,-0.983323,0.242931,0.227919,0.012583,40.251751,-17.651905,9.929814,4.63583E+18,-0.543262,0.339909,-0.638629,-0.426005,0
-9.884578,0.087895,-1.893369,0.690109,-0.565658,-0.0105,38.918788,-7.434309,-20.970733,4.63583E+18,-0.253651,0.640032,-0.172568,-0.704443,-9.150099,-4.395533,-3.975102,0.664916,0.09942,-0.807315,36.817069,25.684402,-6.835687,4.63582E+18,0.177809,0.616098,0.405582,-0.651391,-10.159734,-0.605382,-1.153076,0.175646,0.18981,0.036738,40.260017,-17.651905,10.088407,4.63583E+18,-0.542841,0.339737,-0.63949,-0.425389,0
-10.155073,-0.113031,-1.80731,0.674569,-0.737993,0.05931,38.903413,-7.477519,-20.928495,4.63583E+18,-0.255876,0.637104,-0.17386,-0.705973,-8.794703,-3.887269,-4.103965,0.831387,0.15019,-0.716359,36.7298,26.014035,-6.779197,4.63582E+18,0.173421,0.615841,0.405322,-0.652977,-10.205779,-1.010487,-1.342035,0.134928,0.15381,0.06554,40.283652,-17.703115,9.931675,4.63583E+18,-0.542405,0.339521,-0.640233,-0.424999,0
-10.344059,-0.183111,-1.767879,0.619161,-0.793244,0.115749,38.630745,-7.608365,-21.089108,4.63583E+18,-0.257823,0.634023,-0.175078,-0.707736,-8.528888,-3.290049,-4.217917,0.893451,0.234011,-0.65081,36.599553,26.305609,-6.916219,4.63582E+18,0.168908,0.615954,0.404776,-0.654391,-10.14946,-1.180179,-1.352252,0.096679,0.120697,0.097205,40.337199,-17.834238,9.804536,4.63583E+18,-0.541946,0.339252,-0.640876,-0.424831,0
-10.349685,-0.096708,-1.613862,0.571155,-0.674864,0.154747,38.415127,-7.829661,-21.362664,4.63583E+18,-0.259436,0.631305,-0.176382,-0.709251,-8.409987,-2.852895,-4.280685,0.943539,0.277642,-0.592422,36.291238,26.380655,-7.165746,4.63582E+18,0.164349,0.616305,0.403963,-0.655722,-10.047866,-1.124646,-1.226243,0.038172,0.087241,0.131006,40.321835,-17.836581,10.027418,4.63583E+18,-0.541435,0.338966,-0.641386,-0.424939,0
-10.440486,0.085796,-1.412903,0.550642,-0.596818,0.192081,38.473691,-8.078833,-21.523229,4.63583E+18,-0.260824,0.628806,-0.177807,-0.710605,-8.237274,-2.491643,-3.533329,1.079939,0.325117,-0.521926,36.085541,26.466108,-7.165746,4.63582E+18,0.15955,0.616982,0.402618,-0.657096,-9.993138,-1.045111,-1.095911,-0.028633,0.055475,0.164184,40.24466,-17.709792,10.217597,4.63583E+18,-0.540859,0.338683,-0.641755,-0.425342,0
-10.532177,0.293318,-1.314011,0.525661,-0.683306,0.225931,38.538773,-8.229366,-21.558273,4.63583E+18,-0.262105,0.626046,-0.179151,-0.712231,-8.077683,-2.056244,-2.917999,1.120687,0.395137,-0.475996,36.158329,26.526232,-7.19469,4.63582E+18,0.154651,0.617937,0.401077,-0.658311,-10.093553,-0.99589,-0.98565,-0.066501,0.024292,0.188201,40.139518,-17.754287,10.280601,4.63583E+18,-0.540271,0.338367,-0.642018,-0.425943,0
-10.475194,0.414431,-1.193182,0.498412,-0.801885,0.243237,38.351566,-8.358015,-21.659077,4.63583E+18,-0.263348,0.622943,-0.180327,-0.714193,-8.049655,-1.451808,-2.281038,1.187222,0.432481,-0.425325,36.147482,26.466098,-7.417104,4.63582E+18,0.149654,0.619104,0.399234,-0.659489,-10.166418,-0.585226,-0.94351,-0.080522,-0.00906,0.205875,40.016662,-18.020477,10.416852,4.63583E+18,-0.539739,0.33795,-0.642219,-0.426646,0
-10.288335,0.439467,-0.950297,0.492361,-0.813107,0.242962,38.026997,-8.523899,-22.002753,4.63583E+18,-0.264578,0.619806,-0.18147,-0.716176,-8.065904,-0.902495,-1.169759,1.242771,0.427343,-0.353361,36.072429,26.562395,-7.768418,4.63582E+18,0.144716,0.620391,0.397036,-0.660708,-10.039226,-0.157488,-0.933309,-0.104847,-0.026527,0.231162,39.967037,-18.104385,10.393644,4.63583E+18,-0.539175,0.337491,-0.642371,-0.427493,0
-10.106797,0.410672,-0.67893,0.493293,-0.742421,0.235924,37.790997,-8.651602,-22.531401,4.63583E+18,-0.265774,0.616875,-0.182673,-0.717955,-8.353505,-0.092289,0.606597,1.187446,0.38567,-0.323094,36.010479,26.722897,-7.893239,4.63582E+18,0.140071,0.621561,0.394872,-0.661905,-9.94671,-0.389335,-0.767549,-0.117461,-0.040484,0.252975,39.939494,-18.03114,10.295984,4.63583E+18,-0.538478,0.337149,-0.642408,-0.428585,0
-10.025097,0.347444,-0.566549,0.480448,-0.689669,0.229077,37.720875,-8.785255,-22.932378,4.63583E+18,-0.266912,0.614115,-0.183877,-0.71959,-8.032095,0.31265,2.248902,0.909765,0.518816,-0.334091,36.047588,26.881138,-7.654042,4.63582E+18,0.135893,0.622902,0.39357,-0.66229,-9.784086,-0.633681,-0.614305,-0.115501,-0.052162,0.268652,39.905194,-18.028717,10.202263,4.63583E+18,-0.537882,0.336596,-0.642518,-0.4296,0
-9.94529,0.274205,-0.640717,0.464564,-0.700947,0.230226,37.670491,-8.951138,-23.040379,4.63583E+18,-0.268011,0.611331,-0.185021,-0.721257,-7.680263,-0.662496,2.033774,0.608516,0.645597,-0.334422,35.878492,26.953947,-7.697392,4.63582E+18,0.132287,0.624411,0.393163,-0.661841,-9.660397,-0.255005,-0.610777,-0.104406,-0.065086,0.283261,39.986298,-18.230262,10.144352,4.63583E+18,-0.53731,0.335958,-0.642637,-0.430636,0
-9.691508,0.186577,-0.681429,0.449229,-0.740026,0.237894,37.448318,-9.165199,-23.078548,4.63583E+18,-0.269073,0.608435,-0.186094,-0.723032,-7.576882,0.24014,1.529973,0.43511,0.653177,-0.259697,35.754115,26.977426,-7.94702,4.63582E+18,0.129325,0.625959,0.393037,-0.661039,-9.608448,0.142963,-0.562355,-0.103468,-0.06943,0.298523,40.024956,-18.496521,10.116818,4.63583E+18,-0.536722,0.335271,-0.642767,-0.43171,0
-9.308699,0.060129,-0.585047,0.42836,-0.723504,0.240772,37.224475,-9.409353,-23.216564,4.63583E+18,-0.270056,0.605603,-0.187127,-0.724774,-6.851218,2.153389,1.564033,0.131196,0.725375,-0.174517,35.83998,27.137907,-7.891077,4.63582E+18,0.127271,0.627675,0.39356,-0.659498,-9.510385,-0.059249,-0.528443,-0.106994,-0.068397,0.316337,39.888379,-18.627679,9.999906,4.63583E+18,-0.536115,0.334515,-0.642932,-0.432803,0
-8.985005,-0.115157,-0.46734,0.421863,-0.68622,0.231517,37.108954,-9.66071,-23.392487,4.63583E+18,-0.271017,0.602893,-0.188158,-0.726407,-6.407634,3.810815,1.218937,-0.278454,0.777115,-0.133931,35.975216,27.258296,-7.496448,4.63582E+18,0.126315,0.629376,0.395123,-0.657121,-9.42535,-0.454371,-0.585132,-0.08478,-0.062785,0.332738,39.726821,-18.70485,9.87579,4.63583E+18,-0.535495,0.333676,-0.64317,-0.433863,0
-8.831609,-0.20971,-0.412868,0.429092,-0.70447,0.220342,36.879604,-9.859465,-23.570563,4.63583E+18,-0.272041,0.600122,-0.18916,-0.728057,-6.16028,5.074246,1.277108,-0.70339,0.836964,-0.090337,35.962584,27.10001,-7.038788,4.63582E+18,0.126493,0.63108,0.39776,-0.653854,-9.413782,-0.537126,-0.6859,-0.050219,-0.0552,0.344596,39.758688,-18.786371,9.87579,4.63583E+18,-0.534754,0.332931,-0.643404,-0.435001,0
-8.830319,-0.154976,-0.352478,0.433229,-0.789681,0.214316,36.557209,-9.881448,-23.753669,4.63583E+18,-0.273156,0.597086,-0.190061,-0.729898,-6.011868,4.877829,1.706678,-1.07787,0.922698,-0.028355,35.900586,27.050635,-6.70034,4.63582E+18,0.12768,0.632906,0.401287,-0.64969,-9.60123,-0.423114,-0.828864,-0.018828,-0.055164,0.346152,39.808342,-18.859612,9.87579,4.63583E+18,-0.534157,0.331959,-0.643775,-0.435929,0
-8.850368,0.019658,-0.317392,0.427372,-0.910218,0.205635,36.326151,-9.851375,-24.001551,4.63583E+18,-0.274372,0.593689,-0.190783,-0.732021,-6.15919,4.172991,1.931405,-1.364304,0.975522,0.04695,35.973829,27.19851,-6.014506,4.63582E+18,0.129732,0.634823,0.405401,-0.644841,-9.697441,-0.124154,-0.970166,0.00963,-0.058331,0.343183,39.733663,-18.913198,9.848276,4.63583E+18,-0.533612,0.330926,-0.644184,-0.436776,0
-8.835979,0.210584,-0.159122,0.410397,-0.971843,0.194517,36.255989,-9.952092,-24.172187,4.63583E+18,-0.275624,0.590122,-0.191352,-0.734283,-6.446753,3.414342,2.08386,-1.523445,1.001449,0.168145,36.059695,27.258717,-5.274303,4.63582E+18,0.132481,0.636896,0.409613,-0.639554,-9.679639,-0.015722,-1.16197,0.034035,-0.068487,0.345736,39.576401,-18.945058,9.821781,4.63583E+18,-0.533124,0.329814,-0.644616,-0.437575,0
-8.912278,0.352708,-0.005667,0.392182,-0.953245,0.185724,36.205632,-10.166153,-24.257637,4.63583E+18,-0.276837,0.586631,-0.191862,-0.736487,-6.695874,2.674185,2.057646,-1.524869,0.992727,0.328372,36.243601,27.162462,-4.713227,4.63582E+18,0.135669,0.639182,0.413374,-0.634163,-9.76074,0.06121,-1.21455,0.034129,-0.086374,0.345012,39.631421,-19.06939,9.887997,4.63583E+18,-0.532685,0.328671,-0.645006,-0.438395,0
-9.116329,0.503565,0.002832,0.384972,-0.936327,0.17384,35.983482,-10.367147,-24.566118,4.63583E+18,-0.27805,0.583201,-0.192338,-0.738628,-6.887183,2.176116,2.001203,-1.392363,0.949299,0.520989,36.573202,27.001965,-4.210516,4.63582E+18,0.13908,0.641726,0.416223,-0.62897,-9.768025,0.289049,-1.000442,0.006396,-0.095753,0.345356,39.77088,-19.250234,9.856565,4.63583E+18,-0.532232,0.327572,-0.645322,-0.439301,0
-9.302911,0.667263,0.074114,0.384533,-0.966978,0.153222,35.752434,-10.5812,-24.972418,4.63583E+18,-0.279343,0.579684,-0.192723,-0.740805,-6.975832,2.188948,1.842914,-1.222058,0.884597,0.720694,36.877571,26.843675,-3.626372,4.63582E+18,0.142665,0.644513,0.418032,-0.624098,-9.557411,0.186475,-0.734546,-0.018011,-0.095483,0.34883,39.769472,-19.327407,9.731403,4.63583E+18,-0.531738,0.326521,-0.645595,-0.440279,0
-9.327114,0.775602,0.141474,0.370687,-1.006289,0.132432,35.538382,-10.882879,-25.28108,4.63583E+18,-0.280693,0.576069,-0.192967,-0.743048,-7.01425,2.653565,1.770074,-1.053922,0.789789,0.910067,37.012848,26.734832,-3.050893,4.63582E+18,0.14645,0.647456,0.418818,-0.619633,-9.398857,-0.078992,-0.630013,-0.019829,-0.093236,0.359438,39.587212,-19.463927,9.638654,4.63583E+18,-0.531214,0.325452,-0.645882,-0.441282,0
-9.237305,0.791303,-0.062105,0.332712,-1.034748,0.121826,35.294233,-10.929777,-25.556835,4.63583E+18,-0.282001,0.572409,-0.19303,-0.745361,-7.082867,3.2279,1.786266,-0.926758,0.683422,1.072119,37.025442,26.476311,-2.522561,4.63582E+18,0.150491,0.650456,0.418755,-0.615551,-9.523153,-0.16082,-0.643915,0.003251,-0.096821,0.37714,39.382783,-19.629505,9.799146,4.63583E+18,-0.530699,0.324276,-0.646225,-0.442263,0
-9.228126,0.673419,-0.114052,0.321775,-1.05075,0.117745,35.193943,-10.958063,-25.837546,4.63583E+18,-0.283301,0.568706,-0.193028,-0.747699,-7.271394,3.511344,1.933946,-0.873819,0.575441,1.20747,37.148703,26.138074,-2.325425,4.63582E+18,0.154918,0.653423,0.418103,-0.611743,-9.806166,0.006586,-0.578099,0.0248,-0.100675,0.396859,39.255928,-19.582369,9.997864,4.63583E+18,-0.53019,0.322989,-0.646625,-0.44323,0
-9.281966,0.490335,0.260276,0.339243,-1.038537,0.105106,35.524615,-11.605553,-26.04639,4.63583E+18,-0.284667,0.56502,-0.193062,-0.749963,-7.505491,3.249495,2.271345,-0.817326,0.478847,1.340658,37.501262,25.793739,-2.089145,4.63582E+18,0.159694,0.656382,0.416862,-0.608182,-10.031827,0.089803,-0.573325,0.025858,-0.112277,0.406547,39.249036,-19.581216,9.876094,4.63583E+18,-0.529694,0.321653,-0.647012,-0.444229,0
-9.330799,0.422241,0.670201,0.347777,-0.989185,0.077071,35.899273,-12.306849,-26.377641,4.63583E+18,-0.286094,0.561491,-0.193111,-0.752055,-7.839036,2.559413,2.42965,-0.709147,0.378102,1.474388,37.905492,25.295075,-1.700716,4.63582E+18,0.164681,0.659361,0.414894,-0.604968,-9.909773,0.234213,-0.586385,-0.004702,-0.129477,0.413604,39.384149,-19.913834,9.529134,4.63583E+18,-0.529186,0.320339,-0.647308,-0.445351,0
-9.401195,0.527906,0.733798,0.338151,-0.96995,0.037859,35.755203,-12.368806,-26.850873,4.63583E+18,-0.2876,0.558056,-0.193058,-0.754048,-8.278922,1.603174,2.491725,-0.497954,0.264105,1.623379,38.247329,24.804941,-1.453065,4.63582E+18,0.169653,0.662422,0.411884,-0.6023,-9.815181,0.510931,-0.585097,-0.046811,-0.135692,0.421194,39.414637,-20.202394,9.338663,4.63583E+18,-0.528621,0.31909,-0.647517,-0.446612,0
-9.443511,0.70599,0.726746,0.312885,-1.039376,0.001425,35.297039,-12.225309,-27.044417,4.63583E+18,-0.289211,0.554455,-0.192755,-0.756163,-8.780788,0.627152,2.396922,-0.199596,0.118789,1.778615,38.59988,24.306294,-1.495372,4.63582E+18,0.174434,0.665562,0.407572,-0.600404,-9.692198,0.119341,-0.685818,-0.033636,-0.129397,0.425353,39.30956,-20.303115,9.342589,4.63583E+18,-0.528049,0.317811,-0.647768,-0.447835,0
-9.340703,0.917855,0.94376,0.272474,-1.12191,-0.016782,35.002833,-12.382097,-27.03221,4.63583E+18,-0.290846,0.550646,-0.19218,-0.758462,-9.180697,0.183841,2.168231,0.101552,-0.038809,1.912117,39.029256,23.805476,-1.287867,4.63582E+18,0.178971,0.668714,0.401997,-0.599324,-9.520478,-0.407634,-0.864132,0.03804,-0.117266,0.433974,39.135602,-20.465729,9.386197,4.63583E+18,-0.527522,0.316375,-0.648188,-0.448865,0
-9.092916,1.142592,1.074252,0.199693,-1.1187,-0.024068,34.844149,-12.663529,-27.300321,4.63583E+18,-0.292327,0.546931,-0.191357,-0.760785,-9.322864,0.428369,1.878487,0.317434,-0.185831,2.009315,39.516816,23.231738,-1.164748,4.63582E+18,0.183386,0.671778,0.395474,-0.598903,-9.681382,-0.185645,-0.973959,0.072973,-0.113798,0.437903,38.927205,-20.605236,9.460737,4.63583E+18,-0.527024,0.314856,-0.648683,-0.449802,0
-8.828718,1.391043,0.822736,0.097593,-1.036435,-0.017272,34.678285,-12.77613,-27.771333,4.63583E+18,-0.293482,0.543587,-0.190324,-0.762993,-9.316398,1.038693,1.531331,0.424241,-0.282741,2.073335,39.847822,22.645485,-1.559646,4.63582E+18,0.187809,0.674736,0.388401,-0.598835,-9.957761,0.415069,-0.812658,0.021131,-0.123829,0.44145,38.795998,-20.682395,9.464662,4.63583E+18,-0.526478,0.313423,-0.649061,-0.450896,0
-8.649243,1.408087,0.316417,0.017126,-0.958164,0.018873,34.46426,-12.680541,-28.132448,4.63583E+18,-0.294272,0.540553,-0.18921,-0.765118,-9.437386,1.212498,1.125983,0.456541,-0.348057,2.118011,40.141509,21.961163,-2.061966,4.63582E+18,0.192345,0.677575,0.381039,-0.59892,-10.235022,0.74947,-0.646992,-0.07858,-0.131267,0.447439,38.769838,-20.787455,9.410175,4.63583E+18,-0.525809,0.312179,-0.64924,-0.45228,0
-8.471847,1.127229,-0.122947,-0.040803,-0.921614,0.064044,34.169815,-12.667737,-28.413213,4.63583E+18,-0.294754,0.537665,-0.188055,-0.767249,-9.691943,0.826573,0.582396,0.419249,-0.379537,2.12128,40.579175,21.132869,-2.222453,4.63582E+18,0.19703,0.680254,0.373703,-0.598982,-10.326168,0.276009,-0.705839,-0.167238,-0.151179,0.455336,38.796004,-20.988869,9.250164,4.63583E+18,-0.525061,0.311071,-0.649214,-0.453946,0
-8.386486,0.717943,-0.21827,-0.079177,-0.871146,0.081179,33.890547,-12.7582,-28.693949,4.63583E+18,-0.295051,0.534967,-0.186876,-0.769307,-9.948612,-0.065493,0.171668,0.420232,-0.39213,2.109151,41.008174,20.327621,-2.40768,4.63582E+18,0.201687,0.682828,0.366356,-0.599042,-10.015783,0.006495,-0.712424,-0.207108,-0.184254,0.471965,38.722763,-21.255254,9.164716,4.63583E+18,-0.524318,0.309944,-0.649057,-0.455797,0
-8.573273,0.228209,-0.032245,-0.05578,-0.797069,0.063578,33.689516,-12.793359,-28.866944,4.63583E+18,-0.295395,0.532486,-0.185822,-0.771149,-10.242347,-1.097431,-0.050957,0.529869,-0.422349,2.109661,41.409976,19.593447,-2.67622,4.63582E+18,0.206065,0.685362,0.358678,-0.599305,-9.739738,0.25901,-0.448195,-0.179952,-0.199207,0.517089,38.645602,-21.413937,9.043976,4.63583E+18,-0.523561,0.308607,-0.648973,-0.457689,0
-9.027163,-0.109922,0.209742,0.006929,-0.762719,0.027384,33.475508,-12.649677,-29.07955,4.63583E+18,-0.295964,0.530063,-0.18493,-0.772813,-10.308085,-1.612063,-0.141453,0.616001,-0.450004,2.07904,41.582344,18.861282,-2.917912,4.63582E+18,0.210145,0.687797,0.350817,-0.599752,-9.858775,0.007903,-0.3876,-0.135892,-0.209014,0.563861,38.564071,-21.572634,8.915326,4.63583E+18,-0.522796,0.307029,-0.649007,-0.459573,0
-9.554944,-0.173766,0.427315,0.083841,-0.82904,-0.008805,33.274463,-12.549211,-29.307871,4.63583E+18,-0.296867,0.527355,-0.184122,-0.77451,-10.305837,-1.804443,-0.179528,0.64234,-0.449005,1.987143,41.702946,18.212909,-3.015894,4.63582E+18,0.213903,0.690067,0.343125,-0.600265,-9.82179,-0.274178,-0.298234,-0.077499,-0.207603,0.607153,38.490834,-21.754841,8.923612,4.63583E+18,-0.522016,0.305208,-0.649207,-0.461387,0
-9.74437,-0.036567,0.462422,0.133651,-0.970612,-0.029346,33.110743,-12.649788,-29.548454,4.63583E+18,-0.29805,0.52414,-0.183253,-0.776442,-10.574378,-2.154035,-0.13005,0.615908,-0.427273,1.851656,41.921848,17.618052,-3.201106,4.63582E+18,0.217354,0.692123,0.335882,-0.600755,-9.710919,-0.348433,-0.322072,-0.008109,-0.210267,0.658758,38.390169,-22.014176,8.86875,4.63583E+18,-0.521229,0.30309,-0.649594,-0.463125,0
-9.413238,0.127845,0.499092,0.144828,-1.054331,-0.027895,32.851492,-12.770397,-29.829204,4.63583E+18,-0.29931,0.52063,-0.182317,-0.778536,-10.808925,-2.682241,0.074237,0.529048,-0.390327,1.709067,42.336599,16.969225,-3.469687,4.63582E+18,0.220634,0.69395,0.329279,-0.601107,-9.791691,-0.13307,-0.563654,0.025332,-0.228914,0.710069,38.235393,-22.280625,8.752708,4.63583E+18,-0.520431,0.300725,-0.650063,-0.464903,0
-8.897687,0.247755,0.714534,0.142754,-1.016173,-0.0191,32.52191,-12.76247,-30.167422,4.63583E+18,-0.300503,0.517233,-0.181438,-0.780544,-10.858063,-3.168974,0.301922,0.326073,-0.346771,1.510022,42.66761,16.310148,-3.711366,4.63582E+18,0.223933,0.695391,0.323782,-0.601208,-9.775867,0.157636,-0.785037,0.010089,-0.266746,0.760916,38.135929,-22.439315,8.756627,4.63583E+18,-0.519614,0.298178,-0.650477,-0.466873,0
-8.619845,0.357621,0.858834,0.117742,-0.93908,-0.014137,32.386242,-12.732322,-30.430929,4.63583E+18,-0.301561,0.514107,-0.180582,-0.782397,-11.010582,-3.78818,0.337903,0.066317,-0.289326,1.2485,42.911137,15.686684,-3.796826,4.63582E+18,0.227245,0.696356,0.319735,-0.601014,-9.931542,0.388542,-1.135105,-0.032818,-0.320109,0.817101,38.061501,-22.648922,8.674818,4.63583E+18,-0.518775,0.295466,-0.650753,-0.469141,0
-8.605506,0.431571,0.799934,0.066283,-0.90692,0.001636,32.335969,-12.732322,-30.678663,4.63583E+18,-0.346061,0.50022,-0.208097,-0.765975,-11.354496,-4.797474,0.222669,-0.239835,-0.250376,0.953286,43.019532,15.2967,-3.882277,4.63582E+18,0.230651,0.696719,0.31734,-0.600565,-10.009616,0.077072,-1.563093,-0.076588,-0.377367,0.876232,37.825642,-22.942811,8.429304,4.63583E+18,-0.517912,0.292575,-0.650883,-0.471719,0
-8.66654,0.545029,0.658478,0.00647,-0.926714,0.028715,32.106898,-12.689235,-30.906996,4.63583E+18,-0.346744,0.497322,-0.206757,-0.767913,-11.783501,-5.764808,0.035055,-0.594139,-0.200436,0.594757,43.165379,15.08835,-3.955199,4.63582E+18,0.23412,0.696382,0.316914,-0.599837,-9.971817,-0.401016,-1.98935,-0.098452,-0.432423,0.939736,37.636338,-23.183033,8.285824,4.63583E+18,-0.517039,0.289447,-0.650916,-0.474551,0
-8.641403,0.689363,0.612525,-0.043921,-0.960957,0.047501,31.777298,-12.608809,-31.097288,4.63583E+18,-0.347373,0.494342,-0.205301,-0.769941,-12.231911,-7.1417,-0.417246,-0.935507,-0.143308,0.208584,43.165379,15.08835,-3.940889,4.63582E+18,0.237536,0.695336,0.318513,-0.598861,-9.948809,-0.426103,-1.747947,-0.114736,-0.470691,1.021393,37.567015,-23.493272,8.231706,4.63583E+18,-0.516081,0.286051,-0.65092,-0.477638,0
-8.62776,0.794914,0.766184,-0.086455,-0.949648,0.053596,31.454902,-12.67415,-31.278232,4.63583E+18,-0.347879,0.491449,-0.203735,-0.771978,-12.707367,-9.07214,-1.033283,-1.156615,-0.111033,-0.169874,43.151071,15.12412,-3.859328,4.63582E+18,0.240602,0.693635,0.321784,-0.597859,-10.286701,-0.209826,-0.960917,-0.11931,-0.498503,1.10888,37.447242,-23.86755,8.18126,4.63583E+18,-0.515007,0.282365,-0.650945,-0.480946,0
-8.757716,0.9019,0.902624,-0.125598,-0.877209,0.05636,31.087267,-12.837865,-31.398869,4.63583E+18,-0.34823,0.488838,-0.202151,-0.773892,-12.983315,-10.490979,-1.782042,-1.263831,-0.093734,-0.555566,43.055208,15.380754,-3.842938,4.63582E+18,0.242989,0.691333,0.326445,-0.597033,-10.420522,0.000686,-0.272953,-0.090047,-0.520369,1.187376,37.026914,-23.932271,8.033394,4.63583E+18,-0.513858,0.278352,-0.651055,-0.484353,0
-9.053525,0.822958,0.863153,-0.150418,-0.795782,0.078409,30.727524,-12.903225,-31.541746,4.63583E+18,-0.348385,0.486502,-0.200648,-0.775683,-12.927034,-11.325535,-2.71547,-1.319112,-0.062758,-0.93567,42.955457,15.733588,-3.659827,4.63582E+18,0.244538,0.688508,0.332355,-0.596404,-10.245461,0.316199,0.30837,-0.075717,-0.534254,1.273627,36.260898,-23.89586,7.928841,4.63583E+18,-0.512575,0.274037,-0.651246,-0.487904,0
-9.319289,0.567265,0.724534,-0.1677,-0.757064,0.129376,30.491209,-12.766773,-31.846989,4.63583E+18,-0.348304,0.484271,-0.199248,-0.777474,-12.722179,-11.968942,-3.754868,-1.338883,-0.030844,-1.315481,42.759842,16.234384,-3.478506,4.63582E+18,0.245143,0.68518,0.339418,-0.59601,-10.411721,0.664707,0.577662,-0.10177,-0.552935,1.349669,35.62724,-24.113736,7.699222,4.63583E+18,-0.51114,0.269525,-0.651407,-0.491692,0
-9.435625,0.221755,0.738234,-0.170775,-0.706271,0.202033,30.463958,-12.671285,-32.180251,4.63583E+18,-0.347936,0.482146,-0.198057,-0.779262,-12.281876,-12.557525,-4.863527,-1.299367,0.0106,-1.697188,42.505593,16.797359,-3.291548,4.63582E+18,0.244613,0.681408,0.34749,-0.595901,-10.771963,0.641306,0.386348,-0.129433,-0.578349,1.415851,35.249016,-24.407633,7.341307,4.63583E+18,-0.509587,0.264834,-0.651505,-0.495706,0
-9.417629,-0.298198,0.757558,-0.158898,-0.600887,0.2878,30.400692,-12.721578,-32.408561,4.63583E+18,-0.347222,0.480272,-0.197228,-0.780946,-11.631605,-13.067809,-6.232277,-1.199803,0.083257,-2.060622,42.331116,17.321077,-3.012564,4.63582E+18,0.242771,0.677331,0.356389,-0.596047,-11.039568,0.202982,-0.244005,-0.079863,-0.602669,1.493793,35.062476,-24.749582,7.065111,4.63583E+18,-0.507973,0.259766,-0.651712,-0.499757,0
-9.40186,-0.772014,0.804277,-0.129489,-0.374296,0.373743,30.141449,-12.807019,-32.59165,4.63583E+18,-0.346099,0.479021,-0.196995,-0.782271,-11.076305,-14.147761,-7.107623,-0.945521,0.185778,-2.368846,42.100091,18.028476,-2.75829,4.63582E+18,0.190595,0.700419,0.310349,-0.613816,-11.403915,0.286109,-0.711005,-0.050012,-0.642451,1.586927,34.611882,-25.27935,6.991398,4.63583E+18,-0.506281,0.254287,-0.651967,-0.503941,0
-9.411908,-0.956493,0.825788,-0.091227,-0.152154,0.439456,29.912423,-12.935562,-32.602367,4.63583E+18,-0.344654,0.478385,-0.197337,-0.783211,-10.74974,-14.552268,-7.714036,-0.562458,0.235866,-2.633176,41.660668,19.029665,-2.589188,4.63582E+18,0.185184,0.697082,0.319643,-0.614501,-11.809093,1.011485,-0.784716,-0.109853,-0.686969,1.672937,33.640648,-25.595482,6.813461,4.63583E+18,-0.504439,0.248596,-0.652058,-0.508489,0
-9.656118,-0.840122,0.10179,-0.05447,-0.212343,0.447613,29.847101,-13.051163,-32.614606,4.63583E+18,-0.343303,0.477493,-0.19773,-0.784249,-10.178518,-15.278599,-6.830686,-0.130403,0.417703,-2.843015,41.210498,20.078936,-2.442982,4.63582E+18,0.177715,0.694171,0.328536,-0.615311,-12.023346,1.212792,-0.876567,-0.205294,-0.732471,1.766584,33.037271,-25.757872,6.416584,4.63583E+18,-0.502393,0.242743,-0.651909,-0.513509,0
-10.329744,-0.442981,-0.110514,-0.002441,-0.423394,0.425999,29.796823,-13.043241,-32.820004,4.63583E+18,-0.342298,0.475854,-0.197947,-0.785628,-9.13555,-14.383644,-6.414125,0.635364,0.394171,-2.81338,40.720989,20.959074,-2.369739,4.63582E+18,0.168115,0.691707,0.335313,-0.617126,-12.073122,0.812786,-1.067501,-0.267804,-0.768942,1.875598,33.698868,-26.716358,6.163193,4.63583E+18,-0.500117,0.236629,-0.651616,-0.518928,0
-11.019062,0.105643,0.423036,0.062465,-0.579017,0.402562,29.617997,-13.106466,-33.043314,4.63583E+18,-0.341624,0.473631,-0.198108,-0.787223,-9.159562,-7.87914,-9.359956,1.101861,0.435499,-2.579272,40.343833,21.701867,-2.296502,4.63582E+18,0.15769,0.689903,0.340195,-0.619221,-12.401641,0.482487,-1.001253,-0.26011,-0.783688,2.015645,34.648522,-28.244951,5.913129,4.63583E+18,-0.497546,0.230071,-0.651397,-0.524591,0
-11.334235,0.722487,0.680748,0.139374,-0.689473,0.388868,29.381031,-13.322623,-33.168964,4.63583E+18,-0.341234,0.470945,-0.198336,-0.788944,-7.564799,-1.556281,-7.545211,1.070732,0.637325,-2.771269,39.806163,22.471751,-2.223258,4.63582E+18,0.146552,0.688224,0.345789,-0.620725,-13.38397,0.577658,-0.545901,-0.292027,-0.805558,2.146416,34.355752,-29.22127,5.558667,4.63583E+18,-0.494674,0.22316,-0.651132,-0.530589,0
-11.43978,1.390979,0.760458,0.265227,-0.765615,0.374101,29.141925,-13.521507,-33.304682,4.63583E+18,-0.341199,0.467838,-0.198838,-0.79068,-5.74016,0.031182,-4.658511,0.955247,0.640508,-2.649932,39.147533,23.435548,-2.137542,4.63582E+18,0.136032,0.686554,0.351282,-0.621885,-14.25165,0.29271,-0.665199,-0.389198,-0.815681,2.29089,33.540899,-29.81018,5.252527,4.63583E+18,-0.491371,0.216015,-0.650701,-0.537103,0
-11.647307,2.031473,1.107298,0.39371,-0.789361,0.36028,28.940876,-13.637108,-33.43249,4.63583E+18,-0.341474,0.464476,-0.199702,-0.792324,-6.151582,0.548779,-4.92858,1.307756,0.734851,-2.311723,38.672328,24.217624,-2.003793,4.63582E+18,0.125224,0.685727,0.354897,-0.623013,-15.280626,-0.372604,-0.918429,-0.417185,-0.82329,2.478793,33.097144,-30.476695,5.023547,4.63583E+18,-0.487589,0.208375,-0.650289,-0.544023,0
-12.098271,2.383321,1.74927,0.589185,-0.840886,0.342309,28.683798,-13.866183,-33.458336,4.63583E+18,-0.342224,0.460675,-0.201099,-0.793864,-4.215431,8.03408,-2.65635,1.660419,0.647147,-1.941294,38.403517,24.79316,-2.072917,4.63582E+18,0.114485,0.685319,0.356447,-0.624641,-16.620805,-0.964167,-0.847236,-0.46953,-0.848671,2.678225,32.7719,-31.110406,4.79403,4.63583E+18,-0.483317,0.200215,-0.649798,-0.551436,0
-12.781837,2.49677,2.359597,0.843198,-1.027108,0.32277,28.366428,-14.339366,-33.599071,4.63583E+18,-0.343672,0.455902,-0.20303,-0.795501,-4.150412,16.064112,-1.141155,1.687076,0.492052,-1.471445,38.049222,25.352469,-2.433083,4.63582E+18,0.105113,0.685146,0.356472,-0.626462,-17.6511,-2.28048,-1.064025,-0.538009,-0.875839,2.915495,32.074045,-31.692023,4.416565,4.63583E+18,-0.478444,0.191457,-0.649194,-0.559449,0
-13.357013,2.534112,2.704997,0.855098,-1.281754,0.301094,27.998794,-14.81975,-33.855413,4.63583E+18,-0.344951,0.450391,-0.204323,-0.797752,-6.895921,14.824884,-0.96195,1.029713,0.679093,-1.437292,37.623787,25.744603,-2.500256,4.63582E+18,0.097421,0.685171,0.35817,-0.626709,-19.136178,-3.191171,-1.152371,-0.599549,-0.891696,3.211964,31.084316,-32.548486,4.047942,4.63583E+18,-0.472785,0.18195,-0.648534,-0.56813,0
-13.48058,2.338132,3.671314,0.725102,-1.502663,0.230234,27.545726,-15.040943,-34.068679,4.63583E+18,-0.346727,0.44429,-0.204918,-0.800247,-12.030628,-2.588363,-1.918738,0.037547,0.771978,-1.786946,37.217628,26.14534,-2.333151,4.63582E+18,0.091505,0.684471,0.363469,-0.625313,-21.679018,-5.100926,-1.185107,-0.706902,-0.945699,3.531356,30.14833,-33.536233,3.776465,4.63583E+18,-0.466333,0.171623,-0.647617,-0.577643,0
-12.959409,2.032233,5.447673,0.683111,-1.646245,0.1233,27.007206,-15.076143,-34.25178,4.63583E+18,-0.349019,0.437807,-0.205033,-0.80279,-16.398052,-17.572511,-1.830683,0.215694,0.355462,-1.874923,36.865397,26.952552,-2.288359,4.63582E+18,0.085478,0.682577,0.368372,-0.625367,-23.800593,-8.217657,-1.534258,-0.699716,-1.006239,3.885517,29.193219,-34.573864,3.38826,4.63583E+18,-0.459075,0.160136,-0.646683,-0.587714,0
-11.517006,2.13191,6.793588,0.597817,-1.545976,0.032124,26.440637,-15.176638,-34.535386,4.63583E+18,-0.351357,0.431842,-0.204833,-0.805049,-14.543383,-13.089654,3.153902,0.663332,0.039726,-1.681159,36.511193,27.636704,-2.380214,4.63582E+18,0.079163,0.680276,0.371422,-0.6269,-25.630221,-10.379738,-2.0738,-0.652469,-1.044778,4.296566,28.101912,-35.611452,2.844316,4.63583E+18,-0.4508,0.147308,-0.645863,-0.598282,0
-9.364292,2.519666,6.993468,0.401798,-1.097239,-0.024496,26.06573,-15.397789,-34.846331,4.63583E+18,-0.353137,0.427703,-0.204523,-0.806557,-9.613649,-0.499372,6.537384,0.315116,-0.038725,-1.636463,36.098177,27.966276,-2.294769,4.63582E+18,0.074069,0.67769,0.375207,-0.628068,-28.631064,-12.806302,-2.531778,-0.765552,-1.132015,4.654666,26.743108,-36.68024,2.206657,4.63583E+18,-0.441625,0.133459,-0.644575,-0.609655,0
-7.458457,2.750225,6.707688,0.2398,-0.503643,-0.029097,26.101518,-15.546466,-35.012244,4.63583E+18,-0.353816,0.425878,-0.204365,-0.807265,-8.477164,0.705686,4.748825,-0.436377,-0.026217,-1.882093,35.754334,28.343876,-2.211087,4.63582E+18,0.070433,0.674482,0.381635,-0.628067,-30.621505,-16.082834,-3.299822,-0.902365,-1.242208,4.970203,25.195692,-37.737417,1.604568,4.63583E+18,-0.431674,0.118678,-0.642633,-0.621768,0
-6.4192,3.046652,5.314685,0.069828,-0.112193,0.002309,26.29755,-15.533591,-35.054631,4.63583E+18,-0.353917,0.425552,-0.204355,-0.807395,-9.465627,-4.732462,1.731693,-1.072905,-0.026256,-2.030666,35.314692,28.988805,-2.081033,4.63582E+18,0.068192,0.670799,0.390115,-0.627048,-31.649666,-17.773519,-4.38433,-1.024805,-1.334404,5.201306,23.683015,-38.655859,1.166594,4.63583E+18,-0.421101,0.103198,-0.640009,-0.63436,0
-5.987499,3.129475,2.840512,-0.053065,-0.129531,-0.000677,26.224484,-15.453175,-35.059662,4.63583E+18,-0.35382,0.425355,-0.203899,-0.807657,-8.569412,-6.332971,-0.227239,-1.122168,-0.092849,-2.001712,34.80199,29.539684,-1.645565,4.63582E+18,0.066267,0.666914,0.398586,-0.62607,-33.477053,-16.692497,-5.45421,-1.21311,-1.469765,5.33309,22.014894,-39.710642,0.634316,4.63583E+18,-0.410234,0.087284,-0.636367,-0.6474,0
-5.584783,2.590545,1.482346,0.02391,-0.492985,-0.011375,25.930132,-15.56144,-35.102709,4.63583E+18,-0.354203,0.42383,-0.203149,-0.808479,-7.118258,-6.387797,-2.055675,-0.725471,-0.162888,-1.880039,34.314174,30.054529,-1.446214,4.63582E+18,0.063668,0.663104,0.405633,-0.625861,-33.387399,-14.149754,-7.077786,-1.228895,-1.59517,5.357229,20.153409,-40.830122,0.11903,4.63583E+18,-0.3994,0.070944,-0.632123,-0.660203,0
-5.017599,1.69881,1.772492,0.202844,-0.803199,0.03056,25.700983,-15.805575,-35.183123,4.63583E+18,-0.35503,0.420956,-0.202622,-0.809749,-5.866477,-4.903964,-5.427714,-0.448183,-0.118456,-1.741473,33.959993,30.699278,-1.611177,4.63582E+18,0.060587,0.659676,0.411558,-0.625921,-30.192288,-12.312972,-8.674583,-0.471776,-1.594961,5.29874,18.378538,-41.655245,-0.248135,4.63583E+18,-0.38873,0.05346,-0.629599,-0.670549,0
-4.509773,0.832662,2.515806,0.339242,-0.747756,0.119643,25.348559,-15.712529,-35.168136,4.63583E+18,-0.355892,0.417953,-0.20287,-0.810864,-6.840236,-3.502669,-8.414338,-0.241399,-0.012796,-1.650094,33.499041,31.175173,-1.486722,4.63582E+18,0.056992,0.656698,0.416697,-0.62599,-26.790973,-9.997178,-9.485371,0.612245,-1.591962,5.239935,16.621777,-42.3183,-0.534234,4.63583E+18,-0.37825,0.034358,-0.629765,-0.6776,0
-4.455594,-0.044755,2.70726,0.450195,-0.50323,0.262801,24.530248,-15.14618,-35.08986,4.63583E+18,-0.356253,0.415487,-0.204102,-0.811663,-9.178626,-2.354242,-9.586877,0.072189,0.065258,-1.572961,32.873489,31.59047,-1.214273,4.63582E+18,0.052604,0.654103,0.420805,-0.626343,-24.056198,-3.942644,-7.723491,0.858827,-1.360194,5.276224,14.8698,-43.013159,-0.601537,4.63583E+18,-0.366896,0.015411,-0.630668,-0.683672,0
-4.835246,-1.087174,2.256631,0.578722,-0.499469,0.409206,23.523575,-14.700743,-35.167258,4.63583E+18,-0.356334,0.412716,-0.206027,-0.812554,-10.832784,-1.016726,-8.87331,0.306219,0.168238,-1.538066,32.458683,32.080489,-1.421778,4.63582E+18,0.047486,0.651861,0.424211,-0.626791,-21.045887,3.971736,-6.535028,1.099172,-0.911599,4.835568,13.210557,-43.68355,-0.290462,4.63583E+18,-0.35546,-0.001475,-0.632612,-0.688076,0
-5.142071,-2.310613,2.298219,0.736589,-0.876652,0.507694,22.927167,-14.743502,-35.343187,4.63583E+18,-0.356671,0.408344,-0.208093,-0.814088,-12.761319,-0.433179,-6.601897,0.411808,0.25858,-1.583999,32.129283,32.566811,-1.59917,4.63582E+18,0.041801,0.649766,0.427464,-0.627161,-20.769832,3.967192,-6.368512,0.905472,-0.84629,4.143218,11.548482,-44.145437,0.050804,4.63583E+18,-0.345704,-0.016063,-0.633862,-0.691701,0
-4.904149,-3.475495,3.85596,0.879692,-1.215909,0.536277,22.748188,-15.13827,-35.456712,4.63583E+18,-0.357436,0.40257,-0.210181,-0.816088,-13.847537,-0.804136,-3.444576,0.451344,0.294568,-1.68871,31.862298,32.959014,-1.588536,4.63582E+18,0.035671,0.647553,0.43088,-0.627491,-21.425435,-3.296611,-5.202882,0.831279,-0.756169,3.727333,10.032946,-44.444724,0.170417,4.63583E+18,-0.336811,-0.029177,-0.634872,-0.694726,0
-4.207151,-4.083521,6.102726,0.898354,-1.026409,0.465048,22.574547,-15.581366,-35.587324,4.63583E+18,-0.358296,0.397461,-0.212489,-0.817617,-14.234975,-1.650094,-0.73692,0.437874,0.313194,-1.806815,31.483141,33.288581,-1.527697,4.63582E+18,0.029233,0.645138,0.434626,-0.627728,-17.748435,-10.650691,-4.491265,0.922241,-0.81162,3.132272,8.749764,-44.627828,0.421898,4.63583E+18,-0.3297,-0.040997,-0.635997,-0.696509,0
-4.034658,-4.012925,6.904536,0.884037,-0.366571,0.326235,22.287408,-16.091713,-35.693675,4.63583E+18,-0.359011,0.394736,-0.215498,-0.817836,-14.641419,-2.487339,0.972612,0.397893,0.27717,-1.933698,30.778082,33.639432,-1.541675,4.63582E+18,0.022635,0.642353,0.438785,-0.627963,-10.456878,-9.607696,-1.6097,1.184757,-0.54681,2.479363,7.823044,-44.810925,1.122059,4.63583E+18,-0.323689,-0.050674,-0.638255,-0.696627,0
-5.132614,-3.222444,6.651892,0.958138,0.188798,0.201294,22.163605,-16.713441,-35.475129,4.63583E+18,-0.359769,0.3939,-0.219381,-0.816873,-14.310122,-2.671461,1.309237,0.298402,0.239835,-2.087613,29.920793,34.119055,-1.564318,4.63582E+18,0.015968,0.639133,0.443579,-0.628086,-10.279125,-13.816958,-6.079776,1.672004,0.029885,1.552207,7.128183,-44.962791,1.684601,4.63583E+18,-0.318697,-0.056861,-0.642829,-0.69424,0
-7.672494,-2.063495,6.932416,0.930295,0.476621,0.208895,22.31919,-17.123874,-35.074407,4.63583E+18,-0.360186,0.394072,-0.22361,-0.815458,-13.280721,-2.625132,0.270989,0.210703,0.226789,-2.218144,29.380909,34.630125,-1.578294,4.63582E+18,0.009217,0.63558,0.448911,-0.628038,-8.782004,-22.497229,-11.475782,2.1594,0.308681,0.833278,6.719946,-45.048239,2.138168,4.63583E+18,-0.314891,-0.060952,-0.649295,-0.689598,0
-10.943804,-0.549647,6.490548,0.721391,0.673378,0.335557,22.754754,-17.368018,-34.913174,4.63583E+18,-0.35964,0.395102,-0.227629,-0.814088,-11.993455,-2.961122,-1.040152,0.209344,0.245273,-2.311427,29.04333,35.203874,-1.588552,4.63582E+18,0.002191,0.631844,0.454453,-0.627886,-5.667644,-21.62632,-11.854721,2.654729,0.432965,0.387516,6.640332,-45.110258,3.024294,4.63583E+18,-0.311871,-0.064119,-0.657388,-0.682983,0
-13.268483,1.274773,4.368831,0.427652,0.521726,0.41015,23.323435,-17.805689,-34.956183,4.63583E+18,-0.358496,0.395982,-0.230544,-0.813344,-10.718618,-3.777414,-2.158601,0.283464,0.270892,-2.356969,28.284536,35.775841,-1.515309,4.63582E+18,-0.005197,0.628029,0.459876,-0.627747,-5.365106,-16.419624,-10.485226,2.948531,0.589226,-0.320371,6.676954,-45.095137,4.190815,4.63583E+18,-0.310319,-0.065275,-0.666614,-0.674587,0
-13.190345,2.050844,1.837205,0.087274,-0.377365,0.35179,23.273569,-18.135726,-35.029426,4.63583E+18,-0.357849,0.394378,-0.230865,-0.814317,-10.129187,-4.454682,-2.699264,0.398428,0.291664,-2.368563,27.456456,36.351471,-1.456217,4.63582E+18,-0.012955,0.624182,0.464982,-0.627711,-4.295792,-8.493826,-10.585102,2.609982,0.822394,-1.124727,6.838491,-45.017993,5.330028,4.63583E+18,-0.310429,-0.063091,-0.675303,-0.666047,0
