Accelerometer-X,Accelerometer-Y,Accelerometer-Z,Gyroscope-X,Gyroscope-Y,Gyroscope-Z,Magnetometer-X,Magnetometer-Y,Magnetometer-Z,Barometer-pressure,Orientation-S,Orientation-X,Orientation-Y,Orientation-Z,Accelerometer-X,Accelerometer-Y,Accelerometer-Z,Gyroscope-X,Gyroscope-Y,Gyroscope-Z,Magnetometer-X,Magnetometer-Y,Magnetometer-Z,Barometer-pressure,Orientation-S,Orientation-X,Orientation-Y,Orientation-Z,Accelerometer-X,Accelerometer-Y,Accelerometer-Z,Gyroscope-X,Gyroscope-Y,Gyroscope-Z,Magnetometer-X,Magnetometer-Y,Magnetometer-Z,Barometer-pressure,Orientation-S,Orientation-X,Orientation-Y,Orientation-Z,jump
-9.855842,-0.429194,-0.193383,-0.017820,0.009835,0.015123,41.395445,5.871164,-19.123338,4635731465311617000.000000,0.059074,0.672093,0.099913,-0.731313,-9.380605,2.293117,-1.553784,-0.000301,-0.000301,-0.011284,45.786220,4.516433,-5.523678,4635727599304179700.000000,0.349397,0.718119,0.275806,-0.534938,-9.702787,-1.509519,-0.603217,0.001327,-0.006409,0.007477,44.021140,-14.384987,-4.608568,4635728995705421800.000000,-0.421407,0.644921,-0.387629,-0.506199,0
-9.812819,-0.447201,-0.179244,-0.015853,0.004833,0.016191,41.617695,5.919262,-19.287697,4635731465311617000.000000,0.059189,0.672094,0.099872,-0.731308,-9.373409,2.322850,-1.548773,-0.004684,-0.000466,-0.013420,45.818137,4.577776,-5.328366,4635727599304179700.000000,0.349457,0.718103,0.275784,-0.534931,-9.692678,-1.503608,-0.591010,-0.000626,-0.006409,0.008103,43.913469,-14.276369,-4.427952,4635728995705421800.000000,-0.421423,0.644896,-0.387617,-0.506227,0
-9.800611,-0.492164,-0.152895,-0.014277,0.002644,0.017090,41.709317,5.847346,-19.272227,4635731465311617000.000000,0.059303,0.672090,0.099822,-0.731310,-9.399700,2.331614,-1.510275,-0.014488,0.000767,-0.014954,45.789654,4.553678,-5.270770,4635727599304179700.000000,0.349541,0.718074,0.275791,-0.534911,-9.699830,-1.520870,-0.585955,-0.000442,-0.003906,0.009797,43.812370,-14.195977,-4.439673,4635728995705421800.000000,-0.421432,0.644873,-0.387614,-0.506251,0
-9.786470,-0.510777,-0.118207,-0.010343,0.006694,0.016752,41.406788,5.860882,-19.174569,4635731465311617000.000000,0.059403,0.672098,0.099763,-0.731302,-9.403143,2.321286,-1.504953,-0.015119,0.000000,-0.015557,45.826908,4.516423,-5.563747,4635727599304179700.000000,0.349628,0.718041,0.275800,-0.534895,-9.697734,-1.511622,-0.585955,0.000000,-0.002136,0.011933,43.998320,-14.160588,-4.487269,4635729121518636000.000000,-0.421432,0.644851,-0.387618,-0.506274,0
-9.771724,-0.490835,-0.103460,-0.008545,0.015070,0.014446,41.298370,5.959870,-19.109782,4635731465311617000.000000,0.059487,0.672132,0.099706,-0.731272,-9.415350,2.277781,-1.524045,-0.010408,0.000000,-0.015584,45.741461,4.601872,-5.719026,4635727599304179700.000000,0.349700,0.718015,0.275798,-0.534884,-9.685527,-1.508662,-0.585955,0.000000,-0.002762,0.013443,44.079707,-14.160588,-4.549532,4635729210453786600.000000,-0.421429,0.644827,-0.387623,-0.506304,0
-9.804478,-0.439467,-0.140083,-0.009053,0.020855,0.011919,41.445463,6.090166,-19.186776,4635731465311617000.000000,0.059563,0.672183,0.099659,-0.731225,-9.417233,2.233955,-1.553781,-0.002466,-0.000301,-0.011449,45.680103,4.639140,-5.551254,4635727599304179700.000000,0.349758,0.718004,0.275765,-0.534877,-9.680470,-1.520868,-0.585955,0.000626,-0.002579,0.013886,43.908453,-14.160588,-4.525630,4635729210453786600.000000,-0.421427,0.644801,-0.387633,-0.506332,0
-9.820552,-0.435600,-0.180570,-0.012426,0.016129,0.013325,41.517380,6.004717,-19.118119,4635731465311617000.000000,0.059654,0.672219,0.099617,-0.731190,-9.389377,2.247720,-1.541901,0.001835,-0.001971,-0.010681,45.704192,4.529600,-5.505212,4635727599304179700.000000,0.349808,0.717996,0.275718,-0.534879,-9.680470,-1.497324,-0.585955,0.001694,-0.002136,0.012635,43.905325,-14.160588,-4.487267,4635729210453786600.000000,-0.421431,0.644775,-0.387643,-0.506353,0
-9.845582,-0.409259,-0.235802,-0.016191,0.005172,0.015515,41.517380,5.932798,-19.205485,4635731465311617000.000000,0.059767,0.672222,0.099578,-0.731184,-9.356197,2.269021,-1.499625,0.001670,-0.003369,-0.009477,45.741471,4.430958,-5.487439,4635727599304179700.000000,0.349862,0.717987,0.275666,-0.534883,-9.666172,-1.427049,-0.585955,0.000885,-0.000885,0.011124,43.971066,-14.203485,-4.542371,4635729210453786600.000000,-0.421433,0.644756,-0.387649,-0.506371,0
-9.810891,-0.390014,-0.254425,-0.018104,0.003259,0.012649,41.530895,5.921213,-19.256804,4635731431345656800.000000,0.059878,0.672217,0.099551,-0.731183,-9.335224,2.223636,-1.512167,0.002602,-0.001068,-0.006409,45.700742,4.516402,-5.258288,4635727599304179700.000000,0.349918,0.717987,0.275605,-0.534877,-9.656056,-1.391644,-0.593104,-0.000626,-0.001251,0.010056,43.921024,-14.283875,-4.634968,4635729210453786600.000000,-0.421432,0.644743,-0.387646,-0.506392,0
-9.786476,-0.449743,-0.246079,-0.024175,-0.002643,0.011750,41.589314,5.873069,-19.061486,4635731250563252200.000000,0.060005,0.672193,0.099545,-0.731195,-9.323016,2.214531,-1.463337,0.000767,-0.001369,-0.006409,45.780866,4.553698,-5.270699,4635727599304179700.000000,0.349980,0.717984,0.275548,-0.534871,-9.677503,-1.420240,-0.605312,-0.000443,-0.002762,0.007737,43.885616,-14.269242,-4.675436,4635729210453786600.000000,-0.421438,0.644730,-0.387633,-0.506413,0
-9.769784,-0.435605,-0.256355,-0.028785,-0.006523,0.011412,41.478768,5.943075,-18.912505,4635731267544194000.000000,0.060145,0.672156,0.099552,-0.731217,-9.317688,2.275566,-1.428266,0.000000,-0.001835,-0.007312,45.802856,4.468249,-5.508638,4635727599304179700.000000,0.350043,0.717977,0.275494,-0.534866,-9.685529,-1.440474,-0.596072,0.000000,-0.005081,0.005158,43.935657,-14.190939,-4.568201,4635729210453786600.000000,-0.421457,0.644714,-0.387613,-0.506433,0
-9.790338,-0.418910,-0.250567,-0.034518,-0.012649,0.009782,41.286736,5.907717,-19.008226,4635731357937434600.000000,0.060300,0.672098,0.099579,-0.731254,-9.329894,2.319407,-1.438581,-0.002106,-0.000466,-0.009914,45.680103,4.430940,-5.551278,4635727599304179700.000000,0.350105,0.717968,0.275455,-0.534858,-9.680470,-1.433325,-0.585955,-0.001876,-0.006409,0.002396,43.971066,-14.160588,-4.377955,4635729210453786600.000000,-0.421483,0.644700,-0.387585,-0.506451,0
-9.788408,-0.445255,-0.221663,-0.036823,-0.010399,0.010513,41.408844,5.774102,-19.112970,4635731357937434600.000000,0.060461,0.672047,0.099612,-0.731283,-9.352416,2.312530,-1.471765,-0.007176,0.001670,-0.011283,45.724800,4.516392,-5.481124,4635727599304179700.000000,0.350176,0.717954,0.275434,-0.534841,-9.666176,-1.449709,-0.600250,-0.003204,-0.005158,0.000443,43.921035,-14.160588,-4.411366,4635729147585836000.000000,-0.421507,0.644694,-0.387550,-0.506465,0
-9.781988,-0.479947,-0.230011,-0.039353,-0.003711,0.010289,41.650994,5.785678,-19.303132,4635731357937434600.000000,0.060627,0.672015,0.099654,-0.731293,-9.387493,2.281240,-1.499617,-0.005206,0.002302,-0.011915,45.862864,4.601841,-5.508627,4635727569065734100.000000,0.350240,0.717943,0.275412,-0.534825,-9.656056,-1.450595,-0.596077,-0.003204,-0.003022,-0.001251,43.885616,-14.117708,-4.542351,4635729103079604200.000000,-0.421528,0.644698,-0.387510,-0.506473,0
-9.808333,-0.502433,-0.206228,-0.037609,-0.007928,0.014561,41.490369,5.874357,-19.369922,4635731374907529200.000000,0.060802,0.671973,0.099679,-0.731314,-9.390930,2.242725,-1.515615,-0.001836,0.000902,-0.008410,45.900194,4.639171,-5.578784,4635727491929997300.000000,0.350304,0.717938,0.275369,-0.534812,-9.670348,-1.419036,-0.593101,-0.003830,-0.004012,-0.000886,43.885616,-14.087343,-4.470586,4635729103079604200.000000,-0.421549,0.644700,-0.387471,-0.506483,0
-9.829521,-0.510782,-0.132352,-0.033619,-0.016191,0.018496,41.373482,6.031754,-19.243328,4635731465311617000.000000,0.060981,0.671908,0.099677,-0.731358,-9.403137,2.227081,-1.492740,-0.001369,0.002904,-0.004739,45.883476,4.601834,-5.523795,4635727491929997300.000000,0.350372,0.717942,0.275317,-0.534788,-9.680470,-1.439581,-0.598163,-0.003647,-0.005341,-0.001251,43.935637,-14.130220,-4.337497,4635729103079604200.000000,-0.421577,0.644696,-0.387433,-0.506493,0
-9.778130,-0.502431,-0.118218,-0.035305,-0.016416,0.020295,41.555937,6.078639,-18.991504,4635731465311617000.000000,0.061171,0.671843,0.099676,-0.731403,-9.405035,2.212976,-1.508383,-0.002136,0.002136,-0.002603,46.000931,4.639174,-5.355974,4635727491929997300.000000,0.350448,0.717946,0.275259,-0.534763,-9.687615,-1.493466,-0.591018,-0.003204,-0.005966,-0.002761,43.921057,-14.160588,-4.354160,4635729103079604200.000000,-0.421611,0.644692,-0.387391,-0.506502,0
-9.781988,-0.504995,-0.103446,-0.029402,-0.014168,0.020126,41.749954,5.931502,-18.907338,4635731465311617000.000000,0.061343,0.671786,0.099658,-0.731443,-9.377187,2.211441,-1.532796,-0.000333,0.002437,0.000435,45.961610,4.553729,-5.285806,4635727491929997300.000000,0.350526,0.717957,0.275189,-0.534735,-9.664106,-1.506575,-0.593098,-0.002579,-0.005784,-0.002579,43.842757,-14.160588,-4.337521,4635729103079604200.000000,-0.421647,0.644687,-0.387352,-0.506508,0
-9.790935,-0.467751,-0.120737,-0.025857,-0.020855,0.018719,41.661193,5.846009,-18.897060,4635731465311617000.000000,0.061504,0.671709,0.099631,-0.731504,-9.350871,2.188560,-1.543470,0.006978,0.002603,0.004573,45.818187,4.468277,-5.285806,4635727491929997300.000000,0.350590,0.717983,0.275089,-0.534708,-9.643848,-1.480081,-0.591020,-0.000886,-0.002216,-0.001511,43.862373,-14.117729,-4.239861,4635729103079604200.000000,-0.421681,0.644683,-0.387328,-0.506503,0
-9.721566,-0.499897,-0.043029,-0.020348,-0.016298,0.015853,41.517380,5.760567,-18.926063,4635731465311617000.000000,0.061638,0.671647,0.099596,-0.731555,-9.344001,2.211072,-1.515621,0.013886,0.000467,0.005641,45.765556,4.454961,-5.340764,4635727491929997300.000000,0.350639,0.718015,0.274968,-0.534695,-9.636706,-1.457746,-0.585955,-0.001875,-0.001250,-0.002318,43.940675,-14.087343,-4.256485,4635729103079604200.000000,-0.421712,0.644685,-0.387301,-0.506495,0
-9.678538,-0.557676,-0.027666,-0.014954,-0.006409,0.014954,41.530905,5.702176,-19.111088,4635731465311617000.000000,0.061750,0.671616,0.099550,-0.731580,-9.326456,2.249596,-1.482436,0.011482,-0.000768,0.006108,45.741519,4.625850,-5.508595,4635727491929997300.000000,0.350698,0.718042,0.274849,-0.534682,-9.638783,-1.481247,-0.585955,-0.002580,-0.000887,-0.001955,43.963924,-14.130193,-4.468405,4635729103079604200.000000,-0.421735,0.644692,-0.387268,-0.506493,0
-9.677925,-0.542923,-0.119528,-0.013094,-0.007423,0.015292,41.589304,5.799221,-19.261964,4635731465311617000.000000,0.061858,0.671583,0.099497,-0.731608,-9.336758,2.268671,-1.464888,0.003838,0.000601,0.003838,45.680103,4.724643,-5.578784,4635727491929997300.000000,0.350773,0.718058,0.274756,-0.534659,-9.665276,-1.522938,-0.585955,0.000989,0.001250,-0.000443,43.866007,-14.160588,-4.582841,4635729228727500800.000000,-0.421759,0.644697,-0.387248,-0.506483,0
-9.733165,-0.562154,-0.168971,-0.002866,-0.015354,0.016583,41.530905,5.959850,-19.161055,4635731465311617000.000000,0.061945,0.671529,0.099406,-0.731662,-9.363078,2.305292,-1.475189,0.000000,0.001535,0.000000,45.724738,4.615160,-5.523849,4635727491929997300.000000,0.350851,0.718065,0.274684,-0.534635,-9.701895,-1.538133,-0.585955,0.003204,0.002136,0.000000,43.850154,-14.117740,-4.527787,4635729317827969000.000000,-0.421787,0.644698,-0.387236,-0.506467,0
-9.751783,-0.492774,-0.141306,-0.000223,-0.030193,0.013210,41.627949,6.090176,-18.991469,4635731465311617000.000000,0.062020,0.671431,0.099314,-0.731759,-9.363078,2.314452,-1.494646,0.000000,0.000000,0.000000,45.862825,4.492324,-5.383465,4635727522120529900.000000,0.350930,0.718069,0.274610,-0.534616,-9.731375,-1.516710,-0.593096,0.004454,0.001511,-0.000625,43.935602,-14.080202,-4.435196,4635729317827969000.000000,-0.421823,0.644695,-0.387227,-0.506448,0
-9.741508,-0.451674,-0.052694,0.003427,-0.038399,0.009444,41.736411,6.004726,-18.938248,4635731465311617000.000000,0.062076,0.671307,0.099218,-0.731881,-9.387105,2.287739,-1.487393,0.000901,0.000000,0.000000,45.855604,4.516351,-5.438383,4635727599304179700.000000,0.351006,0.718075,0.274534,-0.534598,-9.734367,-1.530074,-0.583881,0.004716,0.001693,-0.000443,43.878236,-14.217951,-4.387524,4635729192210225200.000000,-0.421861,0.644689,-0.387222,-0.506426,0
-9.751160,-0.459396,-0.088689,-0.001237,-0.041429,0.008883,41.562287,5.919284,-19.121337,4635731465311617000.000000,0.062145,0.671173,0.099137,-0.732009,-9.451962,2.338478,-1.530878,0.002304,0.000300,-0.000601,45.611464,4.577776,-5.578784,4635727599304179700.000000,0.351077,0.718082,0.274457,-0.534581,-9.736440,-1.536062,-0.588027,0.005522,0.001512,-0.000625,43.719560,-14.369259,-4.439572,4635729103079604200.000000,-0.421907,0.644679,-0.387225,-0.506399,0
-9.829555,-0.496645,-0.184409,-0.001461,-0.028334,0.010850,41.348403,5.835770,-19.260055,4635731465311617000.000000,0.062215,0.671080,0.099056,-0.732099,-9.443583,2.338874,-1.574755,-0.000300,0.001368,-0.001536,45.480557,4.577776,-5.496442,4635727538948885500.000000,0.351152,0.718086,0.274389,-0.534560,-9.720092,-1.468816,-0.598163,0.005784,0.000444,-0.001068,43.739339,-14.311933,-4.594336,4635729103079604200.000000,-0.421957,0.644666,-0.387225,-0.506374,0
-9.979236,-0.487663,-0.285292,0.003149,-0.030531,0.011750,41.370256,5.774102,-19.193263,4635731465311617000.000000,0.062276,0.670982,0.098956,-0.732197,-9.389407,2.277837,-1.571324,0.003435,0.001536,0.000000,45.663268,4.601793,-5.258358,4635727384555814900.000000,0.351220,0.718098,0.274310,-0.534541,-9.690608,-1.442544,-0.591024,0.002218,0.000000,-0.001068,43.892966,-14.196069,-4.732545,4635729103079604200.000000,-0.422096,0.644583,-0.387342,-0.506273,0
-9.992718,-0.539693,-0.395120,0.006858,-0.057455,0.012256,41.445424,5.799167,-19.292843,4635731465311617000.000000,0.062340,0.670803,0.098837,-0.732372,-9.376800,2.216802,-1.541965,0.015554,-0.000300,0.001201,45.794202,4.639215,-5.243034,4635727384555814900.000000,0.351256,0.718125,0.274197,-0.534539,-9.680470,-1.459820,-0.585955,0.001874,0.000000,-0.002317,43.958858,-14.160588,-4.666014,4635729103079604200.000000,-0.422126,0.644588,-0.387314,-0.506264,0
-9.877052,-0.478649,-0.135544,-0.001967,-0.052161,0.014954,41.503874,5.973314,-19.356417,4635731465311617000.000000,0.062433,0.670638,0.098739,-0.732528,-9.418767,2.186636,-1.485874,0.016190,-0.000168,0.004873,45.680103,4.553770,-5.438336,4635727384555814900.000000,0.351298,0.718157,0.274071,-0.534532,-9.680470,-1.472026,-0.578818,0.002580,0.000625,-0.002580,43.873205,-14.117761,-4.475778,4635729103079604200.000000,-0.422161,0.644591,-0.387294,-0.506247,0
-9.761432,-0.427259,-0.070081,0.001464,-0.001013,0.014954,41.445431,6.148642,-19.200317,4635731465311617000.000000,0.062497,0.670631,0.098644,-0.732542,-9.415746,2.221747,-1.473666,0.012386,0.003037,0.008509,45.752122,4.447742,-5.520483,4635727384555814900.000000,0.351357,0.718195,0.273948,-0.534507,-9.701883,-1.469959,-0.580885,0.003385,0.000444,-0.002761,43.805233,-14.037383,-4.501724,4635729103079604200.000000,-0.422207,0.644585,-0.387284,-0.506223,0
-9.806400,-0.427259,-0.384213,0.014785,-0.013662,0.014785,41.530874,5.867250,-19.217029,4635731465311617000.000000,0.062527,0.670589,0.098505,-0.732597,-9.339075,2.218318,-1.464888,0.008245,0.006241,0.013586,45.957033,4.378206,-5.398690,4635727354394672100.000000,0.351435,0.718239,0.273824,-0.534459,-9.681412,-1.472025,-0.585955,0.004273,0.001249,-0.002580,43.842982,-14.001891,-4.634867,4635729103079604200.000000,-0.422254,0.644579,-0.387279,-0.506196,0
-9.813464,-0.419548,-0.378422,0.012874,-0.049978,0.014729,41.575839,5.544737,-19.362869,4635731465311617000.000000,0.062578,0.670435,0.098363,-0.732752,-9.301622,2.206112,-1.464888,0.010177,0.007945,0.013418,45.961712,4.540316,-5.472345,4635727277181632500.000000,0.351506,0.718290,0.273698,-0.534409,-9.648920,-1.491367,-0.593091,0.003648,0.001512,-0.001512,43.830594,-14.094656,-4.618350,4635729103079604200.000000,-0.422397,0.644497,-0.387402,-0.506087,0
-9.739580,-0.366865,-0.190821,0.006465,-0.035530,0.018552,41.420362,5.740690,-19.328819,4635731465311617000.000000,0.062652,0.670326,0.098233,-0.732863,-9.359651,2.204188,-1.454606,0.015291,0.006409,0.015854,45.770247,4.659800,-5.398862,4635727277181632500.000000,0.351568,0.718347,0.273551,-0.534366,-9.686663,-1.508646,-0.591027,0.001331,0.000444,-0.001693,43.757348,-14.210538,-4.520690,4635729103079604200.000000,-0.422435,0.644494,-0.387392,-0.506067,0
-9.731225,-0.303260,-0.249265,0.000900,-0.027488,0.014112,41.370231,5.979751,-19.090454,4635731465311617000.000000,0.062725,0.670237,0.098135,-0.732951,-9.330314,2.249156,-1.421414,0.010981,0.007608,0.017559,45.639190,4.630464,-5.215555,4635727277181632500.000000,0.351646,0.718402,0.273411,-0.534312,-9.695688,-1.485178,-0.593090,-0.001249,-0.001873,-0.002761,43.726917,-14.246039,-4.537196,4635729103079604200.000000,-0.422473,0.644491,-0.387368,-0.506057,0
-9.737658,-0.292978,-0.336032,-0.000337,-0.037554,0.008940,41.431927,5.747153,-19.139845,4635731465311617000.000000,0.062790,0.670116,0.098053,-0.733068,-9.284476,2.312556,-1.403851,0.010851,0.011281,0.016022,45.825275,4.601752,-5.391982,4635727277181632500.000000,0.351716,0.718464,0.273281,-0.534250,-9.644799,-1.479157,-0.591028,-0.003385,-0.002580,-0.003204,43.819665,-14.238905,-4.520702,4635729103079604200.000000,-0.422609,0.644413,-0.387470,-0.505965,0
-9.713244,-0.291053,-0.303260,-0.002810,-0.038622,0.005004,41.418454,5.628219,-19.491321,4635731465311617000.000000,0.062851,0.669989,0.097988,-0.733187,-9.326016,2.301842,-1.410701,0.006447,0.013417,0.015723,45.985729,4.615277,-5.609434,4635727337433843700.000000,0.351797,0.718523,0.273165,-0.534176,-9.662245,-1.439357,-0.585955,-0.003648,-0.003385,-0.003204,43.985508,-14.233832,-4.373090,4635729103079604200.000000,-0.422639,0.644417,-0.387431,-0.505965,0
-9.698450,-0.286541,-0.294901,-0.006914,-0.042046,0.002868,41.346474,5.775360,-19.650737,4635731465311617000.000000,0.062917,0.669849,0.097942,-0.733315,-9.380644,2.319407,-1.465937,0.000768,0.015853,0.014355,45.879732,4.468352,-5.417547,4635727491929997300.000000,0.351889,0.718578,0.273069,-0.534091,-9.671276,-1.496594,-0.578821,0.001789,-0.000527,-0.003829,44.056519,-14.283771,-4.297006,4635729103079604200.000000,-0.422681,0.644416,-0.387410,-0.505947,0
-9.731225,-0.315468,-0.299411,-0.010119,-0.056723,0.000900,41.373420,5.833873,-19.553070,4635731465311617000.000000,0.062993,0.669663,0.097907,-0.733483,-9.352807,2.302289,-1.565971,-0.000899,0.017559,0.012219,45.741591,4.406873,-5.340583,4635727491929997300.000000,0.351980,0.718631,0.272986,-0.534002,-9.670322,-1.562548,-0.588014,0.009710,0.002136,-0.004273,43.913862,-14.319284,-4.403998,4635729040340507600.000000,-0.422740,0.644409,-0.387407,-0.505909,0
-9.741508,-0.303262,-0.262792,-0.012649,-0.061674,-0.000337,41.517380,5.761894,-19.486196,4635731465311617000.000000,0.063074,0.669461,0.097882,-0.733664,-9.329880,2.265217,-1.564484,-0.002006,0.014824,0.011580,45.659561,4.382908,-5.481124,4635727491929997300.000000,0.352076,0.718676,0.272903,-0.533921,-9.709002,-1.476954,-0.598163,0.009697,-0.000360,-0.007393,43.812370,-14.362081,-4.537180,4635728995705421800.000000,-0.422807,0.644404,-0.387388,-0.505874,0
-9.739584,-0.296824,-0.230017,-0.011750,-0.054139,-0.002473,41.503917,5.761894,-19.553082,4635731465311617000.000000,0.063142,0.669281,0.097862,-0.733825,-9.355779,2.289631,-1.544979,0.001667,0.009952,0.013886,45.627397,4.345383,-5.426353,4635727491929997300.000000,0.352171,0.718718,0.272798,-0.533856,-9.707905,-1.401795,-0.583899,0.003109,-0.000264,-0.010861,43.905085,-14.349737,-4.470797,4635728995705421800.000000,-0.422864,0.644415,-0.387348,-0.505843,0
-9.733145,-0.325081,-0.212045,-0.011750,-0.051667,-0.004441,41.418472,5.775348,-19.470808,4635731465311617000.000000,0.063204,0.669108,0.097848,-0.733979,-9.392856,2.307199,-1.583080,0.002306,0.005640,0.012688,45.704058,4.406873,-5.340559,4635727491929997300.000000,0.352267,0.718749,0.272689,-0.533806,-9.714072,-1.391644,-0.588011,-0.001872,-0.002676,-0.012998,44.020986,-14.319284,-4.337614,4635728995705421800.000000,-0.422919,0.644431,-0.387291,-0.505820,0
-9.755637,-0.370066,-0.167060,-0.012254,-0.047898,-0.004836,41.346474,5.860799,-19.516931,4635731465311617000.000000,0.063265,0.668947,0.097838,-0.734123,-9.371864,2.300355,-1.639214,0.000000,0.005511,0.009613,45.765556,4.430828,-5.481124,4635727491929997300.000000,0.352363,0.718773,0.272594,-0.533759,-9.679381,-1.491483,-0.598163,-0.001956,-0.005341,-0.013886,43.956680,-14.319284,-4.403976,4635728995705421800.000000,-0.422979,0.644444,-0.387225,-0.505804,0
-9.762081,-0.390637,-0.144568,-0.014786,-0.046158,-0.001800,41.359918,5.919354,-19.763786,4635731465311617000.000000,0.063341,0.668791,0.097827,-0.734259,-9.369922,2.289628,-1.644578,0.000000,0.002306,0.009015,45.765556,4.492324,-5.426377,4635727491929997300.000000,0.352461,0.718789,0.272496,-0.533722,-9.650979,-1.541156,-0.591032,0.000180,-0.004093,-0.009518,43.785788,-14.276501,-4.701163,4635728995705421800.000000,-0.423027,0.644454,-0.387169,-0.505794,0
-9.731905,-0.396399,-0.126599,-0.013214,-0.039641,-0.000168,41.445371,5.822379,-19.733058,4635731465311617000.000000,0.063415,0.668656,0.097809,-0.734378,-9.394334,2.314041,-1.625530,-0.000299,0.000000,0.007477,45.765556,4.468380,-5.313171,4635727491929997300.000000,0.352559,0.718798,0.272400,-0.533694,-9.677446,-1.525925,-0.585955,0.001068,-0.005076,-0.005161,43.714710,-14.153351,-4.865676,4635729121132074000.000000,-0.423080,0.644445,-0.387139,-0.505784,0
-9.680470,-0.429179,-0.077771,-0.009613,-0.026152,-0.000228,41.515460,5.713614,-19.568468,4635731465311617000.000000,0.063473,0.668565,0.097784,-0.734460,-9.408487,2.345297,-1.599170,-0.001068,0.000000,0.007178,45.810025,4.430817,-5.383465,4635727522017446900.000000,0.352659,0.718805,0.272307,-0.533666,-9.649894,-1.540187,-0.585955,0.001068,-0.005161,-0.004273,43.764626,-14.037428,-4.699616,4635729210453786600.000000,-0.423132,0.644434,-0.387111,-0.505776,0
-9.688147,-0.426033,-0.046218,-0.008942,-0.010238,0.004441,41.480224,5.847346,-19.583821,4635731465311617000.000000,0.063537,0.668524,0.097748,-0.734496,-9.392860,2.373603,-1.592329,0.000129,-0.001796,0.005212,45.968714,4.540208,-5.328741,4635727599304179700.000000,0.352753,0.718807,0.272215,-0.533648,-9.655082,-1.578859,-0.585955,0.004187,-0.004896,-0.003649,43.807293,-14.001891,-4.470832,4635729210453786600.000000,-0.423190,0.644417,-0.387092,-0.505763,0
-9.735057,-0.355934,-0.097659,-0.005341,-0.001800,0.005341,41.346474,5.833914,-19.650776,4635731465311617000.000000,0.063590,0.668511,0.097700,-0.734509,-9.368448,2.356029,-1.567917,0.003803,-0.006409,0.002435,46.038498,4.639294,-5.242854,4635727599304179700.000000,0.352836,0.718802,0.272116,-0.533652,-9.701854,-1.606297,-0.593083,0.002667,-0.003470,-0.001333,43.855137,-14.001891,-4.508706,4635729085067952100.000000,-0.423236,0.644403,-0.387078,-0.505753,0
-9.762087,-0.358552,-0.105330,-0.006180,-0.001175,0.004837,41.359897,5.750389,-19.553127,4635731465311617000.000000,0.063644,0.668499,0.097657,-0.734521,-9.354290,2.356029,-1.546921,0.004443,-0.007606,0.002606,45.859287,4.485458,-5.462106,4635727599304179700.000000,0.352918,0.718794,0.272013,-0.533660,-9.717093,-1.589996,-0.598163,0.000624,-0.003384,0.001247,43.835727,-14.051780,-4.582857,4635728995705421800.000000,-0.423272,0.644388,-0.387067,-0.505751,0
-9.747260,-0.315475,-0.142654,-0.010346,-0.007141,0.001801,41.418503,5.700156,-19.470808,4635731465311617000.000000,0.063702,0.668467,0.097633,-0.734549,-9.359659,2.366285,-1.527876,0.000641,-0.011280,0.000769,45.716242,4.224245,-5.664235,4635727599304179700.000000,0.353011,0.718771,0.271919,-0.533678,-9.752723,-1.574755,-0.591037,-0.002673,-0.006143,0.000889,43.800163,-14.130100,-4.577776,4635728995705421800.000000,-0.423304,0.644373,-0.387044,-0.505761,0
-9.783882,-0.307102,-0.123991,-0.009720,-0.007690,-0.000336,41.346474,5.761894,-19.470808,4635731465311617000.000000,0.063752,0.668433,0.097613,-0.734578,-9.354289,2.392651,-1.518599,-0.003803,-0.012818,-0.002093,45.750421,4.231079,-5.664235,4635727599304179700.000000,0.353113,0.718734,0.271841,-0.533699,-9.735377,-1.596132,-0.585955,-0.004717,-0.006854,0.000000,43.850042,-14.160588,-4.577776,4635728995705421800.000000,-0.423653,0.644117,-0.387420,-0.505506,0
-9.822417,-0.323141,-0.140030,-0.016525,-0.022139,-0.001969,41.333061,5.775307,-19.486137,4635731465311617000.000000,0.063823,0.668351,0.097614,-0.734646,-9.366496,2.372145,-1.572801,-0.007135,-0.012818,-0.008374,45.656179,4.478645,-5.694995,4635727599304179700.000000,0.353212,0.718685,0.271789,-0.533727,-9.712011,-1.582875,-0.593081,-0.001779,-0.006409,0.002494,43.928368,-14.203341,-4.691784,4635728995705421800.000000,-0.423672,0.644107,-0.387387,-0.505528,0
-9.869330,-0.354015,-0.174736,-0.020065,-0.034392,-0.001403,41.274437,5.872256,-19.585713,4635731465311617000.000000,0.063909,0.668232,0.097622,-0.734746,-9.368451,2.309155,-1.585501,-0.011451,-0.012519,-0.009784,45.618572,4.639307,-5.719425,4635727599304179700.000000,0.353319,0.718629,0.271752,-0.533750,-9.717093,-1.505550,-0.583913,0.000000,-0.006409,0.002402,43.916112,-14.233832,-4.659100,4635728995705421800.000000,-0.423698,0.644093,-0.387359,-0.505546,0
-9.902120,-0.361679,-0.195318,-0.024567,-0.049010,-0.003372,41.346474,6.007959,-19.647675,4635731465311617000.000000,0.064008,0.668066,0.097644,-0.734885,-9.361120,2.275952,-1.553756,-0.008589,-0.012347,-0.008374,45.727931,4.509451,-5.520707,4635727599304179700.000000,0.353421,0.718578,0.271704,-0.533775,-9.695721,-1.464888,-0.587996,-0.000623,-0.010149,0.000445,43.835747,-14.148344,-4.520784,4635728995705421800.000000,-0.423734,0.644074,-0.387322,-0.505569,0
-9.910496,-0.404760,-0.191487,-0.024735,-0.060654,-0.004440,41.359884,6.004840,-19.467690,4635731431611453400.000000,0.064109,0.667864,0.097667,-0.735057,-9.380661,2.251537,-1.552299,-0.003204,-0.012391,-0.010084,45.851006,4.309714,-5.425917,4635727629352973300.000000,0.353503,0.718534,0.271649,-0.533808,-9.651975,-1.493385,-0.591039,-0.004808,-0.011571,0.002493,43.800163,-13.994731,-4.487241,4635728995705421800.000000,-0.423766,0.644049,-0.387289,-0.505600,0
-9.890636,-0.418879,-0.170904,-0.025468,-0.066329,-0.005173,41.431927,5.932798,-19.400664,4635731250563252200.000000,0.064212,0.667644,0.097693,-0.735244,-9.345999,2.233955,-1.519094,-0.001710,-0.008545,-0.007947,45.806600,4.272087,-5.621229,4635727706678362100.000000,0.353581,0.718503,0.271591,-0.533828,-9.624518,-1.499472,-0.585955,-0.006230,-0.013175,0.004896,43.892764,-13.971386,-4.492324,4635728995705421800.000000,-0.423836,0.643984,-0.387314,-0.505603,0
-9.823851,-0.433723,-0.170904,-0.024567,-0.072634,-0.003603,41.393638,5.932798,-19.496416,4635731250563252200.000000,0.064320,0.667406,0.097710,-0.735449,-9.319115,2.230540,-1.477607,0.004228,-0.009143,-0.006708,45.692310,4.333628,-5.734576,4635727706678362100.000000,0.353645,0.718480,0.271514,-0.533855,-9.619433,-1.517797,-0.585955,-0.002224,-0.011838,0.005964,43.916119,-14.137237,-4.435337,4635728995705421800.000000,-0.423862,0.643953,-0.387288,-0.505641,0
-9.731943,-0.408583,-0.174730,-0.024233,-0.072132,0.000167,41.174387,5.919407,-19.537860,4635731250563252200.000000,0.064438,0.667170,0.097715,-0.735652,-9.363078,2.225162,-1.405816,0.008418,-0.009486,-0.006282,45.736697,4.333628,-5.582290,4635727706678362100.000000,0.353697,0.718463,0.271427,-0.533888,-9.598064,-1.466901,-0.600202,-0.000623,-0.008367,0.008279,43.842876,-14.283695,-4.330557,4635728995705421800.000000,-0.423885,0.643920,-0.387283,-0.505668,0
-9.682383,-0.443290,-0.195318,-0.022264,-0.070099,0.001737,41.153949,5.847346,-19.359766,4635731250563252200.000000,0.064555,0.666943,0.097710,-0.735848,-9.352838,2.240782,-1.379437,0.003250,-0.006110,-0.003204,45.851006,4.354108,-5.374671,4635727676655339500.000000,0.353768,0.718450,0.271347,-0.533900,-9.604176,-1.387572,-0.581883,-0.002938,-0.006854,0.008367,43.904952,-14.269432,-4.405868,4635729120988185600.000000,-0.423898,0.643895,-0.387273,-0.505696,0
-9.692678,-0.469621,-0.185752,-0.020024,-0.072196,0.005508,41.456798,5.860739,-19.318308,4635731250563252200.000000,0.064677,0.666711,0.097688,-0.736051,-9.329869,2.261783,-1.379437,-0.002136,-0.004146,-0.004100,45.827113,4.454659,-5.438078,4635727599304179700.000000,0.353851,0.718432,0.271284,-0.533901,-9.647918,-1.409956,-0.582904,-0.006142,-0.005786,0.006231,43.963945,-14.283680,-4.599141,4635729210453786600.000000,-0.423900,0.643885,-0.387248,-0.505727,0
-9.692678,-0.506242,-0.136194,-0.012316,-0.064089,0.006409,41.538978,5.944275,-19.527009,4635731250563252200.000000,0.064778,0.666506,0.097641,-0.736234,-9.331837,2.267164,-1.386263,-0.003331,-0.000769,-0.007006,45.765556,4.601670,-5.606090,4635727599304179700.000000,0.353926,0.718416,0.271238,-0.533895,-9.668263,-1.440474,-0.591041,-0.006231,-0.009080,0.004718,43.823541,-14.276552,-4.675436,4635729210453786600.000000,-0.423909,0.643872,-0.387210,-0.505765,0
-9.692678,-0.533305,-0.146489,-0.009279,-0.062417,0.006576,41.222814,6.019416,-19.750412,4635731250563252200.000000,0.064869,0.666307,0.097585,-0.736413,-9.314249,2.244718,-1.420916,-0.006708,0.000299,-0.007948,45.809924,4.639338,-5.673030,4635727599304179700.000000,0.354009,0.718397,0.271204,-0.533884,-9.646901,-1.419111,-0.578834,-0.004095,-0.010503,0.003026,43.677073,-14.153468,-4.561502,4635729210453786600.000000,-0.423939,0.643848,-0.387182,-0.505792,0
-9.702237,-0.505064,-0.144577,-0.007477,-0.053240,0.007477,41.030258,6.066641,-19.645834,4635731250563252200.000000,0.064955,0.666138,0.097523,-0.736567,-9.338132,2.216364,-1.475124,-0.007776,0.001964,-0.006409,45.927663,4.509539,-5.664235,4635727599304179700.000000,0.354097,0.718381,0.271170,-0.533864,-9.660120,-1.418091,-0.573748,-0.001336,-0.008990,0.000890,43.691304,-13.994788,-4.480117,4635729210453786600.000000,-0.423979,0.643825,-0.387157,-0.505807,0
-9.761361,-0.467704,-0.143838,-0.006808,-0.053343,0.007143,41.115705,5.906040,-19.499478,4635731250563252200.000000,0.065038,0.665968,0.097460,-0.736722,-9.396288,2.237367,-1.511746,-0.007351,0.003676,-0.005812,45.912575,4.309745,-5.609645,4635727599304179700.000000,0.354182,0.718370,0.271136,-0.533839,-9.687590,-1.470984,-0.573748,0.002492,-0.007922,0.000000,43.719798,-13.971365,-4.537074,4635729210453786600.000000,-0.424029,0.643799,-0.387139,-0.505812,0
-9.808271,-0.486387,-0.193410,-0.002369,-0.060251,0.004339,41.187778,5.761894,-19.684460,4635731284142649300.000000,0.065102,0.665777,0.097389,-0.736898,-9.394316,2.256397,-1.551779,-0.004870,0.001241,-0.003079,45.827126,4.268645,-5.441625,4635727599304179700.000000,0.354269,0.718361,0.271084,-0.533820,-9.692678,-1.494392,-0.573748,0.006141,-0.006854,0.000000,43.764542,-14.094436,-4.691677,4635729210453786600.000000,-0.424086,0.643769,-0.387131,-0.505808,0
-9.841075,-0.474180,-0.160208,0.002637,-0.067192,-0.001235,41.174418,5.788615,-19.835877,4635731465311617000.000000,0.065138,0.665564,0.097316,-0.737097,-9.411908,2.279374,-1.597194,-0.005514,-0.000770,-0.000597,45.741683,4.393039,-5.429234,4635727599304179700.000000,0.354366,0.718349,0.271024,-0.533803,-9.678440,-1.482184,-0.566629,0.005608,-0.005786,0.000623,43.849997,-14.203302,-4.659190,4635729147836030000.000000,-0.424347,0.643584,-0.387388,-0.505629,0
-9.843745,-0.471511,-0.021363,0.005675,-0.059049,-0.002136,41.127122,5.919446,-19.748527,4635731465311617000.000000,0.065159,0.665378,0.097239,-0.737273,-9.415318,2.263756,-1.603122,-0.002309,-0.000597,-0.001838,45.700566,4.625522,-5.578784,4635727599304179700.000000,0.354450,0.718341,0.270960,-0.533791,-9.696742,-1.491335,-0.568660,0.005519,-0.004095,0.002314,43.842898,-14.240952,-4.463862,4635729103079604200.000000,-0.424389,0.643560,-0.387383,-0.505627,0
-9.794916,-0.506990,0.053408,0.006643,-0.049469,-0.001803,41.274374,5.847346,-19.681383,4635731465311617000.000000,0.065175,0.665223,0.097160,-0.737421,-9.407065,2.249572,-1.543520,-0.000597,-0.002136,-0.000770,45.777218,4.700940,-5.551504,4635727569310527500.000000,0.354532,0.718333,0.270887,-0.533783,-9.695739,-1.515746,-0.580866,0.003295,-0.001336,0.003204,43.762544,-14.288747,-4.439401,4635729103079604200.000000,-0.424423,0.643542,-0.387388,-0.505618,0
-9.740374,-0.470371,0.014113,0.002136,-0.047435,-0.000167,41.346474,5.858782,-19.779033,4635731465311617000.000000,0.065206,0.665076,0.097092,-0.737560,-9.366487,2.268596,-1.519108,-0.003329,-0.001838,-0.000298,45.862661,4.553914,-5.504987,4635727491929997300.000000,0.354624,0.718322,0.270820,-0.533772,-9.687588,-1.540159,-0.585955,0.001691,-0.000623,0.004450,43.819436,-14.269467,-4.593984,4635729103079604200.000000,-0.424496,0.643491,-0.387452,-0.505573,0
-9.677793,-0.435655,0.011074,0.004137,-0.024703,-0.002402,41.346474,5.920590,-19.861444,4635731465311617000.000000,0.065216,0.665000,0.097030,-0.737636,-9.382104,2.312036,-1.501511,-0.005216,-0.001068,-0.001665,45.900389,4.516187,-5.569985,4635727491929997300.000000,0.354718,0.718308,0.270762,-0.533757,-9.714028,-1.571690,-0.585955,0.003382,-0.000445,0.007832,43.935432,-14.141315,-4.511751,4635729103079604200.000000,-0.424512,0.643472,-0.387462,-0.505576,0
-9.736924,-0.416958,-0.066755,0.016121,-0.014386,-0.009947,41.333133,5.895814,-19.829044,4635731465311617000.000000,0.065166,0.664956,0.096955,-0.737690,-9.392883,2.345803,-1.508328,-0.002136,-0.001963,-0.003503,45.838799,4.625496,-5.551515,4635727491929997300.000000,0.354799,0.718295,0.270701,-0.533752,-9.700837,-1.522920,-0.585955,0.001782,-0.002491,0.010859,43.921256,-14.082252,-4.337738,4635729103079604200.000000,-0.424525,0.643444,-0.387477,-0.505589,0
-9.759073,-0.425353,-0.076697,0.021597,-0.014256,-0.012083,41.249590,5.761894,-19.640580,4635731465311617000.000000,0.065093,0.664913,0.096869,-0.737747,-9.371878,2.298962,-1.525925,-0.001540,-0.004273,-0.003974,45.838799,4.748680,-5.481124,4635727491929997300.000000,0.354879,0.718277,0.270637,-0.533755,-9.687586,-1.484211,-0.564610,0.000623,-0.003027,0.012372,43.842924,-14.222533,-4.460657,4635729103079604200.000000,-0.424531,0.643415,-0.387491,-0.505609,0
-9.656056,-0.418860,0.053760,0.015258,0.008233,-0.014219,41.187778,5.775224,-19.583702,4635731465311617000.000000,0.065022,0.664936,0.096815,-0.737739,-9.373300,2.249570,-1.512296,0.001193,-0.003676,-0.003204,45.838799,4.700976,-5.535643,4635727491929997300.000000,0.354953,0.718265,0.270566,-0.533759,-9.692678,-1.475073,-0.556448,0.000446,0.000354,0.011573,43.762563,-14.319284,-4.634698,4635729228248548400.000000,-0.424530,0.643398,-0.387505,-0.505621,0
-9.661765,-0.454690,0.119847,0.007505,0.050329,-0.015523,41.185876,5.847346,-19.694671,4635731465311617000.000000,0.064952,0.665087,0.096800,-0.737611,-9.409930,2.275419,-1.500965,0.004571,-0.003628,-0.003503,45.862668,4.553907,-5.645753,4635727521923074000.000000,0.355016,0.718258,0.270488,-0.533766,-9.685564,-1.443545,-0.575769,0.000000,-0.000976,0.011304,43.677118,-14.184111,-4.561605,4635729317827969000.000000,-0.424538,0.643373,-0.387525,-0.505631,0
-9.700290,-0.542835,-0.049153,0.020226,0.063200,-0.011819,41.188892,5.847346,-19.820693,4635731465311617000.000000,0.064853,0.665282,0.096738,-0.737452,-9.398744,2.298909,-1.572796,0.005042,-0.007776,-0.004273,45.903754,4.468411,-5.515332,4635727599304179700.000000,0.355080,0.718241,0.270405,-0.533788,-9.644902,-1.435380,-0.585955,-0.001245,-0.001960,0.012372,43.691263,-14.087343,-4.480117,4635729317827969000.000000,-0.424541,0.643347,-0.387543,-0.505648,0
-9.733897,-0.564234,-0.162181,0.025303,0.035249,-0.006742,41.274343,5.834027,-19.650905,4635731465311617000.000000,0.064766,0.665395,0.096640,-0.737371,-9.312290,2.235913,-1.588921,0.008159,-0.009143,-0.003675,45.874920,4.386375,-5.380049,4635727599304179700.000000,0.355137,0.718226,0.270311,-0.533817,-9.619433,-1.468929,-0.600183,-0.002136,-0.003558,0.014063,43.819398,-14.222505,-4.537027,4635729255256382500.000000,-0.424642,0.643239,-0.387689,-0.505588,0
-9.677466,-0.505105,-0.039322,0.023333,0.037245,-0.009211,41.359784,5.748584,-19.581778,4635731465311617000.000000,0.064677,0.665512,0.096556,-0.737284,-9.331832,2.233451,-1.552300,0.017262,-0.011578,-0.002734,45.912547,4.333628,-5.425911,4635727599304179700.000000,0.355172,0.718221,0.270191,-0.533861,-9.633659,-1.489303,-0.596144,-0.002136,-0.005341,0.017444,43.935405,-14.319284,-4.520873,4635729210453786600.000000,-0.424633,0.643203,-0.387706,-0.505629,0
-9.600725,-0.465783,0.012207,0.022431,0.049897,-0.013151,41.418614,5.689755,-19.640607,4635731465311617000.000000,0.064573,0.665667,0.096488,-0.737162,-9.314249,2.305236,-1.508851,0.014058,-0.012990,-0.006065,45.871495,4.425828,-5.597309,4635727599304179700.000000,0.355211,0.718204,0.270086,-0.533912,-9.665183,-1.475080,-0.578844,-0.003381,-0.005341,0.018604,43.871506,-14.134386,-4.487228,4635729210453786600.000000,-0.424617,0.643168,-0.387723,-0.505674,0
-9.644959,-0.472284,0.002695,0.022764,0.059650,-0.014288,41.321741,5.763797,-19.538028,4635731465311617000.000000,0.064461,0.665851,0.096426,-0.737014,-9.331321,2.321371,-1.461474,0.009360,-0.010980,-0.010383,45.924252,4.711029,-5.649128,4635727599304179700.000000,0.355252,0.718179,0.270008,-0.533957,-9.680470,-1.486221,-0.580859,-0.001784,-0.004096,0.018159,43.700612,-13.959226,-4.598987,4635729210453786600.000000,-0.424611,0.643129,-0.387752,-0.505707,0
-9.726594,-0.457374,-0.052630,0.025399,0.058416,-0.011014,41.201079,5.760802,-19.373150,4635731465311617000.000000,0.064352,0.666033,0.096346,-0.736869,-9.354806,2.294992,-1.445854,0.002308,-0.011152,-0.009912,45.900358,4.810238,-5.551477,4635727599304179700.000000,0.355315,0.718144,0.269944,-0.533995,-9.687581,-1.494401,-0.564625,0.000000,0.000528,0.016292,43.593710,-14.113507,-4.611446,4635729210453786600.000000,-0.424606,0.643099,-0.387787,-0.505722,0
-9.776229,-0.486396,-0.073244,0.030241,0.054949,-0.012984,41.273232,5.700052,-19.373150,4635731465311617000.000000,0.064225,0.666205,0.096256,-0.736736,-9.302041,2.301818,-1.438505,-0.002688,-0.008419,-0.011876,45.794431,4.700899,-5.481124,4635727599304179700.000000,0.355385,0.718106,0.269900,-0.534021,-9.692678,-1.489303,-0.549333,0.006843,0.003827,0.013710,43.617988,-14.338461,-4.565569,4635729210453786600.000000,-0.424619,0.643069,-0.387836,-0.505712,0
-9.773528,-0.468484,-0.077047,0.031046,0.045099,-0.013054,41.273232,5.801821,-19.375051,4635731465311617000.000000,0.064100,0.666348,0.096162,-0.736631,-9.322515,2.305757,-1.468301,-0.009315,-0.004445,-0.015253,45.748349,4.649434,-5.535720,4635727599304179700.000000,0.355464,0.718063,0.269888,-0.534034,-9.685569,-1.475084,-0.563552,0.012994,0.003028,0.014062,43.696330,-14.312314,-4.572678,4635729210453786600.000000,-0.424649,0.643025,-0.387898,-0.505695,0
-9.812853,-0.419660,-0.090060,0.025469,0.040423,-0.008545,41.271332,6.031549,-19.385357,4635731465311617000.000000,0.064006,0.666476,0.096071,-0.736535,-9.388938,2.256925,-1.497573,-0.008844,-0.003928,-0.015126,45.968619,4.834132,-5.649139,4635727599304179700.000000,0.355540,0.718021,0.269875,-0.534045,-9.623602,-1.479106,-0.580856,0.010154,0.005246,0.013710,43.769569,-14.196280,-4.634645,4635729210453786600.000000,-0.424669,0.642991,-0.387956,-0.505676,0
-9.793052,-0.391719,-0.048830,0.025232,0.037528,-0.008545,41.274314,6.090412,-19.400545,4635731465311617000.000000,0.063914,0.666596,0.095980,-0.736446,-9.413880,2.225159,-1.550340,-0.008718,-0.008545,-0.011922,46.038593,4.738600,-5.524194,4635727599304179700.000000,0.355629,0.717974,0.269845,-0.534065,-9.632567,-1.489303,-0.578847,0.011209,0.008099,0.011574,43.800163,-14.160588,-4.675436,4635729210453786600.000000,-0.424946,0.642770,-0.388341,-0.505430,0
-9.741508,-0.460084,-0.035540,0.029006,0.028863,-0.007216,41.371156,6.004960,-19.483015,4635731465311617000.000000,0.063819,0.666690,0.095872,-0.736383,-9.387493,2.223719,-1.557164,-0.005513,-0.008844,-0.008121,45.903780,4.492324,-5.383465,4635727599304179700.000000,0.355716,0.717934,0.269797,-0.534085,-9.696699,-1.439542,-0.580857,0.012642,0.006679,0.011303,43.800163,-14.117935,-4.675436,4635729210453786600.000000,-0.424975,0.642739,-0.388401,-0.505399,0
-9.747203,-0.429975,0.029029,0.029908,0.042251,-0.000166,41.493782,5.919510,-19.496304,4635731465311617000.000000,0.063738,0.666829,0.095745,-0.736281,-9.387493,2.197333,-1.564522,-0.002906,-0.010210,-0.004571,45.871472,4.563956,-5.438042,4635727599304179700.000000,0.355805,0.717899,0.269730,-0.534106,-9.688662,-1.432282,-0.585955,0.009884,0.004719,0.011128,43.842810,-14.080236,-4.675436,4635729210453786600.000000,-0.425042,0.642677,-0.388503,-0.505343,0
-9.789512,-0.376532,-0.029281,0.030572,0.048781,-0.001234,41.405367,5.860626,-19.598822,4635731465311617000.000000,0.063650,0.666988,0.095622,-0.736161,-9.394311,2.204150,-1.527906,-0.001540,-0.011750,-0.005341,45.876527,4.769134,-5.551512,4635727599304179700.000000,0.355890,0.717862,0.269660,-0.534134,-9.710902,-1.481107,-0.585955,0.009789,0.003029,0.010681,43.830770,-14.167520,-4.732287,4635729210453786600.000000,-0.425058,0.642654,-0.388533,-0.505335,0
-9.845683,-0.366222,-0.112588,0.034181,0.033755,-0.002634,41.287584,5.932798,-19.748609,4635731465311617000.000000,0.063553,0.667101,0.095487,-0.736084,-9.398271,2.225157,-1.491283,0.000895,-0.013241,-0.004446,45.732893,4.801468,-5.508399,4635727599304179700.000000,0.355971,0.717827,0.269580,-0.534169,-9.741508,-1.501511,-0.593062,0.008194,0.002136,0.010060,43.750417,-14.240939,-4.765988,4635729210453786600.000000,-0.425085,0.642624,-0.388571,-0.505321,0
-9.809061,-0.366222,-0.051551,0.034513,0.027130,-0.006005,41.445207,5.919518,-19.635773,4635731465311617000.000000,0.063448,0.667191,0.095359,-0.736027,-9.363078,2.247595,-1.458068,0.002608,-0.017090,-0.002136,45.703974,4.700940,-5.606063,4635727599304179700.000000,0.356056,0.717787,0.269484,-0.534213,-9.727295,-1.508617,-0.598163,0.005165,0.000893,0.009613,43.764456,-14.288679,-4.654290,4635729210453786600.000000,-0.425150,0.642563,-0.388656,-0.505279,0
-9.781923,-0.368119,0.005691,0.036317,0.036909,-0.009613,41.528761,5.847346,-19.457530,4635731465311617000.000000,0.063323,0.667311,0.095239,-0.735945,-9.369896,2.286193,-1.440474,0.000770,-0.015301,-0.003628,45.789418,4.577776,-5.676443,4635727599304179700.000000,0.356142,0.717748,0.269399,-0.534252,-9.702882,-1.499507,-0.591057,0.003029,-0.001243,0.008992,43.849903,-14.319284,-4.520931,4635729210453786600.000000,-0.425165,0.642542,-0.388666,-0.505286,0
-9.808231,-0.380325,0.029041,0.035322,0.046262,-0.009447,41.579250,5.860614,-19.385357,4635731465311617000.000000,0.063198,0.667460,0.095124,-0.735836,-9.387493,2.291583,-1.447291,0.000000,-0.009787,-0.007179,45.847597,4.625501,-5.621900,4635727599304179700.000000,0.356215,0.717715,0.269335,-0.534279,-9.664255,-1.510621,-0.585955,0.001515,-0.002758,0.009167,43.885616,-14.226908,-4.536964,4635729210453786600.000000,-0.425176,0.642520,-0.388670,-0.505301,0
-9.833485,-0.386849,-0.029253,0.029080,0.044918,-0.008545,41.490864,5.919540,-19.398614,4635731465311617000.000000,0.063093,0.667603,0.095026,-0.735728,-9.384085,2.272559,-1.471705,0.000596,-0.008372,-0.006409,45.814940,4.769131,-5.481124,4635727599304179700.000000,0.356287,0.717688,0.269269,-0.534302,-9.658058,-1.525925,-0.593060,0.001690,-0.003826,0.009613,43.835882,-14.160588,-4.634614,4635729210453786600.000000,-0.425186,0.642497,-0.388671,-0.505321,0
-9.804438,-0.368115,-0.112609,0.024567,0.026116,-0.008380,41.321866,5.847346,-19.455665,4635731465311617000.000000,0.063009,0.667687,0.094936,-0.735671,-9.378693,2.263197,-1.499524,0.000944,-0.010383,-0.005813,45.732907,4.777632,-5.508380,4635727599304179700.000000,0.356361,0.717657,0.269198,-0.534330,-9.682471,-1.490408,-0.591059,0.002758,-0.004894,0.008992,43.800163,-14.252934,-4.675436,4635729210453786600.000000,-0.425202,0.642471,-0.388670,-0.505342,0
-9.818540,-0.368960,-0.059143,0.023739,0.017753,-0.006483,41.174521,5.834089,-19.388301,4635731465311617000.000000,0.062937,0.667745,0.094841,-0.735636,-9.384087,2.286761,-1.522519,-0.001540,-0.009911,-0.003676,45.680103,4.639383,-5.606035,4635727599304179700.000000,0.356446,0.717625,0.269126,-0.534351,-9.671368,-1.443578,-0.593059,0.001961,-0.005341,0.008545,43.849889,-14.319284,-4.618607,4635729210453786600.000000,-0.425219,0.642444,-0.388668,-0.505363,0
-9.841059,-0.324963,-0.052615,0.019061,0.020204,-0.000737,41.128824,5.775143,-19.470808,4635731465311617000.000000,0.062895,0.667812,0.094746,-0.735592,-9.378693,2.227142,-1.510311,0.002981,-0.010383,-0.001540,45.703950,4.553930,-5.649189,4635727599304179700.000000,0.356524,0.717602,0.269038,-0.534375,-9.677364,-1.428266,-0.591060,-0.000796,-0.005962,0.007924,43.835897,-14.226950,-4.634598,4635729085506004000.000000,-0.425231,0.642423,-0.388656,-0.505389,0
-9.853267,-0.364330,-0.073244,0.017827,0.014052,0.001399,41.284586,5.847346,-19.455668,4635731465311617000.000000,0.062865,0.667860,0.094648,-0.735563,-9.380683,2.199325,-1.477676,0.012469,-0.009017,0.000596,45.789390,4.468490,-5.548139,4635727599304179700.000000,0.356576,0.717599,0.268924,-0.534402,-9.706883,-1.456674,-0.585955,-0.003379,-0.007652,0.007477,43.800163,-14.117976,-4.675436,4635728995705421800.000000,-0.425248,0.642397,-0.388646,-0.505416,0
-9.857908,-0.359688,-0.071353,0.015360,0.014127,0.003204,41.346474,5.847346,-19.373150,4635731465311617000.000000,0.062848,0.667908,0.094552,-0.735533,-9.366484,2.189946,-1.409248,0.015898,-0.005987,0.001540,45.851006,4.362600,-5.496162,4635727599304179700.000000,0.356616,0.717608,0.268805,-0.534423,-9.695787,-1.469994,-0.585955,-0.003030,-0.009788,0.007477,43.800163,-14.172568,-4.618619,4635728995705421800.000000,-0.425313,0.642332,-0.388688,-0.505411,0
-9.823178,-0.383073,-0.062928,0.011419,0.009944,0.003535,41.346474,5.834109,-19.388278,4635731465311617000.000000,0.062844,0.667943,0.094467,-0.735512,-9.378691,2.244168,-1.398453,0.010435,-0.001838,0.000000,45.874838,4.248177,-5.593812,4635727599304179700.000000,0.356664,0.717616,0.268708,-0.534428,-9.666268,-1.486192,-0.578854,-0.003379,-0.008817,0.006856,43.757555,-14.191225,-4.520967,4635728995705421800.000000,-0.425334,0.642304,-0.388674,-0.505440,0
-9.794985,-0.341807,-0.077024,0.009283,0.011750,0.005506,41.335134,5.750554,-19.440568,4635731465311617000.000000,0.062852,0.667984,0.094383,-0.735485,-9.373877,2.284193,-1.412655,0.003081,-0.001068,0.000000,45.912629,4.316259,-5.664235,4635727599304179700.000000,0.356734,0.717616,0.268629,-0.534422,-9.670257,-1.451806,-0.580849,-0.004894,-0.007477,0.007030,43.677215,-14.068280,-4.536922,4635728995705421800.000000,-0.425347,0.642281,-0.388660,-0.505468,0
-9.757497,-0.343698,-0.105223,0.006981,0.011584,0.006243,41.259994,5.713233,-19.290618,4635731465311617000.000000,0.062868,0.668024,0.094305,-0.735457,-9.342067,2.316003,-1.403851,-0.001191,-0.000473,-0.000298,45.827182,4.492324,-5.640411,4635727599304179700.000000,0.356815,0.717610,0.268562,-0.534410,-9.652065,-1.444465,-0.571752,-0.002234,-0.006856,0.008720,43.684075,-14.051601,-4.634588,4635729120631649300.000000,-0.425364,0.642253,-0.388657,-0.505493,0
-9.778130,-0.352125,-0.148379,0.003280,0.009028,0.005506,41.199117,5.871913,-19.433623,4635731465311617000.000000,0.062894,0.668055,0.094239,-0.735435,-9.357679,2.286774,-1.420872,-0.005166,0.001366,-0.001962,45.765556,4.516153,-5.606017,4635727599304179700.000000,0.356901,0.717600,0.268511,-0.534391,-9.631641,-1.493290,-0.561541,0.000621,-0.004545,0.010235,43.807017,-14.222250,-4.732238,4635729210453786600.000000,-0.425527,0.642108,-0.388855,-0.505386,0
-9.778130,-0.347476,-0.153028,-0.003128,-0.002149,0.006409,41.285589,6.006042,-19.765676,4635731465311617000.000000,0.062944,0.668051,0.094188,-0.735442,-9.375286,2.244164,-1.468292,-0.008370,0.001541,-0.004570,45.789377,4.601598,-5.727489,4635727599304179700.000000,0.356991,0.717583,0.268476,-0.534371,-9.652939,-1.471123,-0.575739,0.002932,-0.003826,0.011303,43.923102,-14.269590,-4.716302,4635729210453786600.000000,-0.425536,0.642081,-0.388862,-0.505408,0
-9.776241,-0.382206,-0.114521,-0.007554,-0.015043,0.007400,41.432938,6.007931,-19.730674,4635731465311617000.000000,0.063015,0.668007,0.094145,-0.735481,-9.368480,2.267174,-1.470290,-0.008597,0.000596,-0.005043,45.803363,4.687050,-5.808508,4635727599304179700.000000,0.357082,0.717563,0.268441,-0.534355,-9.668263,-1.433374,-0.585955,0.002409,-0.003651,0.011128,43.916265,-14.191238,-4.618643,4635729148011054100.000000,-0.425546,0.642053,-0.388869,-0.505429,0
-9.760258,-0.404733,-0.056250,-0.002632,-0.018719,0.012983,41.480624,6.029580,-19.513228,4635731465311617000.000000,0.063090,0.667955,0.094069,-0.735532,-9.361079,2.234551,-1.473097,-0.002014,0.001541,-0.004273,45.680103,4.724861,-5.622000,4635727599304179700.000000,0.357153,0.717555,0.268391,-0.534342,-9.668263,-1.463758,-0.585955,0.001068,-0.003204,0.010681,43.793337,-14.295455,-4.627464,4635729103079604200.000000,-0.425553,0.642029,-0.388875,-0.505449,0
-9.725524,-0.422605,0.038511,-0.005176,-0.000968,0.013886,41.333256,6.078276,-19.676445,4635731465311617000.000000,0.063168,0.667957,0.094005,-0.735532,-9.394296,2.179720,-1.525925,0.003151,0.000000,-0.004273,45.727720,4.615611,-5.481124,4635727599304179700.000000,0.357211,0.717552,0.268327,-0.534340,-9.682459,-1.468010,-0.585955,0.002310,-0.003825,0.011924,43.819189,-14.349943,-4.613544,4635729103079604200.000000,-0.425563,0.641999,-0.388887,-0.505471,0
-9.706773,-0.465769,0.031839,-0.003281,0.018247,0.013556,41.249697,5.981500,-19.635920,4635731465311617000.000000,0.063233,0.668018,0.093940,-0.735479,-9.388104,2.217736,-1.512323,0.007653,-0.000298,-0.003975,45.895213,4.539932,-5.508328,4635727599304179700.000000,0.357256,0.717555,0.268253,-0.534343,-9.678483,-1.445583,-0.585955,0.001341,-0.004894,0.010955,44.020470,-14.177331,-4.641655,4635729103079604200.000000,-0.425571,0.641972,-0.388889,-0.505496,0
-9.730293,-0.485517,-0.087436,0.002136,0.020938,0.011420,41.200978,5.847346,-19.455723,4635731465311617000.000000,0.063274,0.668088,0.093865,-0.735421,-9.333258,2.273978,-1.497501,0.003853,-0.001961,-0.003502,45.982498,4.731244,-5.578784,4635727599304179700.000000,0.357315,0.717550,0.268182,-0.534347,-9.689556,-1.461767,-0.585955,-0.000621,-0.007204,0.008992,44.025285,-14.167406,-4.737327,4635729103079604200.000000,-0.425580,0.641948,-0.388875,-0.505530,0
-9.810092,-0.531465,-0.226280,0.002136,-0.003555,0.009613,41.260023,5.847346,-19.388245,4635731465311617000.000000,0.063319,0.668083,0.093790,-0.735431,-9.367864,2.282784,-1.563935,0.001487,-0.003678,-0.004273,45.915443,4.863194,-5.551594,4635727599304179700.000000,0.357381,0.717536,0.268117,-0.534354,-9.711985,-1.491295,-0.585955,-0.000447,-0.006682,0.007924,43.823970,-14.375820,-4.652405,4635729103079604200.000000,-0.425595,0.641923,-0.388865,-0.505556,0
-9.841941,-0.502390,-0.167019,0.002136,-0.028345,0.009283,41.200985,5.822820,-19.484014,4635731465311617000.000000,0.063373,0.668002,0.093709,-0.735511,-9.405111,2.272588,-1.588974,0.005043,-0.003623,-0.003678,45.900460,4.748680,-5.481124,4635727599304179700.000000,0.357438,0.717528,0.268043,-0.534364,-9.731294,-1.480209,-0.578855,0.000000,-0.005341,0.005613,43.734018,-14.477981,-4.459060,4635729103079604200.000000,-0.425619,0.641900,-0.388859,-0.505570,0
-9.784681,-0.518367,-0.000895,0.002136,-0.025471,0.006652,41.297741,5.688650,-19.527979,4635731465311617000.000000,0.063417,0.667929,0.093636,-0.735583,-9.387493,2.249561,-1.542156,0.002786,-0.008072,-0.001542,45.838799,4.772471,-5.481124,4635727599304179700.000000,0.357511,0.717509,0.267961,-0.534381,-9.741508,-1.443589,-0.573748,0.000000,-0.004098,0.004894,43.824323,-14.335986,-4.439256,4635729103079604200.000000,-0.425642,0.641882,-0.388852,-0.505580,0
-9.746175,-0.547448,0.055382,0.001806,-0.024073,0.002796,41.456434,5.726353,-19.359954,4635731465311617000.000000,0.063450,0.667858,0.093576,-0.735652,-9.384095,2.268564,-1.489303,-0.002258,-0.008721,-0.000892,45.794621,4.786556,-5.481124,4635727599304179700.000000,0.357601,0.717482,0.267887,-0.534394,-9.741508,-1.456663,-0.573748,0.000000,-0.003204,0.003477,43.878517,-14.233832,-4.650496,4635729103079604200.000000,-0.425661,0.641871,-0.388836,-0.505589,0
-9.710537,-0.525824,0.016880,-0.000659,-0.018726,0.005750,41.566134,5.945984,-19.317836,4635731465311617000.000000,0.063497,0.667805,0.093516,-0.735704,-9.371888,2.291594,-1.489303,-0.005935,-0.006112,-0.003204,45.680103,4.639445,-5.508305,4635727599304179700.000000,0.357693,0.717453,0.267832,-0.534399,-9.727310,-1.469997,-0.573748,0.000000,-0.002583,0.000894,43.830814,-14.283526,-4.822789,4635729103079604200.000000,-0.425682,0.641869,-0.388810,-0.505595,0
-9.752804,-0.452585,-0.039476,-0.003449,-0.005096,0.001477,41.405569,6.029546,-19.513138,4635731465311617000.000000,0.063533,0.667791,0.093481,-0.735718,-9.373272,2.279387,-1.492701,-0.006882,-0.005341,-0.003799,45.724275,4.649131,-5.605966,4635727599304179700.000000,0.357787,0.717424,0.267783,-0.534401,-9.674498,-1.450690,-0.580847,0.000621,-0.003379,0.000621,43.800163,-14.319284,-4.752060,4635729103079604200.000000,-0.425708,0.641863,-0.388786,-0.505599,0
-9.827938,-0.384986,-0.133376,0.000903,-0.010273,-0.002136,41.274210,6.091494,-19.663264,4635731465311617000.000000,0.063547,0.667761,0.093441,-0.735749,-9.399700,2.256992,-1.504907,-0.004449,-0.004449,-0.005341,45.838799,4.834132,-5.676443,4635727599304179700.000000,0.357868,0.717398,0.267734,-0.534406,-9.650948,-1.433374,-0.571757,0.000447,-0.005515,0.000447,43.800163,-14.226996,-4.618643,4635729103079604200.000000,-0.425740,0.641850,-0.388760,-0.505608,0
-9.900204,-0.357779,-0.178380,-0.002470,-0.017673,-0.001807,41.346474,6.080202,-19.550563,4635731465311617000.000000,0.063575,0.667707,0.093409,-0.735799,-9.372526,2.218351,-1.503528,-0.000353,-0.003325,-0.005341,45.770862,4.762799,-5.622094,4635727599304179700.000000,0.357936,0.717381,0.267678,-0.534411,-9.677354,-1.435365,-0.575739,-0.003727,-0.005788,0.001864,43.800163,-14.068299,-4.528082,4635729103079604200.000000,-0.425764,0.641838,-0.388738,-0.505621,0
-9.881408,-0.370911,-0.051620,-0.017831,-0.032039,0.000822,41.335197,6.018250,-19.370321,4635731465311617000.000000,0.063658,0.667607,0.093413,-0.735882,-9.325809,2.223121,-1.466910,0.004273,-0.005221,-0.004747,45.594650,4.577776,-5.453961,4635727599304179700.000000,0.357993,0.717367,0.267607,-0.534427,-9.685581,-1.440474,-0.578858,-0.006409,-0.004720,0.003825,43.800163,-14.094158,-4.542007,4635729103079604200.000000,-0.425776,0.641829,-0.388717,-0.505638,0
-9.774371,-0.333359,0.106089,-0.026950,0.006823,0.005999,41.284508,6.018250,-19.287697,4635731465311617000.000000,0.063768,0.667625,0.093441,-0.735852,-9.397676,2.248187,-1.443868,0.003085,-0.001839,-0.003798,45.638777,4.601536,-5.410619,4635727599304179700.000000,0.358051,0.717360,0.267542,-0.534430,-9.666278,-1.440474,-0.566652,-0.006409,-0.003652,0.006135,43.934991,-14.245742,-4.691316,4635729103079604200.000000,-0.425877,0.641745,-0.388826,-0.505576,0
-9.755595,-0.357774,-0.077023,-0.022924,0.018810,0.010436,41.346474,6.031407,-19.274540,4635731465311617000.000000,0.063875,0.667684,0.093448,-0.735789,-9.390172,2.211565,-1.456075,0.001782,-0.001365,-0.004747,45.777109,4.710748,-5.535433,4635727599304179700.000000,0.358111,0.717351,0.267483,-0.534432,-9.670248,-1.518532,-0.568637,-0.003925,-0.003204,0.008719,44.032104,-14.264499,-4.716325,4635729103079604200.000000,-0.425874,0.641733,-0.388815,-0.505602,0
-9.754647,-0.367154,-0.198113,-0.026293,-0.026047,0.015119,41.335198,6.090547,-19.200366,4635731448781610000.000000,0.064024,0.667605,0.093440,-0.735848,-9.319012,2.195308,-1.468283,0.006409,-0.003027,-0.002907,45.838799,4.786612,-5.727357,4635727599304179700.000000,0.358163,0.717347,0.267405,-0.534441,-9.666280,-1.546374,-0.595034,-0.000895,-0.005067,0.011476,43.897292,-14.233832,-4.561910,4635729103079604200.000000,-0.425879,0.641705,-0.388818,-0.505630,0
-9.687044,-0.308942,0.006575,-0.031387,-0.028757,0.015694,41.284501,5.991954,-19.218213,4635731357937434600.000000,0.064189,0.667518,0.093446,-0.735913,-9.376655,2.242113,-1.460124,0.004033,-0.004153,-0.002433,45.818433,4.591948,-5.859554,4635727599304179700.000000,0.358224,0.717338,0.267331,-0.534450,-9.691534,-1.490447,-0.589083,-0.001863,-0.004546,0.010955,43.757589,-14.240928,-4.423352,4635729103079604200.000000,-0.425887,0.641677,-0.388826,-0.505652,0
-9.671089,-0.338995,0.085439,-0.040015,-0.000083,0.014379,41.335200,5.834193,-19.373150,4635731357937434600.000000,0.064363,0.667515,0.093490,-0.735894,-9.391542,2.281415,-1.422847,-0.002730,-0.001068,-0.003204,45.765556,4.406873,-5.832399,4635727599304179700.000000,0.358299,0.717325,0.267278,-0.534443,-9.717093,-1.500365,-0.573748,-0.001342,-0.003204,0.007751,43.719822,-14.246039,-4.552746,4635729103079604200.000000,-0.425902,0.641656,-0.388829,-0.505665,0
-9.761222,-0.386884,-0.056336,-0.042069,-0.007394,0.016762,41.260095,5.775030,-19.373150,4635731357937434600.000000,0.064552,0.667491,0.093532,-0.735894,-9.335269,2.239374,-1.426898,-0.003382,-0.000771,-0.002907,45.741799,4.478144,-5.710986,4635727599304179700.000000,0.358377,0.717311,0.267226,-0.534435,-9.717093,-1.469174,-0.580842,0.001241,-0.003204,0.004547,43.764368,-14.238946,-4.675436,4635729103079604200.000000,-0.425930,0.641636,-0.388829,-0.505668,0
-9.804422,-0.373729,-0.088275,-0.038782,-0.012489,0.015283,41.212177,5.834209,-19.373150,4635731357937434600.000000,0.064730,0.667452,0.093566,-0.735910,-9.336633,2.238709,-1.395036,-0.000771,0.000891,-0.001839,45.676711,4.707329,-5.551644,4635727599304179700.000000,0.358448,0.717307,0.267168,-0.534423,-9.717093,-1.350240,-0.593049,-0.001588,-0.003825,0.000101,43.800163,-14.233832,-4.561943,4635729103079604200.000000,-0.426112,0.641510,-0.389001,-0.505541,0
-9.820386,-0.422563,-0.051645,-0.040918,-0.012160,0.017583,41.346474,5.775039,-19.388172,4635731357937434600.000000,0.064920,0.667413,0.093601,-0.735924,-9.369862,2.265826,-1.410635,-0.001484,0.003501,-0.000771,45.739123,4.754089,-5.532000,4635727599304179700.000000,0.358519,0.717308,0.267113,-0.534400,-9.710000,-1.322358,-0.598163,-0.003031,-0.007376,-0.004619,43.707951,-14.240925,-4.536863,4635729103079604200.000000,-0.426154,0.641503,-0.388960,-0.505546,0
-9.853251,-0.460129,-0.147416,-0.042398,-0.023578,0.020623,41.308946,5.860481,-19.470808,4635731357937434600.000000,0.065128,0.667341,0.093629,-0.735967,-9.387493,2.235317,-1.445228,-0.007122,0.005460,-0.000297,45.927644,4.533675,-5.664235,4635727599304179700.000000,0.358607,0.717306,0.267072,-0.534365,-9.676513,-1.378281,-0.598163,-0.003378,-0.008372,-0.005788,43.641468,-14.288599,-4.684175,4635729103079604200.000000,-0.426200,0.641496,-0.388914,-0.505552,0
-9.861706,-0.435716,-0.214107,-0.039769,-0.044611,0.022103,41.091074,5.932798,-19.455805,4635731357937434600.000000,0.065341,0.667206,0.093639,-0.736070,-9.390884,2.270577,-1.499477,-0.012046,0.007358,-0.001365,45.841500,4.486907,-5.613365,4635727599304179700.000000,0.358704,0.717299,0.267048,-0.534321,-9.656056,-1.418036,-0.598163,-0.007376,-0.008718,-0.005341,43.641468,-14.319284,-4.704148,4635729103079604200.000000,-0.426234,0.641495,-0.388859,-0.505566,0
-9.841993,-0.422557,-0.168100,-0.034756,-0.062362,0.020623,41.053476,5.932798,-19.358139,4635731357937434600.000000,0.065543,0.667017,0.093634,-0.736224,-9.403091,2.263795,-1.522534,-0.011334,0.003976,-0.002730,45.547177,4.707310,-5.484515,4635727599304179700.000000,0.358799,0.717285,0.267022,-0.534289,-9.677332,-1.449542,-0.576887,-0.008993,-0.011475,-0.005341,43.691109,-14.319284,-4.663228,4635729103079604200.000000,-0.426269,0.641491,-0.388796,-0.505590,0
-9.784712,-0.458256,-0.068576,-0.031552,-0.068365,0.022431,41.200905,5.919672,-19.275490,4635731357937434600.000000,0.065743,0.666811,0.093612,-0.736395,-9.405128,2.229213,-1.513718,-0.006291,0.003501,-0.003679,45.471206,4.821924,-5.544180,4635727599304179700.000000,0.358878,0.717276,0.266986,-0.534266,-9.678496,-1.479070,-0.568631,-0.006684,-0.010336,-0.004100,43.719827,-14.276738,-4.719956,4635729103079604200.000000,-0.426306,0.641484,-0.388743,-0.505609,0
-9.757466,-0.423509,0.022540,-0.029004,-0.054643,0.022431,41.260105,5.847346,-19.305492,4635731357937434600.000000,0.065930,0.666649,0.093586,-0.736529,-9.390883,2.198683,-1.517107,-0.002315,0.004273,-0.002136,45.686167,4.825314,-5.676443,4635727599304179700.000000,0.358947,0.717276,0.266939,-0.534243,-9.689534,-1.503484,-0.566658,-0.002859,-0.007925,-0.003204,43.813976,-14.331124,-4.711255,4635729103079604200.000000,-0.426599,0.641279,-0.389026,-0.505404,0
-9.783754,-0.391595,-0.000917,-0.030400,-0.043794,0.022595,41.199028,5.847346,-19.500807,4635731357937434600.000000,0.066118,0.666519,0.093567,-0.736632,-9.386147,2.240732,-1.515760,0.000000,0.003976,-0.002136,45.947971,4.810413,-5.703550,4635727599304179700.000000,0.359010,0.717279,0.266886,-0.534223,-9.697795,-1.506628,-0.568631,0.000793,-0.006857,-0.001964,43.885616,-14.392529,-4.675436,4635728978348765200.000000,-0.426639,0.641266,-0.388993,-0.505412,0
-9.812879,-0.323979,-0.069497,-0.032949,-0.045597,0.023499,41.274140,5.834231,-19.679242,4635731357937434600.000000,0.066315,0.666383,0.093553,-0.736738,-9.350871,2.248206,-1.482527,0.000593,0.004094,-0.002729,45.962272,4.724964,-5.797818,4635727599304179700.000000,0.359069,0.717283,0.266834,-0.534205,-9.706858,-1.473153,-0.566658,-0.000965,-0.006409,-0.000448,43.878527,-14.300365,-4.732151,4635728888331239400.000000,-0.426669,0.641257,-0.388959,-0.505425,0
-9.796924,-0.291104,-0.037588,-0.033520,-0.052757,0.023007,41.333358,5.761894,-19.736590,4635731357937434600.000000,0.066515,0.666226,0.093540,-0.736865,-9.367806,2.238682,-1.468275,0.001247,0.005816,-0.004569,45.815091,4.707258,-5.781654,4635727569513095200.000000,0.359119,0.717289,0.266789,-0.534185,-9.688741,-1.495209,-0.575717,-0.005685,-0.007649,0.002481,43.873409,-14.191304,-4.773095,4635728888331239400.000000,-0.426680,0.641250,-0.388919,-0.505455,0
-9.754682,-0.292011,0.026288,-0.041330,-0.033943,0.020295,41.236669,5.775008,-19.625818,4635731390894377000.000000,0.066720,0.666122,0.093564,-0.736936,-9.405134,2.279397,-1.483870,-0.001957,0.003976,-0.005933,45.777057,4.801603,-5.524592,4635727491929997300.000000,0.359179,0.717285,0.266753,-0.534169,-9.639914,-1.547188,-0.585955,-0.007477,-0.007925,0.006133,43.972632,-14.295249,-4.716395,4635728888331239400.000000,-0.426681,0.641238,-0.388887,-0.505494,0
-9.690806,-0.365247,0.025390,-0.039521,-0.014954,0.019803,41.077990,5.860450,-19.470808,4635731572685799400.000000,0.066911,0.666078,0.093588,-0.736956,-9.367171,2.253642,-1.501511,-0.003087,0.002612,-0.007181,45.886217,4.701263,-5.434269,4635727491929997300.000000,0.359240,0.717275,0.266721,-0.534157,-9.633607,-1.527115,-0.585955,-0.005617,-0.008097,0.007477,44.037225,-14.342922,-4.732128,4635728888331239400.000000,-0.426685,0.641220,-0.388863,-0.505532,0
-9.678600,-0.425388,-0.036622,-0.040013,-0.013808,0.017090,40.941760,5.944022,-19.500740,4635731572685799400.000000,0.067094,0.666036,0.093623,-0.736973,-9.331182,2.219700,-1.494738,0.000000,0.001068,-0.007298,46.009705,4.577776,-5.620761,4635727491929997300.000000,0.359293,0.717266,0.266680,-0.534154,-9.658020,-1.508597,-0.585955,-0.003033,-0.009785,0.006857,43.656550,-13.952779,-4.822696,4635728888331239400.000000,-0.426707,0.641189,-0.388848,-0.505564,0
-9.668263,-0.422535,-0.040364,-0.041907,-0.006986,0.016763,40.957613,5.968628,-19.679222,4635731539776443400.000000,0.067278,0.666015,0.093665,-0.736970,-9.378671,2.259703,-1.483866,0.000296,0.000476,-0.010206,45.938618,4.625168,-5.738199,4635727491929997300.000000,0.359339,0.717252,0.266647,-0.534158,-9.682435,-1.520804,-0.564698,-0.000896,-0.008201,0.005169,42.775720,-13.299894,-4.794773,4635728888331239400.000000,-0.426736,0.641160,-0.388837,-0.505585,0
-9.673878,-0.467624,-0.061037,-0.036730,-0.005091,0.014954,41.128526,5.737566,-19.721636,4635731357937434600.000000,0.067442,0.666000,0.093698,-0.736964,-9.384110,2.288224,-1.508278,0.001068,-0.000772,-0.011454,45.753349,4.748680,-5.649374,4635727491929997300.000000,0.359381,0.717236,0.266613,-0.534168,-9.735194,-1.462152,-0.549333,0.003720,-0.006409,0.003033,42.058921,-13.020178,-4.684906,4635729012984766500.000000,-0.426778,0.641130,-0.388832,-0.505590,0
-9.708636,-0.486421,-0.059162,-0.032292,-0.009285,0.015446,41.273232,5.627575,-19.543133,4635731357937434600.000000,0.067595,0.665974,0.093715,-0.736972,-9.378669,2.280726,-1.525925,0.000772,0.000000,-0.011273,45.729668,4.748680,-5.551720,4635727491929997300.000000,0.359423,0.717221,0.266582,-0.534175,-9.780093,-1.401889,-0.563503,0.008889,-0.005789,-0.000343,41.816675,-13.209512,-4.631728,4635729103079604200.000000,-0.426841,0.641098,-0.388831,-0.505579,0
-9.736800,-0.479839,-0.050705,-0.026952,-0.006001,0.018651,41.271357,5.775019,-19.470808,4635731357937434600.000000,0.067743,0.665961,0.093707,-0.736971,-9.401029,2.300431,-1.529309,-0.000592,-0.001184,-0.013410,45.667896,4.768984,-5.454052,4635727491929997300.000000,0.359466,0.717199,0.266558,-0.534188,-9.733662,-1.370391,-0.566663,0.006962,-0.002861,-0.002756,41.785942,-13.208086,-4.633690,4635729103079604200.000000,-0.426898,0.641080,-0.388824,-0.505559,0
-9.794991,-0.500504,-0.066657,-0.021939,0.001645,0.021691,41.287252,5.834232,-19.485796,4635731357937434600.000000,0.067882,0.665974,0.093677,-0.736950,-9.432939,2.272634,-1.541516,-0.003321,-0.003384,-0.015546,45.715267,4.825308,-5.410534,4635727491929997300.000000,0.359514,0.717166,0.266544,-0.534207,-9.685594,-1.390444,-0.575710,0.002413,-0.003548,-0.002585,41.913463,-12.742358,-4.645898,4635729103079604200.000000,-0.426945,0.641067,-0.388807,-0.505549,0
-9.886125,-0.494887,-0.095787,-0.018571,-0.001232,0.023499,41.456265,5.761894,-19.553490,4635731357937434600.000000,0.068018,0.665980,0.093632,-0.736938,-9.424115,2.242780,-1.540192,-0.004929,-0.001068,-0.016794,45.815121,4.810454,-5.481124,4635727491929997300.000000,0.359561,0.717134,0.266540,-0.534219,-9.673387,-1.458561,-0.593039,-0.000791,-0.005961,-0.002136,42.374025,-12.553886,-4.714773,4635729103079604200.000000,-0.426985,0.641055,-0.388781,-0.505551,0
-9.866429,-0.460137,-0.083580,-0.014626,-0.001317,0.023827,41.577517,5.775000,-19.485786,4635731357937434600.000000,0.068143,0.665987,0.093574,-0.736927,-9.417351,2.227191,-1.510336,-0.000180,-0.001956,-0.015430,45.709380,4.745298,-5.454067,4635727521678856200.000000,0.359598,0.717109,0.266521,-0.534238,-9.639931,-1.510552,-0.605246,-0.003996,-0.007029,-0.000897,43.164604,-13.283134,-4.874216,4635729103079604200.000000,-0.427016,0.641044,-0.388749,-0.505563,0
-9.814753,-0.433851,-0.086348,-0.013637,0.002385,0.025963,41.467733,5.860450,-19.583444,4635731357937434600.000000,0.068271,0.666007,0.093507,-0.736906,-9.379414,2.202778,-1.487986,0.003911,-0.004568,-0.012998,45.594650,4.736473,-5.410514,4635727599304179700.000000,0.359631,0.717087,0.266481,-0.534265,-9.640680,-1.504679,-0.603288,-0.006580,-0.011195,0.001859,43.735027,-14.223210,-4.956206,4635729103079604200.000000,-0.427041,0.641024,-0.388711,-0.505596,0
-9.811011,-0.402844,-0.162438,-0.018486,-0.004264,0.027936,41.236704,5.919703,-19.679222,4635731357937434600.000000,0.068421,0.666006,0.093449,-0.736900,-9.319694,2.188506,-1.442538,0.007658,-0.004157,-0.009794,45.662272,4.716186,-5.535222,4635727599304179700.000000,0.359660,0.717075,0.266425,-0.534290,-9.634811,-1.517629,-0.569837,-0.008716,-0.009548,0.003204,43.788429,-14.508736,-4.842901,4635729040791496700.000000,-0.427513,0.640657,-0.389256,-0.505243,0
-9.779115,-0.397233,-0.168147,-0.021932,-0.016350,0.028513,41.115419,5.823030,-19.721651,4635731357937434600.000000,0.068586,0.665967,0.093396,-0.736927,-9.312184,2.204095,-1.405915,0.004453,-0.001364,-0.008069,45.838799,4.663228,-5.649394,4635727569564636200.000000,0.359698,0.717066,0.266375,-0.534301,-9.633597,-1.531051,-0.563496,-0.007135,-0.007648,0.005683,43.677348,-14.385920,-4.647582,4635728995705421800.000000,-0.427523,0.640640,-0.389234,-0.505274,0
-9.711485,-0.362483,-0.083582,-0.030486,-0.016523,0.026704,41.187778,5.688650,-19.498305,4635731357937434600.000000,0.068769,0.665925,0.093375,-0.736950,-9.369086,2.221747,-1.386197,0.001249,-0.003024,-0.010205,45.838799,4.663228,-5.524699,4635727432465182700.000000,0.359743,0.717047,0.266336,-0.534317,-9.707575,-1.469280,-0.559587,-0.004102,-0.008545,0.005618,43.683951,-14.276800,-4.629295,4635728995705421800.000000,-0.427543,0.640615,-0.389217,-0.505302,0
-9.682341,-0.339937,-0.080726,-0.026953,-0.008295,0.025885,41.187778,5.712967,-19.177830,4635731357937434600.000000,0.068937,0.665910,0.093348,-0.736952,-9.414744,2.225126,-1.420744,-0.003729,-0.003271,-0.012045,45.838799,4.686878,-5.410493,4635727277181632500.000000,0.359798,0.717017,0.266313,-0.534330,-9.725395,-1.421186,-0.556413,-0.003204,-0.006687,0.003034,43.714710,-14.246039,-4.781637,4635728995705421800.000000,-0.427567,0.640597,-0.389197,-0.505319,0
-9.702025,-0.331469,-0.114597,-0.023085,-0.012164,0.021690,41.198994,5.847346,-19.237647,4635731357937434600.000000,0.069082,0.665882,0.093319,-0.736967,-9.336595,2.220436,-1.471648,-0.010386,0.001545,-0.012522,45.838799,4.772337,-5.562235,4635727277181632500.000000,0.359867,0.716988,0.266315,-0.534323,-9.690725,-1.416059,-0.540300,0.001132,-0.005341,0.000278,43.806753,-14.238960,-4.752345,4635728995705421800.000000,-0.427753,0.640465,-0.389369,-0.505197,0
-9.751846,-0.343676,-0.065768,-0.026540,-0.005929,0.023172,41.261024,5.834263,-19.596504,4635731357937434600.000000,0.069238,0.665874,0.093300,-0.736962,-9.369837,2.168229,-1.496062,-0.006952,-0.001183,-0.011158,45.794869,4.810477,-5.774102,4635727277181632500.000000,0.359931,0.716959,0.266300,-0.534325,-9.687550,-1.408980,-0.531998,0.001795,-0.005960,-0.001688,43.873409,-14.191357,-4.618802,4635728995705421800.000000,-0.427794,0.640452,-0.389341,-0.505201,0
-9.745244,-0.354015,-0.043095,-0.026289,0.007564,0.021526,41.262892,5.750686,-19.721691,4635731357937434600.000000,0.069383,0.665907,0.093288,-0.736920,-9.387493,2.137599,-1.506962,0.000296,-0.003386,-0.009613,45.703748,4.725036,-5.747080,4635727277181632500.000000,0.359980,0.716938,0.266262,-0.534340,-9.671443,-1.403851,-0.551283,0.000619,-0.005790,-0.002756,43.781386,-14.118116,-4.634405,4635729120230094800.000000,-0.427839,0.640438,-0.389316,-0.505199,0
-9.773399,-0.365229,-0.161441,-0.029581,-0.003424,0.021777,41.273232,5.701733,-19.513271,4635731357937434600.000000,0.069541,0.665906,0.093282,-0.736907,-9.384116,2.189803,-1.492680,0.001659,-0.001364,-0.009022,45.785818,4.686868,-5.649426,4635727277181632500.000000,0.360023,0.716924,0.266222,-0.534350,-9.656056,-1.425087,-0.547383,0.000449,-0.005341,-0.003204,43.714710,-14.087343,-4.732064,4635729210453786600.000000,-0.427884,0.640426,-0.389291,-0.505196,0
-9.809149,-0.430995,-0.219867,-0.027445,-0.034834,0.018322,41.273232,5.787176,-19.247473,4635731357937434600.000000,0.069695,0.665808,0.093271,-0.736983,-9.371908,2.230577,-1.508266,0.003796,-0.003319,-0.007477,45.815155,4.792591,-5.578784,4635727277181632500.000000,0.360065,0.716911,0.266170,-0.534365,-9.677290,-1.461707,-0.551281,0.000619,-0.004102,-0.002585,43.757178,-14.129810,-4.773095,4635729210453786600.000000,-0.427926,0.640415,-0.389269,-0.505190,0
-9.774394,-0.446071,-0.064906,-0.026289,-0.037636,0.019880,41.284438,5.857686,-19.120396,4635731357937434600.000000,0.069852,0.665702,0.093251,-0.737066,-9.366455,2.228500,-1.509044,0.005045,-0.005818,-0.008954,45.706080,4.907376,-5.605794,4635727277181632500.000000,0.360102,0.716892,0.266116,-0.534391,-9.692678,-1.491250,-0.575695,0.004164,-0.004443,-0.000898,43.745492,-14.203051,-4.822635,4635729148204336100.000000,-0.427974,0.640395,-0.389259,-0.505183,0
-9.748113,-0.420654,0.052565,-0.031706,-0.034583,0.024153,41.333401,5.834273,-19.320312,4635731357937434600.000000,0.070034,0.665606,0.093237,-0.737137,-9.378662,2.259665,-1.468264,0.002796,-0.003386,-0.012818,45.585819,4.863493,-5.676443,4635727277181632500.000000,0.360135,0.716872,0.266082,-0.534414,-9.699755,-1.473202,-0.578878,0.002693,-0.005341,0.000000,43.665172,-14.283373,-4.858547,4635729103079604200.000000,-0.428018,0.640374,-0.389247,-0.505182,0
-9.720826,-0.451674,0.060180,-0.041331,-0.040276,0.027445,41.249826,5.750696,-19.566602,4635731357937434600.000000,0.070256,0.665492,0.093241,-0.737219,-9.397621,2.298368,-1.477096,-0.004022,-0.000773,-0.013999,45.594650,4.748680,-5.676443,4635727277181632500.000000,0.360182,0.716845,0.266072,-0.534423,-9.662433,-1.495134,-0.566672,-0.000619,-0.004103,0.003096,43.678788,-14.319284,-4.745339,4635729103079604200.000000,-0.428045,0.640356,-0.389238,-0.505189,0
-9.756436,-0.451674,-0.029002,-0.037562,-0.026214,0.024329,41.200841,5.675587,-19.526401,4635731357937434600.000000,0.070451,0.665420,0.093247,-0.737264,-9.434238,2.286954,-1.500715,-0.011750,0.000000,-0.016500,45.614896,4.816164,-5.676443,4635727277181632500.000000,0.360246,0.716806,0.266087,-0.534424,-9.624567,-1.554222,-0.568615,-0.000449,-0.003823,0.005960,43.806677,-14.269765,-4.670302,4635729103079604200.000000,-0.428369,0.640100,-0.389623,-0.504942,0
-9.844761,-0.459133,-0.129534,-0.025725,-0.023826,0.017417,41.271367,5.640496,-19.392644,4635731357937434600.000000,0.070592,0.665357,0.093237,-0.737309,-9.440486,2.200203,-1.555797,-0.008501,-0.000295,-0.013773,45.711774,5.040081,-5.652816,4635727277181632500.000000,0.360306,0.716774,0.266087,-0.534427,-9.647734,-1.532305,-0.566673,0.000000,-0.001796,0.005790,43.823883,-14.233832,-4.781562,4635729103079604200.000000,-0.428378,0.640088,-0.389615,-0.504954,0
-9.875790,-0.487453,-0.157853,-0.022089,-0.026778,0.019390,41.261024,5.860397,-19.568468,4635731357937434600.000000,0.070729,0.665286,0.093210,-0.737363,-9.384118,2.128755,-1.517884,0.002953,-0.002545,-0.009205,45.873839,5.140108,-5.587616,4635727277181632500.000000,0.360344,0.716760,0.266044,-0.534441,-9.717782,-1.501511,-0.568615,0.000000,0.000000,0.006579,43.745511,-14.325794,-4.915139,4635729103079604200.000000,-0.428382,0.640081,-0.389611,-0.504964,0
-9.862754,-0.403879,-0.063106,-0.032533,-0.026269,0.019969,41.261024,5.919763,-19.553571,4635731357937434600.000000,0.070896,0.665215,0.093213,-0.737411,-9.395529,2.186413,-1.468262,0.009205,-0.006409,-0.005046,45.973878,5.010804,-5.578784,4635727277181632500.000000,0.360377,0.716751,0.265970,-0.534469,-9.767861,-1.466147,-0.559602,0.000000,0.000000,0.005002,43.672275,-14.442038,-4.843041,4635729165290398700.000000,-0.428399,0.640067,-0.389616,-0.504963,0
-9.782885,-0.349260,0.038679,-0.032803,0.013706,0.017343,41.274066,5.860389,-19.470808,4635731357937434600.000000,0.071040,0.665265,0.093236,-0.737349,-9.445157,2.221747,-1.480469,0.005046,-0.006409,-0.003977,45.868191,4.810518,-5.605770,4635727336524742700.000000,0.360425,0.716737,0.265901,-0.534489,-9.806421,-1.433401,-0.563479,0.000619,0.000000,0.001348,43.641468,-14.386035,-4.760887,4635729210453786600.000000,-0.428426,0.640059,-0.389613,-0.504953,0
-9.756403,-0.392499,-0.109657,-0.018249,0.019028,0.013144,41.346474,5.932798,-19.500599,4635731357937434600.000000,0.071128,0.665335,0.093228,-0.737278,-9.419462,2.231864,-1.502792,0.003092,-0.007294,-0.003795,45.733115,4.772286,-5.730399,4635727491929997300.000000,0.360479,0.716718,0.265836,-0.534511,-9.777450,-1.414121,-0.573748,-0.001407,-0.002475,-0.001857,43.634395,-14.227339,-4.817469,4635729210453786600.000000,-0.428458,0.640054,-0.389592,-0.504949,0
-9.829857,-0.391673,-0.210633,-0.012818,-0.012401,0.013814,41.333440,5.919764,-19.666126,4635731357937434600.000000,0.071215,0.665309,0.093192,-0.737297,-9.378658,2.251626,-1.517901,0.000000,-0.008728,-0.005636,45.676732,4.830760,-5.844786,4635727491929997300.000000,0.360540,0.716689,0.265781,-0.534535,-9.706148,-1.446283,-0.573748,-0.002586,-0.003035,-0.003823,43.678763,-14.160588,-4.858547,4635729210453786600.000000,-0.428492,0.640053,-0.389563,-0.504944,0
-9.753927,-0.346355,-0.016968,-0.012003,-0.013579,0.007314,41.249854,5.834314,-19.649371,4635731357937434600.000000,0.071280,0.665279,0.093171,-0.737321,-9.387493,2.213727,-1.458146,0.000295,-0.006114,-0.005524,45.647668,4.798326,-5.720162,4635727432624189400.000000,0.360597,0.716667,0.265729,-0.534552,-9.673399,-1.491238,-0.580819,-0.000280,-0.002755,-0.003035,43.757139,-14.203016,-4.858547,4635729148255877100.000000,-0.428530,0.640047,-0.389541,-0.504935,0
-9.630595,-0.437606,0.016974,-0.007803,0.001953,0.006897,41.200800,5.761894,-19.543237,4635731357937434600.000000,0.071325,0.665297,0.093144,-0.737304,-9.363890,2.150595,-1.440474,0.004314,-0.005636,-0.003204,45.638486,4.760076,-5.578784,4635727277181632500.000000,0.360647,0.716655,0.265662,-0.534569,-9.654122,-1.444947,-0.585955,-0.005737,-0.005060,-0.000899,43.837450,-14.191410,-4.865617,4635729103079604200.000000,-0.428799,0.639852,-0.389822,-0.504737,0
-9.701975,-0.423541,-0.046726,-0.008800,0.010378,0.009125,41.260217,5.748880,-19.498697,4635731357937434600.000000,0.071377,0.665342,0.093116,-0.737262,-9.298670,2.134201,-1.423619,0.011638,-0.005819,-0.002909,45.844361,4.848891,-5.605750,4635727277181632500.000000,0.360675,0.716653,0.265578,-0.534594,-9.608499,-1.417991,-0.578886,-0.011300,-0.006409,0.000619,43.866337,-14.203007,-4.920243,4635729103079604200.000000,-0.428794,0.639861,-0.389765,-0.504773,0
-9.740694,-0.399124,-0.167183,-0.003784,-0.005972,0.006083,41.187778,5.689464,-19.653919,4635731357937434600.000000,0.071411,0.665337,0.093076,-0.737268,-9.306688,2.177565,-1.382807,0.007070,-0.003388,-0.002726,46.035755,4.919583,-5.676443,4635727277181632500.000000,0.360714,0.716650,0.265507,-0.534606,-9.575741,-1.449478,-0.559607,-0.009275,-0.005790,0.002306,43.776351,-14.283327,-4.956206,4635729103079604200.000000,-0.428790,0.639866,-0.389718,-0.504808,0
-9.647814,-0.378430,-0.126040,-0.000905,-0.020062,0.004598,41.198933,5.774907,-19.640906,4635731357937434600.000000,0.071439,0.665289,0.093028,-0.737315,-9.350871,2.211636,-1.408496,0.000845,-0.001068,-0.003683,45.730041,5.030808,-5.679813,4635727277181632500.000000,0.360767,0.716642,0.265457,-0.534606,-9.605952,-1.457819,-0.542264,-0.003147,-0.004104,0.004442,43.672294,-14.368771,-4.843092,4635729103079604200.000000,-0.428807,0.639850,-0.389708,-0.504821,0
-9.537700,-0.382147,-0.010349,0.000000,-0.010866,0.006572,41.274036,5.834335,-19.538727,4635731357937434600.000000,0.071466,0.665271,0.092975,-0.737335,-9.350871,2.178387,-1.452681,-0.005636,-0.000773,-0.002136,44.953007,5.524566,-5.698757,4635727277181632500.000000,0.360842,0.716627,0.265417,-0.534596,-9.624573,-1.480954,-0.558331,0.001855,-0.004441,0.007815,43.690945,-14.397667,-4.654862,4635729103079604200.000000,-0.428830,0.639819,-0.389717,-0.504834,0
-9.575114,-0.393557,0.000000,0.000488,0.001625,0.008615,41.346474,5.761894,-19.388010,4635731357937434600.000000,0.071492,0.665292,0.092918,-0.737321,-9.367713,2.191025,-1.452681,-0.006114,-0.000295,-0.002726,44.024916,6.145817,-5.674747,4635727277181632500.000000,0.360917,0.716611,0.265381,-0.534584,-9.633570,-1.543921,-0.573748,0.002586,-0.002248,0.011469,43.769328,-14.350119,-4.577776,4635729103079604200.000000,-0.428944,0.639708,-0.389867,-0.504761,0
-9.681265,-0.334378,-0.011144,0.004017,0.009056,0.014467,41.359475,5.774896,-19.485667,4635731357937434600.000000,0.071524,0.665339,0.092837,-0.737285,-9.422015,2.273946,-1.466157,-0.007404,-0.000773,-0.004567,43.700840,6.317092,-5.542161,4635727336447439900.000000,0.360991,0.716591,0.265353,-0.534576,-9.672119,-1.539417,-0.559613,0.001518,0.000000,0.012818,43.750690,-14.227407,-4.634317,4635729103079604200.000000,-0.428949,0.639679,-0.389896,-0.504772,0
-9.762997,-0.292978,-0.058394,0.008708,0.000325,0.011750,41.418932,5.834352,-19.568468,4635731357937434600.000000,0.071538,0.665360,0.092747,-0.737276,-9.441794,2.249105,-1.511614,-0.009281,0.000000,-0.005635,43.895303,6.093173,-5.592680,4635727491929997300.000000,0.361068,0.716568,0.265334,-0.534564,-9.749220,-1.527853,-0.542265,0.002305,0.000618,0.013436,43.714710,-14.068707,-4.675436,4635729103079604200.000000,-0.428953,0.639649,-0.389930,-0.504780,0
-9.818467,-0.287406,0.031844,0.010263,0.005387,0.011100,41.322329,5.750750,-19.566611,4635731357937434600.000000,0.071543,0.665397,0.092655,-0.737254,-9.424115,2.177548,-1.528030,0.000295,-0.000295,-0.005820,44.010215,6.040138,-5.755580,4635727491929997300.000000,0.361115,0.716558,0.265294,-0.534565,-9.776202,-1.559335,-0.551261,0.005060,0.000450,0.015123,43.757116,-14.044297,-4.675436,4635729103079604200.000000,-0.428962,0.639610,-0.389974,-0.504788,0
-9.848446,-0.250788,0.058398,0.014048,0.022850,0.006827,41.211905,5.712776,-19.558115,4635731357937434600.000000,0.071517,0.665488,0.092569,-0.737185,-9.430848,2.221747,-1.498144,-0.000110,-0.002246,-0.003683,43.804379,6.202211,-5.808207,4635727491929997300.000000,0.361170,0.716546,0.265245,-0.534567,-9.744722,-1.560621,-0.561541,0.006409,-0.000618,0.015404,43.837425,-14.216474,-4.781439,4635729103079604200.000000,-0.429121,0.639454,-0.390203,-0.504673,0
-9.900204,-0.229007,-0.031834,0.015279,0.019389,0.003042,41.346474,5.847346,-19.583307,4635731357937434600.000000,0.071478,0.665567,0.092489,-0.737128,-9.441798,2.225113,-1.485937,-0.003204,-0.004163,-0.002725,44.074475,5.891236,-5.673525,4635727521537133600.000000,0.361239,0.716527,0.265198,-0.534571,-9.743433,-1.529142,-0.568607,0.005791,-0.003541,0.014954,43.873409,-14.361681,-4.971604,4635729103079604200.000000,-0.429126,0.639415,-0.390226,-0.504700,0
-9.894636,-0.280770,-0.076956,0.017090,0.018833,0.000837,41.322348,5.810229,-19.649423,4635731357937434600.000000,0.071427,0.665644,0.092410,-0.737073,-9.420750,2.233955,-1.493923,-0.001438,-0.002541,-0.004273,45.175648,5.102361,-5.498808,4635727599304179700.000000,0.361297,0.716512,0.265155,-0.534574,-9.732519,-1.506653,-0.580813,0.004104,-0.004104,0.015572,43.781557,-14.441987,-4.884294,4635729103079604200.000000,-0.429129,0.639375,-0.390249,-0.504731,0
-9.852455,-0.284479,-0.097659,0.016604,0.010357,-0.006409,41.174797,5.627305,-19.541424,4635731357937434600.000000,0.071358,0.665692,0.092350,-0.737044,-9.405176,2.223857,-1.528035,0.003499,-0.007587,-0.004273,45.835433,4.816001,-5.508052,4635727599304179700.000000,0.361345,0.716493,0.265093,-0.534597,-9.717093,-1.480317,-0.585955,0.001968,-0.003204,0.015404,43.721775,-14.386141,-4.598402,4635729103079604200.000000,-0.429135,0.639334,-0.390280,-0.504754,0
-9.794043,-0.307038,-0.097659,0.013075,0.008707,-0.005922,41.113443,5.800806,-19.475277,4635731341639338000.000000,0.071300,0.665734,0.092300,-0.737018,-9.377399,2.207426,-1.491417,0.006039,-0.009504,-0.004861,45.806405,4.992828,-5.605700,4635727569709927400.000000,0.361386,0.716473,0.265024,-0.534630,-9.695901,-1.443696,-0.585955,0.000450,-0.003204,0.013100,43.811687,-14.227453,-4.536629,4635729103079604200.000000,-0.429189,0.639262,-0.390363,-0.504735,0
-9.822158,-0.309987,-0.116174,0.007249,0.008479,-0.003204,41.188532,5.979369,-19.568468,4635731250563252200.000000,0.071268,0.665775,0.092259,-0.736989,-9.357599,2.230591,-1.468252,0.009210,-0.006409,-0.006703,45.776896,4.925550,-5.622620,4635727491929997300.000000,0.361410,0.716462,0.264959,-0.534660,-9.680470,-1.428266,-0.578891,0.000618,-0.005059,0.010513,44.007623,-14.202972,-4.747312,4635729103079604200.000000,-0.429196,0.639234,-0.390365,-0.504763,0
-9.863582,-0.266713,-0.219733,-0.000324,0.001813,-0.002881,41.273976,5.737841,-19.566618,4635731250563252200.000000,0.071259,0.665794,0.092240,-0.736975,-9.371921,2.235206,-1.463638,0.005930,-0.006998,-0.007477,45.838799,4.768868,-5.427291,4635727551118501900.000000,0.361443,0.716445,0.264903,-0.534689,-9.666346,-1.385892,-0.566686,0.000450,-0.004555,0.009613,44.062974,-14.325642,-4.927252,4635729103079604200.000000,-0.429201,0.639211,-0.390361,-0.504792,0
-9.865432,-0.252655,-0.217883,-0.002946,-0.001619,-0.001068,41.346474,5.627254,-19.543306,4635731250563252200.000000,0.071265,0.665802,0.092223,-0.736969,-9.369805,2.277304,-1.424903,0.005417,-0.007368,-0.009537,45.835435,4.845469,-5.285806,4635727706678362100.000000,0.361472,0.716424,0.264854,-0.534722,-9.670178,-1.333839,-0.561541,-0.001236,-0.005676,0.008995,43.848516,-14.350162,-4.848375,4635729103079604200.000000,-0.429207,0.639187,-0.390353,-0.504823,0
-9.857277,-0.235643,-0.209377,-0.008773,-0.011167,-0.000582,41.309449,5.750787,-19.454147,4635731250563252200.000000,0.071291,0.665780,0.092220,-0.736988,-9.380766,2.281538,-1.416059,-0.001177,-0.003095,-0.015543,45.826591,4.907376,-5.339622,4635727706678362100.000000,0.361503,0.716395,0.264844,-0.534744,-9.645161,-1.346647,-0.554479,-0.005226,-0.008095,0.007309,43.714710,-14.276913,-4.711454,4635729103079604200.000000,-0.429218,0.639161,-0.390339,-0.504856,0
-9.744471,-0.254506,-0.212337,-0.018287,-0.012915,0.003107,41.102325,5.662764,-19.388676,4635731283089948700.000000,0.071356,0.665751,0.092236,-0.737005,-9.376531,2.246162,-1.412696,-0.005155,0.000000,-0.017385,45.782871,4.930918,-5.588744,4635727706678362100.000000,0.361538,0.716366,0.264853,-0.534755,-9.633555,-1.388412,-0.563455,-0.006859,-0.007927,0.004555,43.806502,-14.196614,-4.731922,4635729103079604200.000000,-0.429275,0.639109,-0.390371,-0.504850,0
-9.703780,-0.244148,-0.183855,-0.031948,-0.008934,0.009355,41.163383,5.541799,-19.575506,4635731465311617000.000000,0.071477,0.665732,0.092278,-0.737005,-9.415270,2.236077,-1.400490,-0.008359,0.000000,-0.019041,45.667896,5.016360,-5.871761,4635727706678362100.000000,0.361578,0.716330,0.264875,-0.534765,-9.650908,-1.432090,-0.566688,-0.004556,-0.008712,0.001351,43.873409,-14.252363,-4.773095,4635729103079604200.000000,-0.429294,0.639097,-0.390332,-0.504880,0
-9.777023,-0.245998,-0.247105,-0.038195,-0.018709,0.014048,41.518122,5.715293,-19.725679,4635731465311617000.000000,0.071632,0.665684,0.092323,-0.737028,-9.424115,2.202818,-1.405088,-0.010387,0.000294,-0.021069,45.735116,5.054753,-5.844873,4635727706678362100.000000,0.361619,0.716289,0.264908,-0.534776,-9.698419,-1.417379,-0.561541,-0.003204,-0.009613,-0.001236,43.831046,-14.269861,-4.716611,4635729103079604200.000000,-0.429325,0.639083,-0.390289,-0.504904,0
-9.835469,-0.256355,-0.186075,-0.043211,-0.028095,0.015278,41.553647,5.932798,-19.564036,4635731465311617000.000000,0.071809,0.665606,0.092377,-0.737074,-9.420754,2.175041,-1.447196,-0.008143,0.000774,-0.018824,45.912045,4.972660,-5.747212,4635727706678362100.000000,0.361658,0.716256,0.264930,-0.534783,-9.694004,-1.434000,-0.568600,-0.003204,-0.008996,-0.003372,43.793104,-14.191476,-4.731910,4635729103079604200.000000,-0.429359,0.639074,-0.390240,-0.504923,0
-9.809206,-0.263751,-0.117643,-0.045445,-0.028614,0.017414,41.333533,5.919857,-19.500388,4635731465311617000.000000,0.071999,0.665527,0.092433,-0.737120,-9.411908,2.151863,-1.461529,-0.003097,-0.000294,-0.014366,45.868371,4.916224,-5.703319,4635727706678362100.000000,0.361692,0.716232,0.264926,-0.534793,-9.696496,-1.471947,-0.566690,-0.001969,-0.009780,-0.004273,43.787956,-14.160588,-4.829560,4635729103079604200.000000,-0.429397,0.639065,-0.390189,-0.504943,0
-9.779978,-0.308882,-0.024415,-0.042564,-0.020878,0.020035,41.261024,5.834406,-19.679066,4635731465311617000.000000,0.072185,0.665474,0.092475,-0.737145,-9.405188,2.153990,-1.445961,0.000000,-0.000774,-0.012524,45.729828,4.907376,-5.774102,4635727706678362100.000000,0.361722,0.716215,0.264910,-0.534805,-9.731209,-1.434747,-0.568599,-0.001068,-0.009446,-0.005508,43.703259,-14.252344,-4.807231,4635729103079604200.000000,-0.429449,0.639049,-0.390147,-0.504951,0
-9.786643,-0.331447,-0.022568,-0.041496,-0.019128,0.024406,41.273954,5.774824,-19.738650,4635731465311617000.000000,0.072381,0.665428,0.092503,-0.737164,-9.370698,2.146373,-1.424907,0.000294,-0.001176,-0.011750,45.691410,4.907376,-5.800975,4635727706678362100.000000,0.361753,0.716197,0.264890,-0.534817,-9.713279,-1.368565,-0.566691,-0.002921,-0.009163,-0.007026,43.641468,-14.276940,-4.704429,4635729103079604200.000000,-0.429498,0.639041,-0.390097,-0.504958,0
-9.764077,-0.347345,-0.012207,-0.038975,-0.025375,0.023338,41.370470,5.834425,-19.666126,4635731465311617000.000000,0.072569,0.665363,0.092523,-0.737201,-9.333174,2.189711,-1.436211,0.000774,-0.004566,-0.012337,45.776860,4.910735,-5.871761,4635727706678362100.000000,0.361784,0.716173,0.264866,-0.534841,-9.692678,-1.392217,-0.554483,-0.004273,-0.009613,-0.006860,43.733215,-14.330730,-4.670286,4635729103079604200.000000,-0.429544,0.639033,-0.390045,-0.504969,0
-9.744486,-0.380275,-0.006670,-0.029101,-0.029585,0.022108,41.505173,5.774815,-19.695660,4635731465311617000.000000,0.072727,0.665288,0.092516,-0.737254,-9.350871,2.240671,-1.489303,0.000000,-0.004753,-0.014180,45.838799,4.896077,-5.791167,4635727706678362100.000000,0.361813,0.716144,0.264849,-0.534868,-9.650329,-1.470615,-0.556391,-0.003037,-0.008378,-0.004556,43.807221,-14.533691,-4.668377,4635729103079604200.000000,-0.429738,0.638905,-0.390196,-0.504850,0
-9.681603,-0.398020,0.037336,-0.023598,-0.025511,0.019972,41.468256,5.860267,-19.831911,4635731465311617000.000000,0.072861,0.665227,0.092500,-0.737298,-9.344154,2.248295,-1.485945,-0.000588,-0.003792,-0.015836,45.815291,4.830773,-5.551917,4635727706678362100.000000,0.361840,0.716115,0.264840,-0.534893,-9.591208,-1.487398,-0.568597,-0.002754,-0.007477,-0.001352,43.713581,-14.587282,-4.719679,4635729103079604200.000000,-0.429770,0.638892,-0.390161,-0.504865,0
-9.610204,-0.448696,0.104329,-0.016543,-0.009265,0.017351,41.261024,5.919877,-19.636593,4635731465311617000.000000,0.072962,0.665217,0.092474,-0.737300,-9.326456,2.215034,-1.477096,-0.002430,-0.005047,-0.019627,45.773488,4.868917,-5.534830,4635727706678362100.000000,0.361864,0.716077,0.264844,-0.534926,-9.563549,-1.470041,-0.559638,-0.002587,-0.006860,0.003087,43.634413,-14.374845,-4.873770,4635729103079604200.000000,-0.429795,0.638871,-0.390144,-0.504884,0
-9.569470,-0.509732,0.049251,-0.005055,0.008259,0.012495,41.297937,5.823353,-19.470808,4635731465311617000.000000,0.073008,0.665263,0.092432,-0.737260,-9.346600,2.210762,-1.477096,-0.004673,-0.003979,-0.024087,45.803090,5.039829,-5.706658,4635727706678362100.000000,0.361884,0.716032,0.264869,-0.534960,-9.586621,-1.528393,-0.542277,-0.000901,-0.006409,0.007810,43.713933,-14.147255,-5.069102,4635729103079604200.000000,-0.429814,0.638840,-0.390144,-0.504908,0
-9.644550,-0.557852,-0.087296,0.012095,-0.006954,0.009391,41.505173,5.712624,-19.470808,4635731465311617000.000000,0.073003,0.665266,0.092341,-0.737268,-9.406669,2.235708,-1.487550,-0.011289,-0.003509,-0.025940,45.765531,5.163732,-5.782825,4635727706678362100.000000,0.361918,0.715977,0.264915,-0.534988,-9.656611,-1.602975,-0.551236,0.000000,-0.006409,0.010848,43.782804,-14.216235,-4.982205,4635729103079604200.000000,-0.429921,0.638731,-0.390270,-0.504857,0
-9.715250,-0.527910,-0.084757,0.032690,-0.015861,0.001330,41.494114,5.860248,-19.470808,4635731449099817000.000000,0.072920,0.665245,0.092208,-0.737312,-9.412696,2.205734,-1.521331,-0.017159,-0.004606,-0.027370,45.853237,5.137087,-5.774102,4635727706678362100.000000,0.361968,0.715909,0.264977,-0.535015,-9.720893,-1.588316,-0.575648,0.001234,-0.005792,0.012367,43.703312,-14.368660,-4.802117,4635729103079604200.000000,-0.429935,0.638690,-0.390287,-0.504883,0
-9.710418,-0.479777,-0.004831,0.036801,-0.013340,-0.003043,41.442992,5.932798,-19.472652,4635731357937434600.000000,0.072810,0.665232,0.092074,-0.737351,-9.376071,2.178296,-1.519096,-0.013955,-0.006007,-0.029506,45.885392,5.051628,-5.713183,4635727706678362100.000000,0.362004,0.715840,0.265036,-0.535053,-9.713293,-1.513172,-0.564794,0.001519,-0.005958,0.014052,43.634415,-14.313037,-4.817317,4635729103079604200.000000,-0.429946,0.638645,-0.390309,-0.504913,0
-9.741508,-0.485760,0.042151,0.037909,-0.003950,-0.001653,41.492272,5.919898,-19.525402,4635731357937434600.000000,0.072698,0.665249,0.091937,-0.737365,-9.366097,2.113457,-1.458063,-0.010417,-0.007477,-0.029977,45.777108,5.019473,-5.521686,4635727706678362100.000000,0.362031,0.715773,0.265087,-0.535100,-9.713840,-1.477096,-0.528172,0.000451,-0.007026,0.013720,43.671582,-14.104965,-4.809171,4635729103079604200.000000,-0.429957,0.638601,-0.390326,-0.504947,0
-9.750720,-0.389947,0.047450,0.028034,-0.001653,0.001552,41.395768,5.860244,-19.763786,4635731357937434600.000000,0.072621,0.665271,0.091822,-0.737366,-9.426332,2.097291,-1.416059,-0.006145,-0.007477,-0.026440,45.721158,5.025017,-5.483175,4635727706678362100.000000,0.362052,0.715716,0.265118,-0.535146,-9.715193,-1.484150,-0.526818,0.003086,-0.006860,0.014669,43.709557,-14.142966,-4.716665,4635729103079604200.000000,-0.429972,0.638551,-0.390352,-0.504977,0
-9.815424,-0.313713,-0.121579,0.025592,0.000424,0.003629,41.261024,5.945678,-19.721467,4635731357937434600.000000,0.072557,0.665300,0.091709,-0.737361,-9.477542,2.184333,-1.473133,-0.006201,-0.007810,-0.023499,45.838799,4.911181,-5.737321,4635727706678362100.000000,0.362080,0.715662,0.265140,-0.535189,-9.697833,-1.461092,-0.523020,0.006575,-0.005175,0.015405,43.714710,-14.422361,-4.781229,4635729041043764200.000000,-0.430193,0.638341,-0.390643,-0.504829,0
-9.893517,-0.302178,-0.248996,0.038190,-0.003687,-0.000644,41.273904,5.992490,-19.451736,4635731357937434600.000000,0.072447,0.665318,0.091569,-0.737373,-9.453127,2.167685,-1.599170,-0.009488,-0.008878,-0.022167,45.812164,4.942413,-5.810881,4635727706678362100.000000,0.362121,0.715602,0.265164,-0.535230,-9.685627,-1.433422,-0.540917,0.008711,-0.000571,0.015571,43.714710,-14.508916,-4.964318,4635728995705421800.000000,-0.430203,0.638299,-0.390683,-0.504843,0
-9.909901,-0.365053,-0.189128,0.041760,-0.004960,-0.004595,41.346474,5.821590,-19.317804,4635731357937434600.000000,0.072314,0.665333,0.091429,-0.737390,-9.424913,2.067652,-1.545921,0.000526,-0.010279,-0.016897,45.753349,5.019452,-5.676443,4635727706678362100.000000,0.362146,0.715559,0.265148,-0.535277,-9.708674,-1.435317,-0.547439,0.010230,0.000902,0.012937,43.757016,-14.336965,-4.992302,4635728995705421800.000000,-0.430218,0.638263,-0.390720,-0.504847,0
-9.815930,-0.421744,-0.076260,0.035513,0.007869,-0.006891,41.359342,5.652545,-19.556259,4635731357937434600.000000,0.072186,0.665384,0.091318,-0.737370,-9.414918,2.062257,-1.416853,0.008406,-0.009419,-0.009419,45.776175,5.078280,-5.767750,4635727706678362100.000000,0.362163,0.715539,0.265093,-0.535320,-9.722250,-1.398169,-0.544177,0.008831,0.000000,0.011298,43.879616,-14.325493,-5.012612,4635728995705421800.000000,-0.430234,0.638230,-0.390748,-0.504853,0
-9.746366,-0.394311,-0.039113,0.032745,0.038682,-0.009131,41.419066,5.517746,-19.541561,4635731357937434600.000000,0.072048,0.665528,0.091232,-0.737264,-9.444727,2.091270,-1.387840,0.012485,-0.003274,-0.003274,45.777146,5.131530,-5.942795,4635727706678362100.000000,0.362174,0.715546,0.265021,-0.535339,-9.702995,-1.388376,-0.563431,0.006860,-0.001850,0.012366,43.904358,-14.392529,-4.997472,4635728995705421800.000000,-0.430246,0.638195,-0.390772,-0.504869,0
-9.714078,-0.405859,-0.144136,0.043369,0.059102,-0.005283,41.346474,5.517746,-19.473309,4635731357937434600.000000,0.071884,0.665740,0.091108,-0.737104,-9.386903,2.103475,-1.371834,0.011084,-0.000070,-0.000736,45.664095,5.298603,-5.853556,4635727706678362100.000000,0.362191,0.715560,0.264949,-0.535344,-9.650391,-1.424995,-0.566700,0.006409,-0.001971,0.013434,43.690164,-14.174045,-4.737722,4635728995705421800.000000,-0.430265,0.638151,-0.390810,-0.504879,0
-9.764084,-0.341147,-0.252018,0.045873,0.028081,0.001872,41.346474,5.543482,-19.528685,4635731357937434600.000000,0.071746,0.665860,0.090948,-0.737029,-9.300438,2.111881,-1.343616,0.010611,0.003134,-0.000665,45.682302,5.331840,-5.812923,4635727706678362100.000000,0.362206,0.715581,0.264883,-0.535338,-9.619433,-1.440474,-0.568588,0.004559,-0.002918,0.015119,43.556015,-14.056386,-4.627111,4635728995705421800.000000,-0.430277,0.638105,-0.390847,-0.504898,0
-9.735347,-0.263052,-0.134818,0.038075,0.015125,0.006409,41.335453,5.701508,-19.358455,4635731357937434600.000000,0.071649,0.665939,0.090796,-0.736985,-9.366079,2.123287,-1.306993,0.010489,0.006006,-0.001804,45.771555,5.083888,-5.810927,4635727706678362100.000000,0.362215,0.715607,0.264825,-0.535326,-9.640575,-1.461615,-0.566701,0.003204,-0.003656,0.016022,43.689909,-14.263519,-4.832356,4635728995705421800.000000,-0.430285,0.638059,-0.390882,-0.504923,0
-9.631641,-0.233776,-0.009179,0.029105,0.036911,0.005445,41.260381,5.772266,-19.290176,4635731357937434600.000000,0.071565,0.666083,0.090681,-0.736878,-9.384498,2.159905,-1.296979,0.003678,0.008475,-0.001401,45.785592,4.933980,-5.619435,4635727706678362100.000000,0.362243,0.715629,0.264786,-0.535298,-9.663103,-1.484142,-0.568587,0.003821,-0.003204,0.017255,43.879559,-14.300925,-4.906881,4635728995705421800.000000,-0.430435,0.637898,-0.391106,-0.504825,0
-9.642661,-0.253331,-0.070220,0.024246,0.051696,0.000161,41.200635,5.750875,-19.371313,4635731357937434600.000000,0.071473,0.666269,0.090600,-0.736729,-9.354673,2.169919,-1.345813,0.000000,0.012012,-0.002136,45.641285,5.068859,-5.554156,4635727706678362100.000000,0.362275,0.715653,0.264762,-0.535256,-9.675310,-1.447025,-0.566702,0.004889,-0.003204,0.016309,43.904374,-14.233832,-4.814383,4635728871747706900.000000,-0.430439,0.637855,-0.391137,-0.504852,0
-9.721395,-0.305185,-0.120240,0.023234,0.044857,0.000747,41.284237,5.688650,-19.362775,4635731357937434600.000000,0.071388,0.666434,0.090519,-0.736598,-9.370680,2.136296,-1.379437,-0.000665,0.015287,-0.002136,45.555835,5.214170,-5.688650,4635727706678362100.000000,0.362306,0.715682,0.264745,-0.535204,-9.701608,-1.366740,-0.547449,0.005957,-0.001971,0.013105,43.739544,-14.325424,-4.766049,4635728780957057000.000000,-0.430457,0.637812,-0.391173,-0.504863,0
-9.809246,-0.308856,-0.104360,0.027611,0.023813,-0.001068,41.322611,5.675801,-19.371314,4635731357937434600.000000,0.071293,0.666535,0.090424,-0.736527,-9.395093,2.140096,-1.417437,-0.001139,0.016355,-0.003134,45.500791,5.083930,-5.658249,4635727740103134200.000000,0.362334,0.715712,0.264734,-0.535150,-9.731183,-1.337652,-0.544171,0.008875,-0.000452,0.008667,43.599198,-14.491157,-4.753842,4635728780957057000.000000,-0.430490,0.637774,-0.391206,-0.504857,0
-9.772624,-0.331435,-0.062234,0.026543,0.007156,-0.000747,41.187778,5.614209,-19.390303,4635731357937434600.000000,0.071209,0.666585,0.090327,-0.736502,-9.415708,2.148503,-1.501511,0.000736,0.017755,-0.004676,45.558596,4.933974,-5.560594,4635727814052544500.000000,0.362352,0.715747,0.264725,-0.535096,-9.706283,-1.378039,-0.556378,0.010065,0.000616,0.007025,43.603448,-14.422534,-4.755725,4635728780957057000.000000,-0.430527,0.637739,-0.391239,-0.504844,0
-9.737842,-0.350972,0.003666,0.025315,0.006624,0.001549,41.198776,5.676443,-19.570922,4635731357937434600.000000,0.071135,0.666634,0.090228,-0.736477,-9.427914,2.156100,-1.509108,0.000000,0.017897,-0.003537,45.717278,5.046008,-5.523720,4635727814052544500.000000,0.362374,0.715782,0.264716,-0.535039,-9.680470,-1.396807,-0.568585,0.009613,-0.000165,0.005012,43.720834,-14.227711,-4.824284,4635728780957057000.000000,-0.430569,0.637706,-0.391265,-0.504829,0
-9.731766,-0.401010,0.020747,0.023339,0.013886,0.005075,41.262859,5.665438,-19.624573,4635731357937434600.000000,0.071074,0.666706,0.090127,-0.736430,-9.424928,2.172918,-1.537320,0.000997,0.013957,-0.004273,45.826591,5.190319,-5.651761,4635727814052544500.000000,0.362395,0.715809,0.264700,-0.534997,-9.687514,-1.384601,-0.566704,0.006532,-0.002301,0.005053,43.745695,-14.252153,-4.920058,4635728842910143500.000000,-0.430606,0.637675,-0.391280,-0.504826,0
-9.823921,-0.388803,-0.009168,0.022592,0.011479,0.010255,41.260396,5.603198,-19.458601,4635731357937434600.000000,0.071033,0.666772,0.090014,-0.736388,-9.388307,2.169120,-1.543560,0.004201,0.012082,-0.003276,45.750639,5.222600,-5.786309,4635727747246524400.000000,0.362410,0.715838,0.264673,-0.534961,-9.685635,-1.421697,-0.575627,0.001807,-0.004437,0.006409,43.573841,-14.368588,-4.892815,4635728888331239400.000000,-0.430632,0.637645,-0.391285,-0.504838,0
-9.872127,-0.374767,-0.055543,0.023980,-0.004379,0.014046,41.211584,5.603198,-19.487900,4635731357937434600.000000,0.071005,0.666792,0.089882,-0.736389,-9.370674,2.175903,-1.509107,0.004747,0.012485,-0.002398,45.533068,5.137145,-5.755924,4635727599304179700.000000,0.362426,0.715869,0.264642,-0.534924,-9.652300,-1.480851,-0.578913,0.000000,-0.005341,0.007641,43.470562,-14.313182,-4.853382,4635728888331239400.000000,-0.430651,0.637614,-0.391288,-0.504858,0
-9.838555,-0.361340,-0.020752,0.027345,-0.015648,0.014473,41.370282,5.590378,-19.653919,4635731357937434600.000000,0.070973,0.666779,0.089735,-0.736422,-9.391290,2.209540,-1.522128,0.000404,0.010088,-0.005341,45.499691,5.051700,-5.658273,4635727599304179700.000000,0.362450,0.715885,0.264626,-0.534894,-9.610515,-1.508553,-0.566706,-0.001232,-0.004725,0.011626,43.562110,-14.246039,-4.914883,4635728888331239400.000000,-0.430657,0.637581,-0.391301,-0.504885,0
-9.756760,-0.402844,0.000000,0.030495,-0.006836,0.011269,41.494178,5.504919,-19.637427,4635731357937434600.000000,0.070919,0.666792,0.089591,-0.736432,-9.388310,2.190557,-1.513718,-0.001068,0.006077,-0.005341,45.743830,4.992828,-5.617567,4635727599304179700.000000,0.362482,0.715890,0.264607,-0.534874,-9.630229,-1.527802,-0.561541,0.002177,-0.004273,0.016351,43.678554,-14.238998,-4.899870,4635728826391038000.000000,-0.430662,0.637534,-0.391333,-0.504915,0
-9.710378,-0.399182,-0.005493,0.027932,-0.003365,0.008225,41.419110,5.457928,-19.560531,4635731357937434600.000000,0.070862,0.666814,0.089464,-0.736433,-9.363078,2.144707,-1.498535,-0.000736,0.004012,-0.005341,45.885474,5.019398,-5.706808,4635727599304179700.000000,0.362516,0.715891,0.264585,-0.534861,-9.670138,-1.538133,-0.526335,0.007189,-0.001808,0.018775,43.714710,-14.233832,-4.858547,4635728904822594600.000000,-0.430671,0.637480,-0.391387,-0.504934,0
-9.741508,-0.374771,-0.045770,0.030281,-0.006194,0.005929,41.357451,5.614175,-19.653919,4635731357937434600.000000,0.070792,0.666828,0.089336,-0.736443,-9.382054,2.166657,-1.472479,0.000000,0.001400,-0.006005,45.750687,5.131413,-5.808259,4635727599304179700.000000,0.362548,0.715887,0.264560,-0.534858,-9.680470,-1.517009,-0.507545,0.007929,0.000000,0.019843,43.764001,-14.325370,-4.802215,4635728995705421800.000000,-0.431182,0.637034,-0.392086,-0.504518,0
-9.737851,-0.361328,-0.101316,0.038933,-0.017730,0.002245,41.432518,5.665473,-19.624667,4635731357937434600.000000,0.070691,0.666808,0.089189,-0.736489,-9.420321,2.226366,-1.496892,-0.001660,0.002136,-0.007145,45.533119,5.222624,-5.853615,4635727666050640900.000000,0.362582,0.715880,0.264543,-0.534852,-9.729759,-1.459264,-0.512711,0.009325,0.000000,0.017830,43.800163,-14.533352,-4.704558,4635728995705421800.000000,-0.431191,0.636985,-0.392140,-0.504530,0
-9.711609,-0.410157,-0.105620,0.042618,-0.018164,-0.004164,41.481405,5.577602,-19.442147,4635731357937434600.000000,0.070560,0.666785,0.089049,-0.736539,-9.400526,2.186775,-1.509924,-0.004345,0.000808,-0.007073,45.446513,5.137172,-5.695248,4635727814052544500.000000,0.362625,0.715867,0.264530,-0.534847,-9.772963,-1.393064,-0.519751,0.008833,0.001232,0.014790,43.708637,-14.587393,-4.663228,4635728995705421800.000000,-0.431205,0.636942,-0.392189,-0.504534,0
-9.687784,-0.453502,-0.012207,0.049506,0.004959,-0.009933,41.335505,5.421325,-19.363360,4635731357937434600.000000,0.070384,0.666833,0.088910,-0.736529,-9.382873,2.132502,-1.497717,-0.000145,-0.002136,-0.007217,45.523547,5.051724,-5.432631,4635727814052544500.000000,0.362659,0.715853,0.264504,-0.534856,-9.757011,-1.388348,-0.538998,0.010557,0.002136,0.013886,43.634429,-14.417471,-4.719545,4635728995705421800.000000,-0.431227,0.636898,-0.392244,-0.504528,0
-9.745751,-0.465709,-0.039625,0.057200,0.031353,-0.011590,41.296993,5.370017,-19.461016,4635731357937434600.000000,0.070171,0.666964,0.088761,-0.736449,-9.414873,2.131675,-1.489303,0.005600,-0.001804,-0.003941,45.631755,5.045933,-5.328359,4635727780688195600.000000,0.362681,0.715852,0.264457,-0.534865,-9.706312,-1.446086,-0.549333,0.014050,0.003984,0.013270,43.678533,-14.270011,-4.817200,4635728995705421800.000000,-0.431256,0.636853,-0.392308,-0.504511,0
-9.850120,-0.474263,-0.204446,0.054795,0.018328,-0.010681,41.431927,5.445073,-19.545878,4635731357937434600.000000,0.069972,0.667054,0.088613,-0.736403,-9.440944,2.156090,-1.485510,0.009541,-0.002728,-0.003204,45.741138,5.163732,-5.486712,4635727706678362100.000000,0.362695,0.715856,0.264397,-0.534880,-9.680470,-1.434861,-0.570450,0.014954,0.003493,0.012202,43.714710,-14.283106,-4.802234,4635728995705421800.000000,-0.431291,0.636806,-0.392371,-0.504491,0
-9.901451,-0.463881,-0.249048,0.057091,0.000109,-0.010841,41.406352,5.530534,-19.541645,4635731357937434600.000000,0.069773,0.667090,0.088454,-0.736409,-9.420324,2.180500,-1.469513,0.009759,-0.006077,-0.002873,45.767678,5.110654,-5.684859,4635727706678362100.000000,0.362711,0.715853,0.264330,-0.534906,-9.687510,-1.396812,-0.557799,0.014338,0.003984,0.010518,43.721749,-14.361519,-4.648262,4635728995705421800.000000,-0.431327,0.636764,-0.392428,-0.504469,0
-9.835514,-0.462055,-0.196568,0.059017,-0.005660,-0.011750,41.262851,5.615983,-19.443990,4635731357937434600.000000,0.069568,0.667108,0.088289,-0.736432,-9.415699,2.178376,-1.448890,0.004677,-0.004014,-0.002800,45.830383,4.939750,-5.585452,4635727706678362100.000000,0.362741,0.715847,0.264279,-0.534919,-9.685640,-1.405720,-0.558240,0.010807,0.004109,0.009613,43.719879,-14.392529,-4.621875,4635728933798420500.000000,-0.431354,0.636731,-0.392476,-0.504450,0
-9.814753,-0.444378,-0.137930,0.054316,-0.008115,-0.012069,41.296944,5.701419,-19.348172,4635731357937434600.000000,0.069376,0.667117,0.088140,-0.736460,-9.431697,2.147668,-1.436683,0.001546,-0.001068,-0.003277,45.812264,4.874996,-5.387256,4635727706678362100.000000,0.362775,0.715843,0.264240,-0.534921,-9.687513,-1.430142,-0.552622,0.009161,0.002588,0.010229,43.714710,-14.441821,-4.775897,4635728888331239400.000000,-0.431628,0.636502,-0.392833,-0.504227,0
-9.809276,-0.399194,-0.153220,0.053567,-0.009993,-0.013566,41.431927,5.761324,-19.275490,4635731357937434600.000000,0.069181,0.667120,0.087996,-0.736493,-9.452320,2.169128,-1.439637,-0.003131,-0.001068,-0.001068,45.749558,5.045892,-5.456317,4635727740016937000.000000,0.362828,0.715834,0.264205,-0.534914,-9.678588,-1.419339,-0.551216,0.008380,0.003369,0.011914,43.623127,-14.569565,-4.907861,4635728888331239400.000000,-0.431646,0.636468,-0.392880,-0.504218,0
-9.785430,-0.380255,-0.112949,0.054476,0.002555,-0.011271,41.455653,5.663099,-19.288265,4635731357937434600.000000,0.068986,0.667163,0.087848,-0.736490,-9.449363,2.130380,-1.480054,-0.004014,-0.000073,0.000922,45.771469,5.110654,-5.617530,4635727814052544500.000000,0.362887,0.715828,0.264169,-0.534901,-9.661219,-1.424986,-0.547451,0.006861,0.003656,0.012818,43.556015,-14.545093,-4.781965,4635728888331239400.000000,-0.431657,0.636435,-0.392928,-0.504213,0
-9.828783,-0.386990,-0.061037,0.053039,0.018367,-0.008066,41.579680,5.481274,-19.373707,4635731357937434600.000000,0.068799,0.667255,0.087699,-0.736442,-9.405161,2.047888,-1.509927,0.000922,0.001141,0.007663,45.838799,4.966292,-5.676443,4635727814052544500.000000,0.362944,0.715839,0.264103,-0.534879,-9.627876,-1.482743,-0.530081,0.004560,0.005054,0.014667,43.605330,-14.386397,-4.663228,4635728888331239400.000000,-0.431656,0.636406,-0.392977,-0.504211,0
-9.828232,-0.355288,-0.071971,0.042789,0.024200,-0.004543,41.480932,5.260841,-19.444572,4635731357937434600.000000,0.068649,0.667363,0.087574,-0.736373,-9.347921,2.006643,-1.490143,0.007330,-0.002394,0.014144,45.759222,4.960427,-5.680232,4635727814052544500.000000,0.363000,0.715860,0.263998,-0.534865,-9.635403,-1.471453,-0.560139,0.005054,0.006409,0.019720,43.634424,-14.319284,-4.775934,4635728888331239400.000000,-0.431644,0.636371,-0.393044,-0.504214,0
-9.756811,-0.287511,-0.126992,0.030179,0.016341,-0.000638,41.273232,5.200903,-19.436009,4635731357937434600.000000,0.068549,0.667445,0.087475,-0.736319,-9.333193,2.008751,-1.449733,0.011418,-0.005341,0.017753,45.578655,5.180578,-5.658340,4635727814052544500.000000,0.363055,0.715884,0.263870,-0.534858,-9.726491,-1.433430,-0.578912,0.006409,0.005793,0.022431,43.678564,-14.410849,-4.914894,4635728888331239400.000000,-0.431630,0.636328,-0.393119,-0.504222,0
-9.693951,-0.260000,-0.085452,0.026114,0.017202,-0.004751,41.309679,5.286355,-19.446394,4635731357937434600.000000,0.068447,0.667528,0.087401,-0.736263,-9.367707,2.103895,-1.412269,0.010018,-0.004014,0.019558,45.547500,5.354829,-5.560676,4635727814052544500.000000,0.363117,0.715911,0.263741,-0.534844,-9.771087,-1.456437,-0.545577,0.002712,0.005341,0.023664,43.721753,-14.569535,-4.843524,4635728888331239400.000000,-0.431852,0.636096,-0.393501,-0.504027,0
-9.629819,-0.291703,-0.079985,0.028681,0.011909,-0.008434,41.480936,5.369983,-19.431816,4635731357937434600.000000,0.068329,0.667593,0.087328,-0.736223,-9.354659,2.233112,-1.419005,0.005893,-0.001068,0.018969,45.474261,5.161209,-5.493331,4635727814052544500.000000,0.363186,0.715938,0.263628,-0.534817,-9.709587,-1.455970,-0.517876,-0.001849,0.003492,0.025184,43.635372,-14.636677,-4.591879,4635728888331239400.000000,-0.431814,0.636058,-0.393562,-0.504060,0
-9.628538,-0.377687,-0.032441,0.027772,0.015367,-0.013727,41.247738,5.432294,-19.363301,4635731357937434600.000000,0.068196,0.667668,0.087274,-0.736174,-9.359290,2.235642,-1.445105,0.000000,-0.000737,0.015028,45.472990,5.019343,-5.553938,4635727814052544500.000000,0.363263,0.715952,0.263541,-0.534789,-9.654179,-1.440474,-0.540879,-0.003821,0.003985,0.029333,43.659767,-14.545131,-4.474952,4635728888331239400.000000,-0.431762,0.636018,-0.393631,-0.504101,0
-9.687754,-0.521816,0.051932,0.027931,0.031023,-0.012499,41.151491,5.432294,-19.460961,4635731357937434600.000000,0.068060,0.667790,0.087220,-0.736082,-9.366018,2.196486,-1.428266,-0.000331,0.000331,0.012155,45.631672,5.157805,-5.749240,4635727814052544500.000000,0.363333,0.715965,0.263465,-0.534761,-9.636807,-1.412309,-0.575623,-0.005505,0.002260,0.034509,43.811413,-14.428692,-4.592775,4635728888331239400.000000,-0.431794,0.635893,-0.393830,-0.504076,0
-9.736584,-0.566464,-0.010926,0.030593,0.032446,-0.009725,41.455599,5.445041,-19.560441,4635731357937434600.000000,0.067924,0.667920,0.087151,-0.735985,-9.414846,2.229320,-1.432053,-0.004050,0.000406,0.009025,45.741138,5.308130,-5.823385,4635727780747737100.000000,0.363407,0.715969,0.263407,-0.534734,-9.631641,-1.483171,-0.585955,-0.008257,0.000000,0.036933,43.824125,-14.392529,-4.781044,4635728888331239400.000000,-0.431712,0.635846,-0.393891,-0.504157,0
-9.779950,-0.513997,-0.064143,0.041067,0.003158,-0.003317,41.554216,5.541410,-19.639357,4635731357937434600.000000,0.067790,0.667964,0.087024,-0.735972,-9.448530,2.242377,-1.463186,-0.011675,-0.000737,0.004347,45.744925,5.196187,-5.658367,4635727706678362100.000000,0.363494,0.715954,0.263379,-0.534710,-9.652763,-1.648908,-0.571874,-0.004069,0.004928,0.038001,43.703470,-14.441812,-4.802222,4635728888331239400.000000,-0.431630,0.635801,-0.393973,-0.504219,0
-9.786704,-0.448040,0.009594,0.043953,-0.000979,0.003090,41.322856,5.665542,-19.556259,4635731357937434600.000000,0.067668,0.668000,0.086869,-0.735970,-9.448530,2.211242,-1.544001,-0.012561,0.000000,0.003461,45.753349,5.051782,-5.617489,4635727706678362100.000000,0.363580,0.715938,0.263357,-0.534683,-9.696422,-1.622688,-0.533382,0.010472,0.011009,0.040301,43.732983,-14.428703,-4.760887,4635728888331239400.000000,-0.431573,0.635738,-0.394104,-0.504246,0
-9.773195,-0.429077,0.117919,0.042794,0.009204,0.008863,41.175052,5.577746,-19.539897,4635731357937434600.000000,0.067563,0.668068,0.086705,-0.735936,-9.448530,2.141785,-1.618947,-0.007626,-0.001656,0.008065,45.753349,4.943623,-5.706722,4635727706678362100.000000,0.363664,0.715931,0.263307,-0.534660,-9.724132,-1.423637,-0.498633,0.013231,0.014050,0.041042,43.842399,-14.434763,-4.711614,4635728888331239400.000000,-0.431518,0.635675,-0.394248,-0.504260,0
-9.818388,-0.435831,0.004419,0.029545,-0.006613,0.011159,41.115050,5.421388,-19.431852,4635731357937434600.000000,0.067508,0.668085,0.086571,-0.735942,-9.452314,2.088320,-1.632008,-0.001218,-0.004347,0.012743,45.726858,4.830347,-5.743826,4635727706678362100.000000,0.363741,0.715933,0.263226,-0.534645,-9.680027,-1.372841,-0.495335,0.010229,0.016186,0.040590,43.788939,-14.564320,-4.668396,4635728888331239400.000000,-0.431453,0.635621,-0.394391,-0.504272,0
-9.839167,-0.409602,-0.118949,0.023906,-0.008959,0.012932,41.224109,5.382665,-19.350550,4635731373915352100.000000,0.067475,0.668095,0.086449,-0.735951,-9.456953,2.081974,-1.616016,0.004860,-0.003130,0.015948,45.641404,4.874907,-5.619675,4635727739966290900.000000,0.363806,0.715950,0.263123,-0.534628,-9.629772,-1.502387,-0.493465,0.018687,0.020785,0.041821,43.677651,-14.636677,-4.719534,4635728888331239400.000000,-0.431400,0.635560,-0.394563,-0.504260,0
-9.844616,-0.376613,-0.194519,0.039248,0.021293,0.006841,41.455542,5.530462,-19.390005,4635731465311617000.000000,0.067370,0.668199,0.086305,-0.735882,-9.448530,2.127871,-1.576472,0.009869,-0.007327,0.019152,45.582443,5.045789,-5.553859,4635727814052544500.000000,0.363868,0.715969,0.262994,-0.534624,-9.640547,-1.511417,-0.495334,0.035652,0.028426,0.042110,43.683692,-14.587413,-4.817188,4635728888331239400.000000,-0.431376,0.635485,-0.394782,-0.504203,0
-9.870341,-0.373487,-0.342314,0.043794,0.028186,0.003363,41.567010,5.590484,-19.570790,4635731465311617000.000000,0.067238,0.668324,0.086160,-0.735797,-9.433394,2.140080,-1.484302,0.013811,-0.011419,0.021032,45.582443,5.137244,-5.745409,4635727814052544500.000000,0.363926,0.715987,0.262845,-0.534634,-9.670131,-1.429700,-0.465316,0.051184,0.035739,0.042274,43.672486,-14.551225,-4.802246,4635728888331239400.000000,-0.431381,0.635399,-0.395046,-0.504101,0
-9.831907,-0.409607,-0.380570,0.043318,-0.001270,0.004908,41.395630,5.517746,-19.637585,4635731449348500500.000000,0.067124,0.668360,0.086004,-0.735794,-9.399700,2.167418,-1.372729,0.013374,-0.009688,0.019964,45.559746,5.078280,-5.845280,4635727814052544500.000000,0.363980,0.716007,0.262703,-0.534640,-9.715654,-1.396815,-0.460577,0.061538,0.040300,0.039647,43.599247,-14.551225,-4.704593,4635728888331239400.000000,-0.431420,0.635300,-0.395344,-0.503958,0
-9.788524,-0.351222,-0.170414,0.039161,-0.002197,0.009497,41.175082,5.543140,-19.531355,4635731357937434600.000000,0.067035,0.668394,0.085848,-0.735789,-9.418608,2.213321,-1.341951,0.005492,-0.006154,0.018565,45.482730,5.078280,-5.756057,4635727814052544500.000000,0.364051,0.716021,0.262588,-0.534629,-9.685218,-1.433861,-0.525342,0.078086,0.045352,0.036770,43.568222,-14.600478,-4.606939,4635728888331239400.000000,-0.431500,0.635187,-0.395679,-0.503769,0
-9.787204,-0.195318,-0.112178,0.028753,0.034498,0.015907,41.138622,5.686835,-19.473120,4635731357937434600.000000,0.066982,0.668539,0.085717,-0.735677,-9.441825,2.210400,-1.367229,0.002392,-0.002212,0.017421,45.450226,5.078280,-5.718910,4635727814052544500.000000,0.364124,0.716038,0.262489,-0.534605,-9.566442,-1.443777,-0.434875,0.094977,0.057918,0.038164,43.617482,-14.636677,-4.565569,4635728888331239400.000000,-0.431602,0.635067,-0.396075,-0.503521,0
-9.850048,-0.189878,-0.200759,0.014118,0.032350,0.022474,41.359169,5.640171,-19.568955,4635731357937434600.000000,0.066990,0.668677,0.085612,-0.735564,-9.399700,2.185125,-1.374792,0.006333,0.000000,0.017497,45.531890,5.078280,-5.756057,4635727814052544500.000000,0.364183,0.716066,0.262386,-0.534578,-9.636214,-1.336799,-0.384023,0.103484,0.067620,0.040753,43.653675,-14.728144,-4.621856,4635728888331239400.000000,-0.431849,0.634834,-0.396696,-0.503114,0
-9.906972,-0.153256,-0.219247,0.001300,0.010565,0.028364,41.419233,5.408720,-19.627205,4635731357937434600.000000,0.067060,0.668746,0.085525,-0.735505,-9.411040,2.222925,-1.406764,0.005899,0.000000,0.014368,45.608904,5.025360,-5.624390,4635727814052544500.000000,0.364235,0.716090,0.262293,-0.534556,-9.743370,-1.290674,-0.513537,0.105131,0.068199,0.039811,43.555188,-14.753165,-4.656193,4635728888331239400.000000,-0.431956,0.634715,-0.397136,-0.502825,0
-9.872166,-0.116638,-0.150113,-0.012784,0.017449,0.025160,41.371841,5.273598,-19.515061,4635731357937434600.000000,0.067156,0.668831,0.085491,-0.735422,-9.432542,2.295856,-1.455598,-0.001985,0.000000,0.009027,45.667896,4.907376,-5.454657,4635727814052544500.000000,0.364299,0.716097,0.262233,-0.534533,-9.669289,-1.390618,-0.607062,0.101600,0.063600,0.034760,43.489804,-14.672880,-4.601772,4635729012097639400.000000,-0.432073,0.634601,-0.397547,-0.502545,0
-9.856807,-0.067343,-0.189013,-0.034462,0.024209,0.021163,41.540921,5.286274,-19.350545,4635731357937434600.000000,0.067298,0.668930,0.085538,-0.735314,-9.443018,2.247894,-1.515767,-0.009055,0.000331,0.004679,45.690579,4.960304,-5.425917,4635727814052544500.000000,0.364374,0.716088,0.262203,-0.534508,-9.515779,-1.452681,-0.552233,0.093183,0.070117,0.036353,43.537184,-14.636677,-4.509293,4635729103079604200.000000,-0.432152,0.634512,-0.397957,-0.502264,0
-9.895244,0.047494,-0.296602,-0.057805,0.011742,0.013569,41.650708,5.357238,-19.388120,4635731357937434600.000000,0.067487,0.668981,0.085673,-0.735234,-9.485152,2.182214,-1.578535,-0.013631,0.001068,0.004197,45.718462,5.104737,-5.523568,4635727814052544500.000000,0.364460,0.716074,0.262187,-0.534476,-9.575128,-1.129153,-0.366873,0.045578,0.066445,0.044445,43.666686,-14.636677,-4.411644,4635729103079604200.000000,-0.432095,0.634488,-0.398281,-0.502087,0
-9.940448,0.113488,-0.308340,-0.080709,-0.017095,0.012225,41.481636,5.359516,-19.544052,4635731357937434600.000000,0.067745,0.668938,0.085875,-0.735227,-9.439803,2.137166,-1.571846,-0.007705,-0.000255,0.006740,45.667896,5.084370,-5.587212,4635727814052544500.000000,0.364535,0.716069,0.262147,-0.534452,-9.893326,-0.687177,-0.317795,-0.007038,0.048286,0.040682,43.739124,-14.636677,-4.321018,4635729103079604200.000000,-0.432133,0.634372,-0.398700,-0.501869,0
-9.959432,0.141518,-0.243691,-0.106025,-0.043874,0.015904,41.346474,5.432294,-19.529579,4635731357937434600.000000,0.068094,0.668806,0.086136,-0.735284,-9.334886,2.130767,-1.515470,-0.002721,-0.004196,0.006816,45.694337,4.858273,-5.609001,4635727814052544500.000000,0.364600,0.716062,0.262091,-0.534444,-9.918253,-1.015327,-0.452468,-0.016278,0.047974,0.027250,43.647704,-14.770292,-4.390284,4635729103079604200.000000,-0.431972,0.634454,-0.398808,-0.501817,0
-9.954462,0.199396,-0.156428,-0.130000,-0.057562,0.021363,41.333808,5.444960,-19.448203,4635731357937434600.000000,0.068532,0.668628,0.086452,-0.735368,-9.352885,2.203123,-1.468664,-0.010704,-0.007400,0.002037,45.779778,4.797763,-5.676443,4635727780842839000.000000,0.364681,0.716031,0.262062,-0.534445,-9.709264,-1.514914,-0.609309,-0.000673,0.054638,0.021363,43.489006,-15.009269,-4.566366,4635729103079604200.000000,-0.431860,0.634527,-0.398953,-0.501706,0
-9.994708,0.303840,-0.075055,-0.156230,-0.064763,0.022472,41.250161,5.530420,-19.473084,4635731373861899300.000000,0.069048,0.668420,0.086844,-0.735462,-9.430791,2.274354,-1.477096,-0.024591,-0.011266,-0.007654,45.861459,4.960249,-5.706656,4635727706678362100.000000,0.364785,0.715960,0.262088,-0.534456,-9.730094,-1.405581,-0.650310,0.010554,0.051852,0.020132,43.463927,-14.972118,-4.645845,4635729103079604200.000000,-0.431786,0.634576,-0.399113,-0.501581,0
-10.053929,0.362604,-0.080025,-0.178777,-0.077620,0.028998,41.187778,5.615861,-19.541787,4635731465311617000.000000,0.069652,0.668169,0.087282,-0.735582,-9.465394,2.267682,-1.499750,-0.036824,-0.019249,-0.015791,45.889390,5.025420,-5.743896,4635727706678362100.000000,0.364917,0.715843,0.262153,-0.534491,-9.788484,-1.217035,-0.627755,0.014048,0.043599,0.014306,43.586368,-14.685836,-4.545570,4635729103079604200.000000,-0.431746,0.634611,-0.399250,-0.501462,0
-10.077432,0.327335,-0.037975,-0.195076,-0.095105,0.030541,41.200442,5.663323,-19.444128,4635731465311617000.000000,0.070312,0.667859,0.087762,-0.735743,-9.448530,2.218860,-1.546566,-0.044377,-0.031812,-0.025403,45.812383,4.858318,-5.646253,4635727706678362100.000000,0.365062,0.715676,0.262245,-0.534569,-9.693784,-1.301758,-0.636635,0.019259,0.038906,0.008836,43.653675,-14.642599,-4.411679,4635729103079604200.000000,-0.431739,0.634636,-0.399375,-0.501336,0
-9.949839,0.236884,0.028047,-0.206673,-0.098455,0.034499,41.296841,5.517746,-19.375470,4635731465311617000.000000,0.071017,0.667537,0.088265,-0.735908,-9.422114,2.151162,-1.545680,-0.049718,-0.042746,-0.033365,45.753349,4.748680,-5.548594,4635727706678362100.000000,0.365218,0.715469,0.262356,-0.534687,-9.666785,-1.372408,-0.731338,0.012591,0.029843,0.004402,43.611501,-14.759123,-4.257789,4635729103079604200.000000,-0.431739,0.634661,-0.399458,-0.501238,0
