Accelerometer-X,Accelerometer-Y,Accelerometer-Z,Gyroscope-X,Gyroscope-Y,Gyroscope-Z,Magnetometer-X,Magnetometer-Y,Magnetometer-Z,Barometer-pressure,Orientation-S,Orientation-X,Orientation-Y,Orientation-Z,Accelerometer-X,Accelerometer-Y,Accelerometer-Z,Gyroscope-X,Gyroscope-Y,Gyroscope-Z,Magnetometer-X,Magnetometer-Y,Magnetometer-Z,Barometer-pressure,Orientation-S,Orientation-X,Orientation-Y,Orientation-Z,Accelerometer-X,Accelerometer-Y,Accelerometer-Z,Gyroscope-X,Gyroscope-Y,Gyroscope-Z,Magnetometer-X,Magnetometer-Y,Magnetometer-Z,Barometer-pressure,Orientation-S,Orientation-X,Orientation-Y,Orientation-Z,jump
-9.711193,-0.116581,1.468246,0.040625,-0.057974,0.033371,43.186029,-15.455487,7.205318,4635731357937434600.000000,0.708166,-0.255292,0.581002,0.309458,-9.602669,-0.535607,-1.277220,-0.020034,-0.000669,-0.022835,43.697836,-15.897189,-1.928714,4635727169807450100.000000,0.347929,-0.682423,0.327700,0.553044,-9.672754,0.562806,-0.596234,-0.011293,0.011188,0.071455,42.785652,12.793991,10.188660,4635728673582874600.000000,0.619350,0.403790,0.595887,-0.313492,0
-9.726351,-0.199088,1.504870,0.050569,-0.057128,0.035543,43.100571,-15.208373,6.970915,4635731357937434600.000000,0.708277,-0.254989,0.580982,0.309489,-9.628600,-0.515752,-1.271090,-0.032584,0.002672,-0.020694,43.667402,-15.843645,-1.831067,4635727169807450100.000000,0.347855,-0.682491,0.327586,0.553074,-9.610435,0.445250,-0.603306,0.041266,0.013886,0.084103,42.713703,12.718827,10.003640,4635728673582874600.000000,0.619333,0.404101,0.595754,-0.313380,0
-9.710788,-0.284527,1.513718,0.070416,-0.055802,0.038747,43.135464,-15.343768,6.906439,4635731357937434600.000000,0.708402,-0.254621,0.580996,0.309480,-9.588894,-0.523398,-1.387125,-0.035116,0.007880,-0.013749,43.815496,-15.758194,-1.989892,4635727263806569500.000000,0.347751,-0.682565,0.327493,0.553103,-9.505072,0.518502,-0.697750,0.098326,0.012199,0.095009,42.727198,12.635302,9.885436,4635728673582874600.000000,0.619237,0.404583,0.595524,-0.313385,0
-9.640089,-0.342212,1.495205,0.100947,-0.054734,0.036282,43.217966,-15.590876,6.918647,4635731357937434600.000000,0.708559,-0.254171,0.581050,0.309389,-9.678993,-0.599726,-1.414538,-0.025898,0.001064,-0.008142,43.975712,-15.597935,-2.270704,4635727277181632500.000000,0.347669,-0.682602,0.327428,0.553148,-9.532696,0.754290,-0.706102,0.107152,0.003036,0.099731,42.812650,12.598685,10.145638,4635728673582874600.000000,0.619155,0.405087,0.595250,-0.313415,0
-9.628691,-0.344758,1.452275,0.130011,-0.058525,0.032819,43.238621,-15.649891,6.921597,4635731357937434600.000000,0.708761,-0.253638,0.581127,0.309221,-9.607184,-0.546249,-1.373312,-0.013346,0.007481,0.004679,43.856552,-15.651455,-2.307199,4635727277181632500.000000,0.347584,-0.682617,0.327437,0.553176,-9.462664,0.826882,-0.688115,0.088995,0.004159,0.096133,42.882683,12.757368,10.186771,4635728673582874600.000000,0.619096,0.405537,0.595009,-0.313407,0
-9.622386,-0.351062,1.468238,0.157778,-0.063865,0.029615,43.183094,-15.714675,6.921597,4635731357937434600.000000,0.709008,-0.253025,0.581220,0.308981,-9.595019,-0.537126,-1.388603,-0.012685,0.011350,0.006409,43.612362,-15.662099,-2.050716,4635727183182513200.000000,0.347492,-0.682639,0.327459,0.553195,-9.524991,0.955391,-0.602657,0.069485,0.013605,0.096808,42.858909,12.865959,10.008784,4635728673582874600.000000,0.619046,0.405951,0.594817,-0.313334,0
-9.637944,-0.335504,1.560392,0.181501,-0.071636,0.030460,43.100591,-15.735343,6.921597,4635731357937434600.000000,0.709212,-0.252490,0.581251,0.308892,-9.701874,-0.579868,-1.370273,-0.007208,0.004270,0.010149,43.655229,-15.523187,-2.099706,4635727169807450100.000000,0.347416,-0.682630,0.327494,0.553232,-9.827588,1.002954,-0.327694,0.045313,0.006915,0.101249,42.775390,12.718837,9.952238,4635728690527198200.000000,0.619060,0.406304,0.594632,-0.313201,0
-9.616082,-0.301833,1.531429,0.200693,-0.080181,0.033406,43.079926,-15.670554,6.847553,4635731520757567500.000000,0.709538,-0.251718,0.581355,0.308576,-9.738461,-0.532535,-1.249705,-0.010148,0.013488,0.016291,43.591093,-15.642295,-2.197353,4635727169807450100.000000,0.347305,-0.682639,0.327553,0.553256,-9.951610,0.783225,-0.133631,0.038677,0.011636,0.106084,42.740670,12.646870,10.063378,4635728780957057000.000000,0.619079,0.406657,0.594460,-0.313031,0
-9.597972,-0.283723,1.402665,0.217231,-0.084677,0.038230,43.200232,-15.585110,6.749903,4635731572685799400.000000,0.709885,-0.250881,0.581472,0.308240,-9.677397,-0.514233,-1.158152,-0.029380,0.029913,0.018025,43.452208,-15.961283,-2.209540,4635727169807450100.000000,0.347113,-0.682711,0.327596,0.553263,-9.896354,0.611637,-0.214568,0.053966,0.022263,0.109230,42.896159,12.648795,10.202197,4635728780957057000.000000,0.619050,0.407072,0.594289,-0.312873,0
-9.641290,-0.253008,1.293197,0.234062,-0.091120,0.042760,43.238621,-15.508915,6.791058,4635731572685799400.000000,0.710259,-0.249974,0.581596,0.307882,-9.582791,-0.534079,-1.168864,-0.036719,0.032979,0.027507,43.647622,-15.854329,-2.209540,4635727169807450100.000000,0.346873,-0.682787,0.327654,0.553284,-9.868090,0.695164,-0.319317,0.072404,0.021531,0.118112,42.946302,12.634053,10.119937,4635728780957057000.000000,0.619003,0.407555,0.594078,-0.312739,0
-9.711574,-0.225642,1.343594,0.254390,-0.099406,0.041365,43.053561,-15.426424,6.811731,4635731572685799400.000000,0.710675,-0.248999,0.581719,0.307479,-9.527869,-0.569177,-1.214646,-0.035515,0.033113,0.033514,43.806295,-15.608641,-2.038598,4635727169807450100.000000,0.346623,-0.682853,0.327732,0.553313,-9.817336,0.731838,-0.344998,0.097365,0.022094,0.128288,42.861512,12.461886,10.137259,4635728780957057000.000000,0.618925,0.408128,0.593818,-0.312639,0
-9.775558,-0.182727,1.441241,0.277369,-0.114426,0.035733,43.049983,-15.340983,6.811731,4635731572685799400.000000,0.711157,-0.247951,0.581821,0.307018,-9.575194,-0.563064,-1.295527,-0.024966,0.025634,0.042594,43.824577,-15.651434,-1.843280,4635727169807450100.000000,0.346392,-0.682874,0.327850,0.553362,-9.775540,0.586622,-0.409948,0.121082,0.018948,0.134755,42.738117,12.242769,10.214416,4635728780957057000.000000,0.618822,0.408774,0.593509,-0.312588,0
-9.808842,-0.152399,1.474141,0.301679,-0.125041,0.022037,43.262016,-15.385057,6.811731,4635731572685799400.000000,0.711706,-0.246849,0.581908,0.306469,-9.582811,-0.540175,-1.402335,-0.016021,0.032980,0.054076,43.760484,-15.811655,-1.989824,4635727169807450100.000000,0.346150,-0.682884,0.328032,0.553394,-9.832729,0.544151,-0.317392,0.156389,0.010740,0.136328,42.774659,12.184244,10.116759,4635728780957057000.000000,0.618681,0.409503,0.593129,-0.312633,0
-9.768490,-0.146489,1.467843,0.319771,-0.122252,-0.000462,43.194538,-15.461259,6.885752,4635731572685799400.000000,0.712294,-0.245752,0.582002,0.305805,-9.700304,-0.569169,-1.448102,-0.005608,0.029508,0.061151,43.751335,-15.758234,-2.270568,4635727169807450100.000000,0.345926,-0.682860,0.328252,0.553433,-9.863582,0.683511,-0.315470,0.182931,0.004500,0.140432,43.006577,12.269687,10.017188,4635728764051389400.000000,0.618514,0.410303,0.592691,-0.312744,0
-9.744466,-0.100242,1.474138,0.333361,-0.111798,-0.025832,42.977435,-15.543732,6.992634,4635731572685799400.000000,0.712785,-0.244912,0.582023,0.305295,-9.759822,-0.552384,-1.452681,-0.002403,0.030709,0.065691,43.751335,-15.747550,-2.221741,4635727169807450100.000000,0.345699,-0.682828,0.328495,0.553470,-9.869347,0.882777,-0.322481,0.189290,0.000000,0.143973,43.188547,12.330154,9.926541,4635728673582874600.000000,0.618352,0.411121,0.592227,-0.312869,0
-9.723012,-0.057707,1.486344,0.342131,-0.093576,-0.045801,43.041456,-15.564439,6.945271,4635731491340160000.000000,0.713375,-0.243906,0.582178,0.304427,-9.819328,-0.538652,-1.431319,0.005340,0.028172,0.069964,43.826101,-15.897086,-2.038642,4635727169807450100.000000,0.345487,-0.682773,0.328765,0.553510,-9.894443,0.897587,-0.428494,0.184958,0.001008,0.147632,43.116547,12.268440,9.936827,4635728673582874600.000000,0.618199,0.411938,0.591765,-0.312973,0
-9.726343,-0.085827,1.507802,0.359321,-0.064377,-0.057487,43.264912,-15.564439,6.764359,4635731465311617000.000000,0.713931,-0.242902,0.582433,0.303437,-9.698804,-0.505087,-1.492344,0.012950,0.035248,0.084515,43.836784,-15.982532,-1.928784,4635727169807450100.000000,0.345253,-0.682703,0.329103,0.553541,-9.853986,0.903188,-0.504342,0.183675,0.006577,0.142796,43.105032,12.279955,9.936827,4635728673582874600.000000,0.618027,0.412746,0.591326,-0.313076,0
-9.840284,-0.088411,1.587707,0.387707,-0.047710,-0.060626,43.324074,-15.444208,6.788060,4635731465311617000.000000,0.714477,-0.241842,0.582769,0.302350,-9.733868,-0.617978,-1.533549,0.041920,0.020431,0.083717,43.687273,-15.852865,-2.087434,4635727169807450100.000000,0.345124,-0.682558,0.329485,0.553574,-9.810221,1.104424,-0.511485,0.168445,0.006470,0.140996,43.029871,12.341684,9.921474,4635728673582874600.000000,0.617879,0.413510,0.590910,-0.313147,0
-9.940527,-0.085452,1.592881,0.417064,-0.057000,-0.056838,43.324074,-15.341006,6.950454,4635731465311617000.000000,0.715068,-0.240673,0.583117,0.301213,-9.666761,-0.506647,-1.324569,0.061814,0.032174,0.093593,43.527067,-15.833002,-2.111881,4635727169807450100.000000,0.345012,-0.682397,0.329957,0.553560,-9.830267,1.112262,-0.443304,0.147022,0.002411,0.139149,42.982796,12.305226,9.823816,4635728673582874600.000000,0.617774,0.414208,0.590514,-0.313176,0
-9.951993,-0.159438,1.577714,0.442667,-0.065740,-0.053116,43.324074,-15.255554,6.994842,4635731465311617000.000000,0.715699,-0.239406,0.583473,0.300032,-9.773528,-0.520334,-1.443495,0.053810,0.036984,0.084786,43.517866,-16.121342,-2.026446,4635727169807450100.000000,0.344891,-0.682271,0.330394,0.553530,-9.736269,1.006058,-0.423611,0.123619,0.003405,0.126561,43.129970,12.109744,9.756848,4635728673582874600.000000,0.617691,0.414816,0.590173,-0.313179,0
-9.875057,-0.257088,1.510025,0.459141,-0.069721,-0.052339,43.314827,-15.234839,6.846889,4635731465311617000.000000,0.716352,-0.238083,0.583836,0.298815,-9.694234,-0.386102,-1.368785,0.046733,0.046729,0.090790,43.594139,-16.237350,-2.088969,4635727169807450100.000000,0.344723,-0.682169,0.330844,0.553492,-9.789309,1.117842,-0.240125,0.070330,-0.027391,0.109974,43.202000,12.121250,9.852590,4635728690449886200.000000,0.617753,0.415206,0.589851,-0.313147,0
-9.805141,-0.299264,1.507797,0.474644,-0.064025,-0.056385,43.256385,-15.105385,7.012199,4635731465311617000.000000,0.717009,-0.236730,0.584230,0.297542,-9.585475,-0.651211,-1.713896,0.039465,0.038831,0.084472,43.594288,-16.036952,-2.110228,4635727169807450100.000000,0.344559,-0.682068,0.331249,0.553477,-9.596552,1.307023,-0.361365,0.062719,-0.017912,0.099276,43.203917,12.159980,9.941875,4635728780957057000.000000,0.617791,0.415562,0.589582,-0.313107,0
-9.762597,-0.351419,1.541458,0.484194,-0.073280,-0.060107,43.173896,-14.999209,7.228242,4635731465311617000.000000,0.717700,-0.235346,0.584602,0.296243,-10.076388,-0.611525,-1.527719,0.085475,0.001427,0.078706,43.518878,-15.856386,-1.943286,4635727169807450100.000000,0.344590,-0.681822,0.331690,0.553496,-10.018941,1.588039,-0.063664,0.027039,-0.036839,0.103002,43.227620,12.036500,10.047899,4635728780957057000.000000,0.617941,0.415810,0.589304,-0.313003,0
-9.753716,-0.329244,1.439406,0.483581,-0.086613,-0.061693,43.153172,-15.043195,7.053744,4635731465311617000.000000,0.718421,-0.233949,0.584930,0.294952,-9.608616,0.002467,-1.394467,0.085553,0.052893,0.114856,43.580946,-15.906764,-1.832263,4635727169807450100.000000,0.344467,-0.681644,0.332308,0.553422,-10.001847,0.545221,-0.121428,0.041247,-0.011533,0.092488,43.284330,12.059494,10.104608,4635728780957057000.000000,0.617991,0.416102,0.589091,-0.312917,0
-9.799940,-0.178719,1.524035,0.482803,-0.087298,-0.065997,43.088456,-14.999221,6.982635,4635731465311617000.000000,0.719145,-0.232564,0.585248,0.293649,-9.311052,-0.418610,-1.800880,0.079774,0.036139,0.102263,43.666390,-16.129175,-1.976945,4635727169807450100.000000,0.344379,-0.681453,0.332852,0.553384,-9.399753,0.498034,-0.663963,0.103189,0.041634,0.085557,43.190504,12.182988,10.008866,4635728797809160200.000000,0.617794,0.416605,0.588947,-0.312909,0
-9.787019,0.032114,1.775164,0.476332,-0.086520,-0.069720,43.012252,-14.978484,7.204495,4635731465311617000.000000,0.719862,-0.231207,0.585554,0.292348,-9.793824,-1.027235,-1.699179,0.121445,-0.038011,0.084589,43.688623,-16.310087,-2.086291,4635727169807450100.000000,0.344554,-0.681055,0.333336,0.553475,-9.974401,2.080050,-0.398539,0.065242,0.009970,0.090018,43.128757,12.146609,9.906192,4635728888331239400.000000,0.617746,0.416980,0.588762,-0.312852,0
-9.768886,0.224109,1.769367,0.458890,-0.074387,-0.074542,43.114644,-15.107897,7.136955,4635731465311617000.000000,0.720536,-0.229929,0.585869,0.291063,-10.086503,-0.152125,-1.145629,0.136475,-0.012260,0.093310,43.542798,-16.259756,-1.941638,4635727169807450100.000000,0.344714,-0.680682,0.333917,0.553483,-10.146277,1.565688,-0.270954,0.005675,0.001361,0.080614,43.140245,11.951048,9.726190,4635728888331239400.000000,0.617810,0.417168,0.588650,-0.312688,0
-9.793654,0.407220,1.607001,0.441021,-0.060792,-0.074221,43.217876,-15.019974,7.009307,4635731465311617000.000000,0.721157,-0.228719,0.586201,0.289808,-9.635344,0.442455,-1.177925,0.100920,0.032306,0.116266,43.582600,-16.248055,-1.748008,4635727169807450100.000000,0.344659,-0.680431,0.334544,0.553448,-9.587609,0.163224,-0.459084,0.057930,0.039060,0.081640,43.215401,11.964449,9.659164,4635728888331239400.000000,0.617692,0.417541,0.588565,-0.312583,0
-9.737838,0.553356,1.562548,0.426358,-0.068195,-0.072085,43.238621,-14.664194,7.185998,4635731384004633600.000000,0.721776,-0.227538,0.586494,0.288601,-9.126536,-0.572206,-1.406989,0.105203,0.007117,0.120554,43.666369,-16.321786,-1.626445,4635727077159532500.000000,0.344640,-0.680109,0.335157,0.553484,-9.375743,0.905277,-0.693909,0.070361,0.044719,0.070793,43.275973,12.023107,9.772119,4635728888331239400.000000,0.617523,0.417927,0.588497,-0.312528,0
-9.587695,0.604441,1.627247,0.414899,-0.081271,-0.073183,43.303321,-14.563432,7.399081,4635731357937434600.000000,0.722415,-0.226379,0.586731,0.287430,-9.279112,-0.944802,-1.145515,0.124328,-0.019064,0.095814,43.614882,-16.407245,-1.695651,4635727062433267700.000000,0.344769,-0.679734,0.335707,0.553532,-9.542092,2.237595,-0.645350,0.000550,0.023858,0.060550,43.200815,11.939569,9.936827,4635728888331239400.000000,0.617514,0.418080,0.588484,-0.312364,0
-9.435281,0.554916,1.675727,0.395322,-0.084384,-0.072893,43.259376,-14.748279,7.381819,4635731357937434600.000000,0.723041,-0.225273,0.586933,0.286310,-9.777708,-0.313003,-1.119733,0.084714,-0.008606,0.072506,43.604843,-16.345225,-1.709036,4635727062433267700.000000,0.344825,-0.679471,0.336114,0.553572,-9.713267,1.727906,-0.429902,-0.021100,0.009047,0.058246,43.142148,11.889282,9.921523,4635728888331239400.000000,0.617576,0.418153,0.588466,-0.312179,0
-9.325770,0.472437,1.666139,0.373702,-0.081958,-0.078294,43.109244,-14.687444,7.287134,4635731357937434600.000000,0.723645,-0.224248,0.587111,0.285223,-9.935628,0.003108,-1.481159,0.032820,0.002806,0.071273,43.531123,-16.259784,-1.803822,4635727062433267700.000000,0.344721,-0.679311,0.336415,0.553651,-9.673559,0.627873,-0.407109,0.043755,0.013590,0.055711,43.250535,11.952960,9.837255,4635728888331239400.000000,0.617510,0.418393,0.588379,-0.312152,0
-9.265078,0.386988,1.577039,0.350722,-0.081179,-0.084154,43.197090,-14.519512,7.328091,4635731357937434600.000000,0.724230,-0.223307,0.587257,0.284173,-9.812108,-0.289894,-1.422272,0.021949,0.005194,0.087233,43.371933,-16.248055,-1.903165,4635726969788885000.000000,0.344545,-0.679150,0.336739,0.553761,-9.557213,0.605264,-0.580670,0.109995,0.024169,0.055608,43.421279,11.961342,9.844177,4635728888331239400.000000,0.617302,0.418816,0.588234,-0.312270,0
-9.308650,0.301544,1.513381,0.328842,-0.098157,-0.087069,43.423416,-14.542659,7.348857,4635731357937434600.000000,0.724838,-0.222418,0.587322,0.283183,-9.663972,-0.520825,-1.235364,0.025049,0.011791,0.090646,43.495916,-16.321767,-1.821788,4635727140306924500.000000,0.344362,-0.678994,0.337089,0.553853,-9.477506,1.073948,-0.689349,0.127110,0.026601,0.050036,43.251134,11.937667,9.921534,4635728888331239400.000000,0.617051,0.419272,0.588082,-0.312439,0
-9.437329,0.234573,1.538468,0.309097,-0.118971,-0.078695,43.547446,-14.628108,7.348857,4635731357937434600.000000,0.725467,-0.221544,0.587307,0.282286,-9.496411,-0.517739,-1.387565,0.032086,0.009132,0.088028,43.666831,-16.480944,-1.638195,4635727169807450100.000000,0.344207,-0.678825,0.337445,0.553940,-9.442053,1.258110,-0.706866,0.129951,0.019626,0.048801,43.066972,11.867506,9.810516,4635728888331239400.000000,0.616810,0.419723,0.587911,-0.312631,0
-9.482184,0.192015,1.651974,0.284211,-0.119054,-0.072605,43.568222,-14.584208,7.274941,4635731357937434600.000000,0.726065,-0.220730,0.587268,0.281467,-9.588792,-0.544305,-1.616157,0.052464,-0.006199,0.086667,43.542856,-16.504410,-1.527125,4635727169807450100.000000,0.344135,-0.678593,0.337821,0.554039,-9.484398,1.161967,-0.623332,0.152450,0.015354,0.046999,43.151663,11.889257,9.638877,4635728888331239400.000000,0.616538,0.420222,0.587703,-0.312890,0
-9.503631,0.229308,1.666143,0.255890,-0.094860,-0.062673,43.623660,-14.563432,7.251197,4635731357937434600.000000,0.726565,-0.220006,0.587277,0.280724,-9.733590,-0.433500,-1.584818,0.069365,-0.012231,0.091127,43.308789,-16.367516,-1.608490,4635727169807450100.000000,0.344108,-0.678317,0.338241,0.554138,-9.544281,0.968958,-0.567266,0.197545,0.010581,0.047166,43.263794,11.964408,9.561458,4635728871543555100.000000,0.616198,0.420830,0.587423,-0.313268,0
-9.537285,0.281106,1.604770,0.226242,-0.077078,-0.050115,43.641468,-14.434080,7.241958,4635731357937434600.000000,0.726978,-0.219360,0.587317,0.280076,-9.732655,-0.246571,-1.469455,0.066038,-0.010054,0.094625,43.264716,-16.198292,-1.792065,4635727169807450100.000000,0.344061,-0.678045,0.338666,0.554240,-9.532075,0.935393,-0.603886,0.236295,0.003271,0.048234,43.190554,11.998348,9.674370,4635728780957057000.000000,0.615808,0.421531,0.587072,-0.313750,0
-9.601612,0.256029,1.660860,0.200380,-0.078552,-0.041341,43.521382,-14.327868,7.312888,4635731357937434600.000000,0.727361,-0.218770,0.587329,0.279519,-9.708240,-0.303974,-1.357911,0.057786,-0.010535,0.089537,43.410458,-16.311700,-1.892613,4635727169807450100.000000,0.344003,-0.677791,0.339057,0.554349,-9.529409,0.997587,-0.640511,0.260628,-0.002303,0.048467,43.130666,11.792352,9.869704,4635728780957057000.000000,0.615389,0.422286,0.586673,-0.314301,0
-9.684081,0.225677,1.684622,0.179857,-0.075263,-0.033057,43.482769,-14.307076,7.336649,4635731520403050500.000000,0.727706,-0.218226,0.587335,0.279033,-9.662771,-0.401623,-1.321757,0.054769,-0.020815,0.077601,43.444469,-16.480909,-1.820125,4635727169807450100.000000,0.343978,-0.677534,0.339392,0.554473,-9.582047,1.147109,-0.656150,0.257624,-0.004206,0.044528,43.116171,11.817144,10.034486,4635728780957057000.000000,0.614974,0.423021,0.586280,-0.314858,0
-9.686413,0.238206,1.656913,0.160629,-0.068045,-0.022895,43.538187,-14.187007,7.253524,4635731572685799400.000000,0.728004,-0.217723,0.587349,0.278619,-9.582356,-0.246595,-1.265757,0.052633,-0.016904,0.072153,43.372447,-16.430709,-1.648767,4635727169807450100.000000,0.343954,-0.677296,0.339713,0.554582,-9.641943,1.340908,-0.571842,0.239067,-0.009780,0.041559,42.967019,11.937707,9.990650,4635728780957057000.000000,0.614601,0.423693,0.585902,-0.315387,0
-9.662000,0.281090,1.657235,0.144636,-0.052488,-0.017062,43.491366,-14.019085,7.226783,4635731572685799400.000000,0.728242,-0.217273,0.587397,0.278247,-9.528490,-0.219733,-1.331063,0.049575,-0.021550,0.066960,43.213296,-16.492658,-1.623585,4635727169807450100.000000,0.343940,-0.677059,0.340005,0.554700,-9.637359,1.321077,-0.552011,0.224780,-0.010848,0.034915,42.920821,11.829384,9.694633,4635728780957057000.000000,0.614246,0.424311,0.585551,-0.315900,0
-9.619116,0.292978,1.632502,0.129683,-0.044834,-0.012790,43.535208,-14.106767,7.226783,4635731572685799400.000000,0.728442,-0.216866,0.587455,0.277918,-9.627047,-0.388170,-1.342814,0.044529,-0.027958,0.053329,43.274012,-16.651791,-1.781494,4635727169807450100.000000,0.343952,-0.676834,0.340238,0.554825,-9.672075,1.263853,-0.483353,0.214265,-0.011583,0.032279,43.154660,11.646995,9.401965,4635728780957057000.000000,0.613907,0.424893,0.585216,-0.316396,0
-9.570290,0.292978,1.623585,0.114730,-0.048642,-0.011750,43.500610,-14.268421,7.309888,4635731572685799400.000000,0.728637,-0.216498,0.587484,0.277632,-9.728065,-0.309781,-1.248070,0.035504,-0.026077,0.044823,43.350613,-16.675312,-1.722479,4635727169807450100.000000,0.343956,-0.676638,0.340429,0.554945,-9.692678,1.217712,-0.398255,0.204320,-0.011348,0.027105,43.360695,11.755292,9.576660,4635728780957057000.000000,0.613578,0.425437,0.584904,-0.316880,0
-9.558396,0.265277,1.642052,0.106240,-0.048587,-0.010942,43.418136,-14.251675,7.336649,4635731572685799400.000000,0.728822,-0.216154,0.587505,0.277369,-9.657291,-0.145598,-1.243475,0.028654,-0.021951,0.044715,43.223843,-16.675312,-1.709036,4635727169807450100.000000,0.343935,-0.676461,0.340610,0.555063,-9.696488,1.148621,-0.448990,0.190736,-0.017287,0.022666,43.347363,11.964381,9.726270,4635728780957057000.000000,0.613281,0.425928,0.584602,-0.317352,0
-9.539930,0.284056,1.657233,0.098215,-0.049683,-0.009874,43.397320,-14.169197,7.327416,4635731572685799400.000000,0.729002,-0.215830,0.587515,0.277129,-9.549116,-0.269436,-1.287259,0.025930,-0.025047,0.040257,43.065165,-16.748994,-1.877450,4635727169807450100.000000,0.343920,-0.676287,0.340768,0.555187,-9.715188,1.226457,-0.500504,0.164902,-0.031742,0.016991,43.288583,12.011729,9.613361,4635728780957057000.000000,0.613058,0.426319,0.584307,-0.317802,0
-9.524749,0.329908,1.706369,0.094518,-0.053434,-0.007998,43.397320,-14.213008,7.185955,4635731572685799400.000000,0.729185,-0.215508,0.587510,0.276908,-9.586604,-0.471892,-1.283460,0.032082,-0.027477,0.034917,43.327464,-16.897581,-2.062221,4635727077236835300.000000,0.343939,-0.676105,0.340921,0.555302,-9.712497,1.240236,-0.490989,0.129953,-0.044488,0.010348,43.372113,11.877804,9.433306,4635728764218899500.000000,0.612918,0.426587,0.584038,-0.318207,0
-9.540236,0.341807,1.730475,0.096420,-0.052860,-0.009092,43.332702,-14.233832,7.067483,4635731572685799400.000000,0.729369,-0.215184,0.587508,0.276678,-9.658157,-0.426843,-1.239686,0.034954,-0.024089,0.030498,43.583361,-16.845800,-2.003283,4635727062433267700.000000,0.343971,-0.675934,0.341073,0.555397,-9.753716,1.118951,-0.422340,0.118426,-0.059483,0.008712,43.420620,11.902542,9.350871,4635728673582874600.000000,0.612832,0.426802,0.583748,-0.318614,0
-9.573884,0.286417,1.733451,0.094778,-0.053147,-0.007998,43.376490,-14.169210,7.034440,4635731572685799400.000000,0.729551,-0.214862,0.587505,0.276455,-9.584082,-0.299302,-1.253993,0.037090,-0.021658,0.030829,43.332939,-16.697213,-1.916148,4635727062433267700.000000,0.344005,-0.675765,0.341235,0.555483,-9.742298,0.960579,-0.339115,0.133076,-0.055182,0.009780,43.348488,12.061239,9.366095,4635728673582874600.000000,0.612712,0.427062,0.583448,-0.319047,0
-9.582811,0.213177,1.770375,0.099651,-0.055831,-0.005862,43.581940,-14.083763,7.179160,4635731572685799400.000000,0.729741,-0.214517,0.587501,0.276230,-9.560081,-0.385997,-1.352067,0.035544,-0.025967,0.030056,43.066476,-16.601654,-1.904355,4635727062433267700.000000,0.344042,-0.675589,0.341385,0.555582,-9.695692,0.983733,-0.407762,0.152148,-0.042157,0.011014,43.337072,12.181877,9.463752,4635728673582874600.000000,0.612527,0.427391,0.583154,-0.319500,0
-9.592042,0.139935,1.800742,0.105512,-0.059843,-0.001302,43.641468,-14.192157,7.300628,4635731572685799400.000000,0.729941,-0.214138,0.587496,0.276007,-9.663611,-0.487016,-1.293579,0.038011,-0.034069,0.024384,43.178397,-16.589861,-1.820183,4635727062433267700.000000,0.344111,-0.675398,0.341513,0.555692,-9.778130,1.220740,-0.508110,0.138972,-0.044529,0.012319,43.250526,12.073616,9.517667,4635728673582874600.000000,0.612372,0.427685,0.582868,-0.319921,0
-9.613480,0.048229,1.806696,0.117315,-0.066538,0.000000,43.512237,-14.233832,7.185982,4635731491494785000.000000,0.730165,-0.213713,0.587485,0.275766,-9.648907,-0.353206,-1.239692,0.037533,-0.027884,0.027182,43.265129,-16.589861,-1.806696,4635727062433267700.000000,0.344163,-0.675218,0.341657,0.555790,-9.764819,1.213134,-0.553136,0.114432,-0.041062,0.008948,43.103237,11.864493,9.334556,4635728690308146200.000000,0.612249,0.427914,0.582631,-0.320286,0
-9.656352,-0.049421,1.769778,0.135237,-0.080475,0.000000,43.470562,-14.040013,7.132101,4635731465311617000.000000,0.730440,-0.213217,0.587452,0.275492,-9.549158,-0.319079,-1.306596,0.037385,-0.030386,0.027772,43.285767,-16.810807,-1.806696,4635727062433267700.000000,0.344217,-0.675032,0.341799,0.555896,-9.686975,1.192825,-0.575649,0.098619,-0.030547,0.004343,43.042505,11.841785,9.193276,4635728780957057000.000000,0.612121,0.428104,0.582449,-0.320605,0
-9.695951,-0.119390,1.767095,0.154463,-0.098112,-0.000808,43.535167,-13.977477,7.267561,4635731465311617000.000000,0.730775,-0.212644,0.587387,0.275185,-9.576067,-0.422605,-1.297357,0.028179,-0.031897,0.023169,43.287453,-16.909343,-1.890866,4635727062433267700.000000,0.344257,-0.674862,0.341904,0.556013,-9.650356,1.317592,-0.574555,0.066745,-0.021600,-0.001567,43.129041,12.147745,9.309120,4635728780957057000.000000,0.612021,0.428211,0.582343,-0.320847,0
-9.714114,-0.189650,1.816214,0.176111,-0.113847,-0.001876,43.436051,-14.106670,7.321463,4635731465311617000.000000,0.731169,-0.211989,0.587297,0.274835,-9.709036,-0.418429,-1.272947,0.012898,-0.017318,0.017829,43.224339,-16.919460,-1.820205,4635727062433267700.000000,0.344246,-0.674755,0.341980,0.556103,-9.628940,1.375634,-0.487993,0.039425,-0.016425,-0.004106,43.251630,12.329174,9.546189,4635728780957057000.000000,0.611953,0.428249,0.582292,-0.321019,0
-9.717093,-0.225983,1.831110,0.196928,-0.127187,-0.008596,43.388091,-14.148380,7.029120,4635731465311617000.000000,0.731620,-0.211272,0.587185,0.274425,-9.760859,-0.446610,-1.311648,0.001477,-0.014954,0.013409,43.203687,-16.782707,-1.638382,4635727062433267700.000000,0.344210,-0.674676,0.342020,0.556197,-9.690015,1.326389,-0.346379,0.034950,-0.013319,-0.003204,43.178339,12.157020,9.517557,4635728797746755600.000000,0.611886,0.428281,0.582253,-0.321173,0
-9.689412,-0.305756,1.803430,0.218027,-0.141617,-0.013911,43.449699,-14.148380,6.786174,4635731465311617000.000000,0.732131,-0.210488,0.587047,0.273960,-9.692284,-0.493753,-1.381518,-0.000920,-0.011272,0.012818,43.202000,-16.834403,-1.695536,4635727062433267700.000000,0.344163,-0.674609,0.342058,0.556282,-9.731963,1.133734,-0.318547,0.050207,-0.014519,-0.002703,43.128000,11.975863,9.363078,4635728888331239400.000000,0.611796,0.428352,0.582190,-0.321364,0
-9.671243,-0.320373,1.803716,0.236969,-0.143653,-0.019798,43.655109,-14.148380,6.886124,4635731465311617000.000000,0.732669,-0.209657,0.586919,0.273432,-9.690989,-0.468948,-1.412681,-0.003829,-0.000557,0.012818,43.212518,-16.909327,-1.793185,4635727062433267700.000000,0.344093,-0.674572,0.342105,0.556342,-9.680470,0.920128,-0.413540,0.083552,-0.006242,0.000668,43.189793,12.134556,9.361170,4635728888331239400.000000,0.611631,0.428527,0.582097,-0.321614,0
-9.668263,-0.262033,1.769789,0.247860,-0.139095,-0.027822,43.779297,-14.019208,7.072204,4635731465311617000.000000,0.733214,-0.208818,0.586810,0.272848,-9.724229,-0.474398,-1.468644,-0.008874,0.002909,0.015579,43.214207,-16.919460,-1.806696,4635727062433267700.000000,0.343997,-0.674546,0.342153,0.556404,-9.680470,0.880840,-0.540940,0.112055,-0.005841,0.005274,43.176441,12.243645,9.322261,4635728888331239400.000000,0.611420,0.428786,0.581959,-0.321920,0
-9.649813,-0.216473,1.776316,0.253983,-0.136984,-0.031523,43.735586,-13.857550,7.043115,4635731465311617000.000000,0.733762,-0.207971,0.586711,0.272236,-9.666192,-0.507643,-1.561241,0.004192,-0.000477,0.019704,43.130061,-16.856352,-1.554261,4635727062433267700.000000,0.343933,-0.674487,0.342238,0.556463,-9.686193,0.891140,-0.563448,0.139093,-0.008045,0.011683,43.115784,12.084948,9.123891,4635728888331239400.000000,0.611174,0.429126,0.581767,-0.322279,0
-9.606945,-0.170622,1.791507,0.260131,-0.126228,-0.036081,43.650131,-13.883362,6.945450,4635731465311617000.000000,0.734293,-0.207129,0.586646,0.271584,-9.635022,-0.512711,-1.595789,0.032176,-0.010271,0.028577,43.190167,-16.772597,-1.597854,4635726969927072800.000000,0.343941,-0.674352,0.342399,0.556522,-9.713279,0.896862,-0.573748,0.166430,-0.005341,0.017925,43.189029,11.989191,8.915597,4635728888331239400.000000,0.610881,0.429555,0.581535,-0.322684,0
-9.567343,-0.094120,1.739138,0.265732,-0.112343,-0.039000,43.573909,-13.904232,6.921597,4635731465311617000.000000,0.734797,-0.206292,0.586627,0.270898,-9.631641,-0.481160,-1.567619,0.055642,-0.010829,0.038190,43.412337,-16.687146,-1.947917,4635727140067906600.000000,0.343994,-0.674169,0.342641,0.556563,-9.690772,0.956351,-0.575654,0.181486,-0.005007,0.021931,43.252737,12.195196,9.113936,4635728888331239400.000000,0.610565,0.430031,0.581275,-0.323115,0
-9.539952,-0.008687,1.601351,0.271879,-0.108951,-0.041135,43.491456,-13.839675,6.995378,4635731465311617000.000000,0.735299,-0.205445,0.586623,0.270187,-9.610607,-0.444538,-1.509963,0.069791,-0.021724,0.039521,43.519767,-16.738415,-2.002014,4635727169807450100.000000,0.344098,-0.673938,0.342903,0.556616,-9.676659,1.152803,-0.587861,0.168506,-0.003204,0.018226,43.264944,12.157078,9.366118,4635728888331239400.000000,0.610262,0.430468,0.581044,-0.323520,0
-9.570869,0.113648,1.571769,0.283936,-0.112179,-0.041658,43.470562,-13.883333,7.019257,4635731465311617000.000000,0.735819,-0.204559,0.586621,0.269447,-9.607226,-0.418435,-1.364808,0.068806,-0.024419,0.041362,43.384381,-16.685463,-1.833765,4635727169807450100.000000,0.344200,-0.673699,0.343165,0.556681,-9.646528,1.406116,-0.598163,0.119444,-0.000537,0.010817,43.286679,11.939614,9.404700,4635728888331239400.000000,0.610031,0.430765,0.580899,-0.323821,0
-9.619699,0.211042,1.676195,0.301049,-0.106768,-0.040851,43.535116,-13.904232,7.093032,4635731465311617000.000000,0.736338,-0.203624,0.586655,0.268662,-9.565164,-0.394021,-1.332299,0.068361,-0.021807,0.041658,43.287089,-16.601705,-1.806696,4635727169807450100.000000,0.344295,-0.673467,0.343430,0.556740,-9.619777,1.569385,-0.582927,0.034804,0.014719,-0.001500,43.344679,11.915892,9.106818,4635728888331239400.000000,0.609898,0.430837,0.580929,-0.323921,0
-9.594758,0.250382,1.699816,0.318399,-0.107099,-0.040590,43.675884,-13.775142,7.107695,4635731465311617000.000000,0.736871,-0.202635,0.586706,0.267835,-9.579427,-0.443214,-1.246484,0.064681,-0.025043,0.040738,43.212152,-16.663468,-1.806696,4635727169807450100.000000,0.344387,-0.673233,0.343679,0.556811,-9.749907,1.660988,-0.477650,-0.055390,0.021393,-0.011113,43.299316,12.144804,8.777122,4635728888331239400.000000,0.609898,0.430666,0.581116,-0.323815,0
-9.536704,0.311684,1.613836,0.329036,-0.105462,-0.043817,43.714710,-13.862429,7.113930,4635731546422167600.000000,0.737411,-0.201622,0.586771,0.266971,-9.603840,-0.430646,-1.106778,0.062249,-0.024716,0.044270,43.138917,-16.896110,-1.722583,4635727169807450100.000000,0.344464,-0.672999,0.343933,0.556891,-9.727397,1.570610,-0.331167,-0.128903,0.036611,-0.020393,43.180610,12.257016,8.838050,4635728888331239400.000000,0.609980,0.430306,0.581456,-0.323527,0
-9.512553,0.375709,1.660737,0.330319,-0.084506,-0.047283,43.714710,-13.904232,7.043142,4635731572685799400.000000,0.737903,-0.200637,0.586897,0.266074,-9.628254,-0.395717,-1.023375,0.049073,-0.019968,0.044862,43.275951,-17.068349,-1.782634,4635727169807450100.000000,0.344495,-0.672793,0.344165,0.556977,-9.760833,1.406550,-0.184705,-0.159278,0.053214,-0.026537,43.276350,12.195196,9.196286,4635728888331239400.000000,0.610067,0.429876,0.581891,-0.323152,0
-9.555665,0.399857,1.767598,0.322797,-0.073941,-0.054520,43.779249,-13.775158,7.010037,4635731572685799400.000000,0.738369,-0.199705,0.587041,0.265164,-9.789350,-0.474748,-0.992187,0.035039,-0.027506,0.042102,43.436340,-17.016768,-1.794488,4635727169807450100.000000,0.344504,-0.672594,0.344346,0.557100,-10.009282,1.294127,-0.053425,-0.179810,0.042088,-0.024470,43.335167,12.195196,9.335647,4635728854854925300.000000,0.610221,0.429384,0.582321,-0.322741,0
-9.598261,0.412063,1.840583,0.305118,-0.081507,-0.057418,43.790945,-13.613483,6.859547,4635731572685799400.000000,0.738841,-0.198825,0.587138,0.264294,-9.877828,-0.488296,-0.988800,0.025754,-0.028840,0.040738,43.384769,-16.931324,-1.720900,4635727169807450100.000000,0.344492,-0.672407,0.344499,0.557238,-10.033053,0.893984,-0.038846,-0.187674,0.053533,-0.017826,43.264941,12.157141,9.255115,4635728690319023100.000000,0.610369,0.428903,0.582779,-0.322274,0
-9.625667,0.332072,1.873965,0.287242,-0.085190,-0.051226,43.723415,-13.639173,6.664211,4635731572685799400.000000,0.739299,-0.197981,0.587208,0.263489,-9.782885,-0.193983,-1.072889,0.012611,-0.014124,0.047028,43.225747,-16.856393,-1.624947,4635727169807450100.000000,0.344408,-0.672263,0.344661,0.557363,-9.790831,0.552642,-0.236353,-0.150862,0.072398,-0.014858,43.261935,11.951048,9.265419,4635728780957057000.000000,0.610409,0.428548,0.583230,-0.321854,0
-9.603987,0.277531,1.870722,0.271767,-0.076579,-0.044295,43.702503,-13.595557,6.763903,4635731572685799400.000000,0.739715,-0.197176,0.587293,0.262736,-9.608258,-0.230577,-1.254635,0.018039,-0.003472,0.054505,43.138936,-16.982860,-1.611377,4635727169807450100.000000,0.344306,-0.672126,0.344871,0.557462,-9.614034,0.828013,-0.530623,-0.116165,0.072248,-0.006881,43.176482,11.964358,9.265419,4635728780957057000.000000,0.610398,0.428300,0.583619,-0.321499,0
-9.558145,0.222470,1.969137,0.259232,-0.065636,-0.031433,43.767034,-13.445573,6.876261,4635731572685799400.000000,0.740078,-0.196391,0.587408,0.262044,-9.614340,-0.527911,-1.292287,0.033021,-0.016850,0.045428,43.202323,-17.152048,-1.611377,4635727169807450100.000000,0.344286,-0.671949,0.345072,0.557563,-9.720896,1.094260,-0.555837,-0.104958,0.044836,0.003966,43.091031,12.059315,9.250209,4635728780957057000.000000,0.610448,0.428070,0.583905,-0.321193,0
-9.518533,0.179869,2.020452,0.252322,-0.069474,-0.020512,43.852490,-13.403728,6.897183,4635731572685799400.000000,0.740432,-0.195596,0.587511,0.261405,-9.714020,-0.405595,-1.346532,0.033410,-0.026583,0.033679,43.140642,-17.175816,-1.611377,4635727169807450100.000000,0.344309,-0.671766,0.345227,0.557674,-9.718707,0.742987,-0.530618,-0.073174,0.034110,0.015715,43.032190,12.196288,9.167760,4635728780957057000.000000,0.610482,0.427935,0.584099,-0.320953,0
-9.426607,0.115597,1.989558,0.253434,-0.084471,-0.014126,43.808884,-13.403728,6.823441,4635731491607598100.000000,0.740816,-0.194766,0.587575,0.260795,-9.655742,-0.031657,-1.523154,0.018401,-0.022255,0.025608,43.055199,-17.102258,-1.779510,4635727169807450100.000000,0.344302,-0.671626,0.345330,0.557783,-9.583619,0.450345,-0.590041,-0.014667,0.039023,0.027464,43.104340,12.268440,9.167760,4635728780957057000.000000,0.610416,0.427984,0.584207,-0.320817,0
-9.325961,0.005485,2.014469,0.263091,-0.087850,-0.009592,43.723433,-13.468251,6.799524,4635731465311617000.000000,0.741210,-0.193890,0.587641,0.260177,-9.559784,0.055939,-1.613389,0.012344,-0.023202,0.021809,43.190416,-16.943251,-1.974825,4635727169807450100.000000,0.344289,-0.671498,0.345408,0.557898,-9.519875,0.776422,-0.744652,0.002112,0.035153,0.038715,43.092941,12.207646,9.184858,4635728780957057000.000000,0.610345,0.428098,0.584263,-0.320700,0
-9.274389,-0.052067,2.090951,0.278067,-0.060973,-0.010158,43.702503,-13.553703,6.808741,4635731465311617000.000000,0.741550,-0.192999,0.587805,0.259499,-9.567206,-0.233189,-1.581552,0.017266,-0.029935,0.014007,43.287764,-16.993018,-1.991506,4635727169807450100.000000,0.344317,-0.671358,0.345465,0.558013,-9.532350,1.141800,-0.719970,-0.010942,0.026846,0.046263,43.044387,11.864514,9.262437,4635728780957057000.000000,0.610326,0.428186,0.584301,-0.320547,0
-9.265419,-0.236147,2.167179,0.302152,-0.024114,-0.012294,43.767019,-13.574633,6.885462,4635731465311617000.000000,0.741820,-0.192079,0.588107,0.258725,-9.665165,-0.354318,-1.522221,0.023675,-0.037412,-0.002811,43.152566,-17.078460,-1.916259,4635727169807450100.000000,0.344413,-0.671216,0.345479,0.558116,-9.673143,1.080497,-0.584057,-0.016830,0.015524,0.048731,43.114648,11.853106,9.193257,4635728780957057000.000000,0.610350,0.428249,0.584315,-0.320394,0
-9.329931,-0.422001,2.157477,0.334499,-0.003664,-0.011205,43.787956,-13.510121,7.047630,4635731465311617000.000000,0.742064,-0.191077,0.588506,0.257859,-9.638445,-0.187610,-1.513718,0.028245,-0.035695,-0.010857,43.065717,-17.090364,-1.904355,4635727169807450100.000000,0.344538,-0.671082,0.345484,0.558196,-9.764024,0.921250,-0.575646,-0.008118,0.013482,0.053668,43.117628,12.196277,9.293894,4635728797654553600.000000,0.610369,0.428344,0.584302,-0.320253,0
-9.452247,-0.528393,2.120855,0.368680,-0.008870,-0.013101,43.668149,-13.544476,7.027989,4635731465311617000.000000,0.742348,-0.189969,0.588924,0.256906,-9.568601,-0.137683,-1.545238,0.040791,-0.033410,-0.013588,43.118552,-16.953780,-1.820302,4635727169807450100.000000,0.344701,-0.670940,0.345514,0.558248,-9.755612,0.952177,-0.576471,0.000166,0.016758,0.062046,43.204968,12.219121,9.494055,4635728888331239400.000000,0.610376,0.428485,0.584273,-0.320105,0
-9.439078,-0.604622,2.084236,0.402052,-0.019006,-0.017111,43.509466,-13.562425,7.080768,4635731465311617000.000000,0.742685,-0.188756,0.589341,0.255865,-9.589917,-0.281374,-1.466287,0.052839,-0.039548,-0.023079,43.191795,-16.858122,-1.638590,4635727169807450100.000000,0.344928,-0.670780,0.345537,0.558286,-9.764027,0.938908,-0.511649,0.004220,0.014622,0.070684,43.298826,11.939674,9.711177,4635728888331239400.000000,0.610393,0.428654,0.584216,-0.319950,0
-9.414901,-0.659436,2.093688,0.434357,-0.013300,-0.027834,43.590353,-13.378135,7.242927,4635731465311617000.000000,0.743043,-0.187475,0.589801,0.254707,-9.626535,-0.326196,-1.368638,0.059991,-0.040590,-0.030083,43.212505,-16.909248,-1.779463,4635727169807450100.000000,0.345194,-0.670616,0.345555,0.558307,-9.753716,0.853458,-0.431885,0.026670,0.013315,0.085803,43.360695,11.877804,9.531026,4635728888331239400.000000,0.610392,0.428915,0.584100,-0.319812,0
-9.430337,-0.708265,2.090459,0.468820,-0.008263,-0.043070,43.749049,-13.189274,7.204889,4635731465311617000.000000,0.743429,-0.186130,0.590298,0.253412,-9.631641,-0.266569,-1.291991,0.058127,-0.041509,-0.047522,43.214207,-17.066533,-2.132355,4635727169807450100.000000,0.345496,-0.670479,0.345519,0.558308,-9.753716,0.781274,-0.381166,0.063002,0.016022,0.101990,43.360695,11.866439,9.448530,4635728888331239400.000000,0.610342,0.429312,0.583913,-0.319717,0
-9.500809,-0.784723,2.059829,0.504063,-0.030853,-0.052641,43.732681,-13.211860,7.104255,4635731465311617000.000000,0.743905,-0.184674,0.590753,0.252017,-9.642145,-0.256355,-1.292281,0.050327,-0.039820,-0.060313,43.140682,-17.090364,-2.101094,4635727169807450100.000000,0.345803,-0.670374,0.345431,0.558297,-9.753716,0.766120,-0.337177,0.109743,0.016851,0.119411,43.360695,11.779934,9.420118,4635728888331239400.000000,0.610229,0.429870,0.583635,-0.319691,0
-9.540198,-0.824112,2.106113,0.535279,-0.040871,-0.058506,43.650231,-13.232825,7.227679,4635731465311617000.000000,0.744432,-0.183125,0.591202,0.250533,-9.633345,-0.287866,-1.293985,0.050973,-0.039521,-0.068386,43.202281,-17.016839,-1.929911,4635727169807450100.000000,0.346131,-0.670281,0.345323,0.558273,-9.759397,0.681721,-0.393581,0.149098,0.020866,0.138306,43.372059,11.657226,9.250267,4635728888331239400.000000,0.610061,0.430580,0.583280,-0.319704,0
-9.564626,-0.876195,2.170179,0.573270,-0.023913,-0.062236,43.629261,-13.168298,7.423104,4635731465311617000.000000,0.744946,-0.181485,0.591737,0.248930,-9.673656,-0.303481,-1.272977,0.046676,-0.041360,-0.076782,43.214207,-16.931387,-2.072414,4635727169807450100.000000,0.346469,-0.670202,0.345178,0.558248,-9.788445,0.686549,-0.483660,0.185063,0.018987,0.155726,43.420692,11.732357,9.167760,4635728888331239400.000000,0.609855,0.431420,0.582841,-0.319764,0
-9.644350,-0.946449,2.120598,0.611439,-0.014126,-0.060601,43.813624,-13.147373,7.397185,4635731465311617000.000000,0.745459,-0.179731,0.592340,0.247228,-9.659466,-0.273678,-1.280072,0.042255,-0.037982,-0.086245,43.203705,-16.782930,-2.015654,4635727169807450100.000000,0.346811,-0.670151,0.345002,0.558206,-9.764881,0.770959,-0.536275,0.205672,0.024327,0.174290,43.337132,11.815915,9.182902,4635728888331239400.000000,0.609624,0.432365,0.582354,-0.319817,0
-9.778873,-0.973602,2.035151,0.650435,-0.049111,-0.050944,43.937929,-13.147373,7.437794,4635731465311617000.000000,0.746071,-0.177795,0.592878,0.245484,-9.624549,-0.342078,-1.334288,0.045334,-0.032790,-0.092183,43.265014,-16.613734,-1.665944,4635727169807450100.000000,0.347169,-0.670115,0.344823,0.558136,-9.694571,0.788844,-0.596270,0.218341,0.029502,0.189244,43.275246,11.853202,9.280559,4635728888331239400.000000,0.609376,0.433384,0.581836,-0.319853,0
-9.879282,-0.958155,1.995784,0.689960,-0.106055,-0.039194,44.023389,-13.082843,7.458724,4635731465311617000.000000,0.746837,-0.175648,0.593282,0.243719,-9.587927,-0.406526,-1.353317,0.055120,-0.032963,-0.095686,43.495792,-16.726390,-1.779413,4635727262183007200.000000,0.347562,-0.670070,0.344658,0.558048,-9.704885,0.849016,-0.585955,0.239521,0.032451,0.203700,43.277137,11.707760,9.393338,4635728888331239400.000000,0.609101,0.434495,0.581270,-0.319899,0
-9.835687,-0.896877,2.091191,0.727863,-0.150540,-0.031478,44.035095,-12.942104,7.302039,4635731465311617000.000000,0.747725,-0.173318,0.593588,0.241914,-9.614318,-0.415052,-1.376026,0.063044,-0.032194,-0.097971,43.542103,-16.895588,-1.964229,4635727277181632500.000000,0.347982,-0.670018,0.344505,0.557943,-9.687864,0.972981,-0.587847,0.247239,0.029005,0.215615,43.287453,11.645863,9.558396,4635728888331239400.000000,0.608835,0.435649,0.580662,-0.319939,0
-9.704161,-0.897365,2.124088,0.774116,-0.168286,-0.029102,43.912298,-12.774202,7.251197,4635731465311617000.000000,0.748680,-0.170818,0.593880,0.240012,-9.629934,-0.467550,-1.410936,0.075114,-0.035719,-0.099188,43.470309,-16.919460,-1.989807,4635727277181632500.000000,0.348443,-0.669942,0.344372,0.557829,-9.589346,1.088350,-0.596272,0.249947,0.029743,0.228433,43.285562,11.657209,9.513012,4635728888331239400.000000,0.608579,0.436841,0.580029,-0.319951,0
-9.594536,-0.792756,2.050360,0.815994,-0.157195,-0.028840,43.753599,-12.732322,7.472381,4635731465311617000.000000,0.749629,-0.168196,0.594242,0.237997,-9.631641,-0.476089,-1.405558,0.087932,-0.041830,-0.102094,43.311349,-16.856457,-1.916303,4635727277181632500.000000,0.348955,-0.669837,0.344252,0.557709,-9.556507,1.070320,-0.582176,0.254577,0.029832,0.240753,43.299813,11.683202,9.235183,4635728888331239400.000000,0.608329,0.438074,0.579365,-0.319942,0
-9.589034,-0.627851,2.026429,0.853899,-0.130169,-0.028840,43.714710,-12.787611,7.617894,4635731465311617000.000000,0.750529,-0.165481,0.594719,0.235865,-9.631641,-0.371094,-1.403851,0.093399,-0.039970,-0.106217,43.213955,-16.846216,-1.904355,4635727184830044200.000000,0.349490,-0.669734,0.344136,0.557569,-9.559418,0.907996,-0.565320,0.285146,0.036076,0.249871,43.435831,11.462599,9.087109,4635728888331239400.000000,0.608019,0.439414,0.578659,-0.319972,0
-9.687165,-0.613599,2.081716,0.893702,-0.124450,-0.027227,43.779213,-12.741064,7.715551,4635731465311617000.000000,0.751430,-0.162642,0.595245,0.233632,-9.715635,-0.343515,-1.424850,0.101347,-0.043196,-0.110490,43.202000,-16.772722,-1.736367,4635727169807450100.000000,0.350061,-0.669618,0.344021,0.557421,-9.637310,0.902627,-0.584066,0.317342,0.039267,0.256279,43.446148,11.341697,9.193194,4635728888331239400.000000,0.607650,0.440853,0.577905,-0.320057,0
-9.772380,-0.668650,2.062815,0.932679,-0.161255,-0.027510,43.800163,-12.600325,7.730279,4635731465311617000.000000,0.752438,-0.159643,0.595686,0.231323,-9.844778,-0.383799,-1.396772,0.117239,-0.041957,-0.117517,43.275487,-16.687278,-1.625052,4635727169807450100.000000,0.350691,-0.669492,0.343925,0.557236,-9.662599,1.109996,-0.564306,0.337877,0.032044,0.262522,43.457478,11.425252,9.265419,4635728888331239400.000000,0.607266,0.442349,0.577091,-0.320188,0
-9.817978,-0.702041,2.050844,0.974353,-0.207705,-0.026966,43.919937,-12.561418,7.800994,4635731465311617000.000000,0.753576,-0.156465,0.596011,0.228938,-9.790097,-0.317152,-1.318159,0.123307,-0.043495,-0.126831,43.276955,-16.601828,-1.611377,4635727169807450100.000000,0.351361,-0.669366,0.343815,0.557033,-9.629753,1.170022,-0.518376,0.352082,0.031714,0.268028,43.543942,11.464507,9.235206,4635728888331239400.000000,0.606863,0.443892,0.576246,-0.320340,0
-9.808533,-0.634325,2.069270,1.011435,-0.236705,-0.021867,43.894369,-12.496927,7.751241,4635731465311617000.000000,0.754792,-0.153127,0.596273,0.226492,-9.704654,-0.168730,-1.295696,0.104618,-0.051142,-0.147465,43.201769,-16.516386,-1.705846,4635727169807450100.000000,0.352038,-0.669278,0.343593,0.556848,-9.625098,1.174808,-0.551221,0.357180,0.029743,0.274107,43.678089,11.316132,9.070101,4635728921545859100.000000,0.606461,0.445458,0.575376,-0.320491,0
-9.830184,-0.527453,2.084472,1.037010,-0.266654,-0.020295,43.808917,-12.227214,7.635156,4635731465311617000.000000,0.756083,-0.149675,0.596455,0.224002,-9.703174,-0.031029,-1.314977,0.077595,-0.058768,-0.176325,43.263268,-16.430934,-1.878689,4635727169807450100.000000,0.352717,-0.669254,0.343216,0.556680,-9.659830,1.263023,-0.563427,0.366462,0.028840,0.278544,43.668655,11.157452,9.100290,4635729103079604200.000000,0.606048,0.447055,0.574481,-0.320654,0
-9.848379,-0.417596,2.115102,1.061857,-0.288217,-0.020295,43.972195,-12.146366,7.531517,4635731465311617000.000000,0.757428,-0.146122,0.596580,0.221458,-9.725878,-0.012207,-1.265918,0.061763,-0.059816,-0.200722,43.558645,-16.345483,-1.988326,4635727169807450100.000000,0.353410,-0.669285,0.342733,0.556501,-9.674810,1.316627,-0.575635,0.371628,0.028675,0.283554,43.603843,11.010077,9.267306,4635729103079604200.000000,0.605631,0.448675,0.573567,-0.320816,0
-9.842161,-0.252447,2.160939,1.088301,-0.305570,-0.018683,44.280845,-12.210855,7.654956,4635731465311617000.000000,0.758815,-0.142462,0.596662,0.218858,-9.771280,-0.211614,-1.215382,0.063490,-0.056143,-0.217791,43.604843,-16.406971,-2.002014,4635727169807450100.000000,0.354143,-0.669345,0.342212,0.556284,-9.626869,1.461226,-0.585955,0.361675,0.027607,0.287254,43.569333,10.915194,9.262533,4635729103079604200.000000,0.605237,0.450276,0.572654,-0.320945,0
-9.820743,-0.161466,2.154494,1.104524,-0.333944,-0.019771,44.297220,-12.038367,7.693660,4635731465311617000.000000,0.760265,-0.138725,0.596656,0.216227,-9.830598,-0.370072,-1.198039,0.065007,-0.047280,-0.235648,43.394971,-16.345502,-1.844610,4635727169807450100.000000,0.354907,-0.669449,0.341656,0.556013,-9.520785,1.593609,-0.582185,0.338013,0.027034,0.293002,43.787061,10.802657,9.149801,4635729069912540200.000000,0.604895,0.451829,0.571759,-0.321004,0
-9.814753,-0.164910,2.194555,1.125399,-0.374850,-0.028354,44.092043,-11.855727,7.543296,4635731465311617000.000000,0.761819,-0.134904,0.596519,0.213534,-9.902135,-0.443110,-1.217315,0.080768,-0.048685,-0.249216,43.423664,-16.123612,-1.986818,4635727169807450100.000000,0.355749,-0.669544,0.341098,0.555703,-9.440989,1.711912,-0.552114,0.313611,0.028345,0.295304,43.824482,10.877786,8.984649,4635728888331239400.000000,0.604597,0.453326,0.570894,-0.320996,0
-9.722651,-0.180114,2.237170,1.152122,-0.406554,-0.041453,43.967633,-11.881237,7.347984,4635731465311617000.000000,0.763460,-0.131000,0.596283,0.210746,-9.880931,-0.525129,-1.252221,0.105352,-0.041789,-0.253769,43.570357,-15.942447,-2.098171,4635727354407556100.000000,0.356660,-0.669625,0.340593,0.555331,-9.401585,1.800144,-0.479767,0.292421,0.024481,0.299003,43.665789,10.923648,8.999730,4635728888331239400.000000,0.604351,0.454771,0.570038,-0.320935,0
-9.545317,-0.183111,2.227742,1.179088,-0.439162,-0.055339,44.075592,-11.837748,7.521070,4635731465311617000.000000,0.765189,-0.127012,0.595944,0.207857,-9.697401,-0.537126,-1.330816,0.146596,-0.044262,-0.256974,43.592636,-15.918454,-2.111881,4635727384555814900.000000,0.357696,-0.669642,0.340170,0.554902,-9.415676,1.846180,-0.366222,0.284042,0.017170,0.305576,43.544786,10.743346,9.069122,4635728888331239400.000000,0.604146,0.456200,0.569161,-0.320850,0
-9.377642,-0.293619,2.323047,1.217876,-0.464476,-0.066000,44.172809,-11.623377,7.657468,4635731465311617000.000000,0.766989,-0.122902,0.595535,0.204846,-9.542342,-0.537126,-1.384788,0.191308,-0.046699,-0.252833,43.655598,-15.845000,-2.111881,4635727384555814900.000000,0.358851,-0.669581,0.339859,0.554422,-9.426911,1.953242,-0.379399,0.273271,0.010597,0.313382,43.654699,10.524607,8.994974,4635728888331239400.000000,0.603985,0.457610,0.568266,-0.320732,0
-9.200534,-0.430895,2.448115,1.270269,-0.472402,-0.074808,44.190800,-11.440698,7.448240,4635731465311617000.000000,0.768819,-0.118637,0.595122,0.201673,-9.542759,-0.516141,-1.339183,0.221477,-0.034146,-0.245656,43.739328,-15.686112,-2.027943,4635727384555814900.000000,0.360055,-0.669491,0.339655,0.553874,-9.354581,2.081819,-0.436616,0.245914,0.004273,0.323159,43.861198,10.376238,8.956415,4635728888331239400.000000,0.603903,0.458965,0.567370,-0.320536,0
-9.026631,-0.408629,2.487311,1.320173,-0.486887,-0.084964,44.181591,-11.337254,7.225933,4635731465311617000.000000,0.770693,-0.114221,0.594680,0.198344,-9.630115,-0.512711,-1.288644,0.236394,-0.024701,-0.240016,43.751335,-15.662099,-1.930296,4635727384555814900.000000,0.361273,-0.669392,0.339515,0.553286,-9.233480,2.005700,-0.337086,0.230310,0.005096,0.334169,43.834865,10.242011,8.773323,4635728888331239400.000000,0.603862,0.460306,0.566475,-0.320273,0
-8.846519,-0.326176,2.444267,1.356959,-0.516326,-0.095646,44.243054,-11.251802,7.168745,4635731465311617000.000000,0.772640,-0.109686,0.594148,0.194896,-9.654341,-0.523203,-1.229319,0.256558,-0.019827,-0.239265,43.677892,-15.735540,-1.916562,4635727384555814900.000000,0.362538,-0.669272,0.339431,0.552655,-9.216628,1.699555,-0.293054,0.227012,0.006980,0.346328,43.703463,10.228844,8.618426,4635728888331239400.000000,0.603838,0.461668,0.565564,-0.319968,0
-8.608179,-0.369638,2.447688,1.373955,-0.536546,-0.108743,44.383743,-11.295264,7.027632,4635731465311617000.000000,0.774626,-0.105109,0.593536,0.191366,-9.561640,-0.524918,-1.168287,0.261396,-0.006376,-0.233758,43.739318,-15.674116,-2.084413,4635727384555814900.000000,0.363785,-0.669166,0.339393,0.551988,-9.382844,1.232737,-0.548375,0.203050,0.000093,0.356684,43.800199,10.145275,8.616546,4635728888331239400.000000,0.603888,0.462985,0.564646,-0.319592,0
-8.333417,-0.482709,2.610210,1.384899,-0.501813,-0.130685,44.358290,-11.196570,6.973428,4635731465311617000.000000,0.776520,-0.100575,0.593013,0.187714,-9.399323,-0.503937,-1.075779,0.233241,0.004907,-0.220923,43.814276,-15.588665,-1.944033,4635727384555814900.000000,0.364906,-0.669109,0.339342,0.551347,-9.601625,0.293813,-0.551270,0.294163,0.048236,0.374016,43.947601,10.072038,8.606219,4635728888331239400.000000,0.603670,0.464634,0.563693,-0.319293,0
-8.126321,-0.356207,2.605977,1.372219,-0.444907,-0.153639,44.337288,-10.964239,7.034870,4635731465311617000.000000,0.778258,-0.096180,0.592632,0.183988,-9.312343,-0.720804,-1.104006,0.214815,-0.001852,-0.211627,43.887522,-15.366837,-1.843129,4635727200010868700.000000,0.365964,-0.669051,0.339264,0.550764,-9.942541,-0.313538,-1.039566,0.377882,0.082410,0.376236,43.995463,10.010071,8.636292,4635728888331239400.000000,0.603210,0.466542,0.562707,-0.319118,0
-8.016869,0.026181,2.468310,1.335013,-0.413550,-0.181705,44.585814,-10.901211,7.055879,4635731465311617000.000000,0.779897,-0.091996,0.592292,0.180243,-9.438401,-0.977133,-1.058428,0.223575,-0.012383,-0.215014,43.897823,-15.185650,-1.831110,4635727169807450100.000000,0.367069,-0.668959,0.339180,0.550192,-10.548160,0.545687,-1.415095,0.398003,0.071895,0.386096,43.849923,9.996916,8.816572,4635728888331239400.000000,0.602746,0.468507,0.561646,-0.318985,0
-8.115505,0.530065,2.346435,1.276986,-0.418502,-0.205170,44.786544,-10.901211,6.973041,4635731546270694400.000000,0.781518,-0.088053,0.591864,0.176561,-9.502694,-0.761478,-1.039348,0.233639,-0.015721,-0.201999,43.824399,-15.161595,-1.747198,4635727169807450100.000000,0.368176,-0.668824,0.339150,0.549634,-10.692747,1.476157,-1.208533,0.344108,0.074031,0.402363,43.825518,9.877667,8.884172,4635728888331239400.000000,0.602401,0.470376,0.560628,-0.318679,0
-8.301796,1.027326,2.282594,1.189008,-0.421918,-0.217673,44.641521,-10.781570,6.872387,4635731572685799400.000000,0.783101,-0.084422,0.591337,0.173050,-9.541030,-0.594384,-1.016654,0.237746,-0.000422,-0.187814,43.812370,-15.235009,-1.565647,4635727169807450100.000000,0.369240,-0.668697,0.339192,0.549049,-10.284268,1.562548,-1.152191,0.284456,0.076331,0.413784,44.056519,9.595019,8.786513,4635728888331239400.000000,0.602180,0.472122,0.559669,-0.318199,0
-8.423495,1.469632,2.160130,1.086426,-0.403396,-0.223260,44.581436,-10.494010,6.765518,4635731572685799400.000000,0.784586,-0.081151,0.590779,0.169762,-9.661552,-0.814962,-0.971264,0.248291,0.004889,-0.175763,43.885784,-15.173634,-1.705934,4635727169807450100.000000,0.370297,-0.668548,0.339299,0.548452,-9.872977,1.760676,-0.834799,0.271392,0.075428,0.422904,44.179532,9.460737,8.733924,4635728888331239400.000000,0.601996,0.473854,0.558705,-0.317667,0
-8.576382,1.685206,2.124088,0.984160,-0.356277,-0.213036,44.701091,-10.284055,6.582014,4635731410767645700.000000,0.785897,-0.078222,0.590293,0.166740,-9.753875,-0.969868,-0.828063,0.257287,0.006258,-0.162180,43.960739,-15.088191,-1.817342,4635727169807450100.000000,0.371346,-0.668368,0.339466,0.547858,-9.616648,2.126894,-0.784098,0.250278,0.053409,0.428163,44.068763,9.458861,8.916086,4635728888331239400.000000,0.601910,0.475513,0.557701,-0.317114,0
-8.802490,1.666025,2.216120,0.892359,-0.328380,-0.194057,44.740131,-10.306433,6.604586,4635731357937434600.000000,0.787082,-0.075565,0.589830,0.163993,-9.807872,-0.894414,-0.805689,0.230962,0.006409,-0.153799,43.971066,-15.076143,-1.831110,4635727169807450100.000000,0.372302,-0.668217,0.339597,0.547313,-9.360292,2.190774,-0.717431,0.228091,0.041658,0.426110,43.826435,9.401615,8.994051,4635728888331239400.000000,0.601890,0.477095,0.556698,-0.316537,0
-9.037407,1.500772,2.218557,0.825452,-0.351024,-0.162492,44.675721,-10.263051,6.628620,4635731357937434600.000000,0.788268,-0.073034,0.589247,0.161518,-9.762321,-0.878933,-0.973469,0.179652,0.001821,-0.150910,44.033985,-14.929335,-1.506035,4635727169807450100.000000,0.373115,-0.668130,0.339611,0.546857,-9.124581,2.098724,-0.642290,0.225708,0.043135,0.418140,44.021728,9.096436,8.911405,4635728888331239400.000000,0.601858,0.478653,0.555716,-0.315971,0
-9.223350,1.342252,2.062301,0.767243,-0.376070,-0.130462,44.774313,-9.993546,6.545798,4635731357937434600.000000,0.789465,-0.070598,0.588545,0.159296,-9.617429,-0.952318,-1.168744,0.134362,-0.017278,-0.153361,44.044312,-14.842338,-1.452681,4635727169807450100.000000,0.373834,-0.668072,0.339485,0.546515,-9.038147,2.205714,-0.677989,0.228664,0.050779,0.407624,44.287541,8.825034,8.911405,4635728888331239400.000000,0.601787,0.480201,0.554768,-0.315422,0
-9.348225,1.214186,2.041823,0.725672,-0.370058,-0.091440,44.932984,-9.848007,6.509553,4635731357937434600.000000,0.790600,-0.068206,0.587840,0.157301,-9.458722,-0.932932,-1.374561,0.122673,-0.045982,-0.153813,43.981404,-14.894901,-1.693823,4635727169807450100.000000,0.374562,-0.667968,0.339286,0.546267,-9.148014,2.410560,-0.639492,0.245821,0.052169,0.401292,44.203963,8.739582,8.926406,4635728888331239400.000000,0.601668,0.481779,0.553812,-0.314924,0
-9.439692,1.128912,2.096849,0.696600,-0.346248,-0.040925,44.916868,-9.826960,6.580154,4635731357937434600.000000,0.791628,-0.065802,0.587201,0.155534,-9.352456,-0.634228,-1.445785,0.113513,-0.054789,-0.156565,43.971066,-14.978623,-1.817318,4635727169807450100.000000,0.375282,-0.667861,0.339044,0.546053,-9.199756,2.148544,-0.571914,0.315334,0.081989,0.411237,44.168220,8.631633,9.024063,4635728888331239400.000000,0.601351,0.483590,0.552817,-0.314501,0
-9.442337,0.945270,2.093480,0.669898,-0.330011,0.002014,44.889630,-9.771758,6.457002,4635731357937434600.000000,0.792572,-0.063390,0.586605,0.153968,-9.380596,-0.460157,-1.347849,0.080051,-0.050957,-0.164356,44.107349,-14.917309,-1.663380,4635727169807450100.000000,0.375922,-0.667826,0.338711,0.545862,-8.981810,2.136010,-0.431006,0.370235,0.117178,0.410417,44.312874,8.435316,9.091734,4635728888331239400.000000,0.600839,0.485581,0.551836,-0.314135,0
-9.436323,0.688768,2.032273,0.647222,-0.334902,0.037506,44.951013,-9.624932,6.178918,4635731357937434600.000000,0.793492,-0.060964,0.585981,0.152575,-9.607639,-0.470916,-1.403989,0.062846,-0.061210,-0.174736,44.056381,-14.622194,-1.646275,4635727169807450100.000000,0.376552,-0.667809,0.338293,0.545708,-9.007247,2.897639,-0.461042,0.364835,0.091861,0.403109,44.286643,8.435316,8.980959,4635728888331239400.000000,0.600383,0.487506,0.550811,-0.313823,0
-9.445522,0.392590,1.903827,0.622638,-0.360878,0.054785,44.962873,-9.592011,5.882913,4635731357937434600.000000,0.794452,-0.058560,0.585255,0.151303,-9.811559,-0.538980,-1.258830,0.059967,-0.067607,-0.191836,43.970937,-14.428893,-1.731855,4635727169807450100.000000,0.377222,-0.667806,0.337811,0.545548,-8.875689,3.436747,-0.456508,0.298219,0.086451,0.383312,44.155085,8.399721,8.825953,4635728888331239400.000000,0.600046,0.489210,0.549898,-0.313419,6
-9.365741,0.161014,1.978118,0.601833,-0.329876,0.060095,44.904675,-9.778994,5.967103,4635731357937434600.000000,0.795321,-0.056230,0.584615,0.150091,-9.818204,-0.538851,-1.170058,0.089165,-0.056439,-0.191651,44.021750,-14.404736,-1.829512,4635727169807450100.000000,0.377957,-0.667781,0.337413,0.545316,-8.964876,3.638857,-0.112789,0.191815,0.053499,0.356440,44.253632,8.179036,8.855908,4635728888331239400.000000,0.599965,0.490541,0.549093,-0.312904,6
-9.311071,0.091472,1.986630,0.582609,-0.249640,0.062494,44.951003,-9.839167,6.018250,4635731357937434600.000000,0.795983,-0.054009,0.584225,0.148913,-9.730899,-0.610498,-1.075850,0.129766,-0.041635,-0.182027,44.252220,-14.478108,-1.927171,4635727169807450100.000000,0.378762,-0.667712,0.337157,0.545001,-9.065382,3.358239,0.076989,0.116271,0.033368,0.342220,44.411432,8.044679,9.006293,4635728888331239400.000000,0.600064,0.491623,0.548365,-0.312292,6
-9.412405,0.076255,1.885630,0.571430,-0.216249,0.073482,44.972073,-9.839167,5.944674,4635731357937434600.000000,0.796549,-0.051819,0.583937,0.147790,-9.643730,-0.779784,-0.946759,0.162249,-0.029434,-0.176849,44.288460,-14.490188,-1.773290,4635727169807450100.000000,0.379628,-0.667611,0.337009,0.544613,-9.144162,2.827635,0.048988,0.106559,0.016435,0.339258,44.481904,8.022215,8.878684,4635728888331239400.000000,0.600216,0.492651,0.547611,-0.311700,6
-9.439334,0.165214,1.809541,0.545986,-0.229461,0.089782,44.843317,-9.839167,5.920590,4635731357937434600.000000,0.797127,-0.049665,0.583590,0.146785,-9.411557,-0.973372,-0.833441,0.192308,-0.017685,-0.166157,44.215097,-14.416826,-1.494133,4635727169807450100.000000,0.380536,-0.667474,0.336976,0.544167,-9.388281,2.415392,-0.326352,0.118909,0.012981,0.340748,44.473440,7.860780,8.660562,4635728888331239400.000000,0.600352,0.493708,0.546829,-0.311138,6
-9.408735,0.388431,1.904838,0.491678,-0.240625,0.104457,44.681625,-9.774796,5.994157,4635731357937434600.000000,0.797707,-0.047649,0.583171,0.145962,-9.102799,-1.367815,-0.692133,0.217631,-0.002267,-0.146154,44.129644,-14.341854,-1.379319,4635727169807450100.000000,0.381448,-0.667303,0.337081,0.543673,-9.675398,2.128818,-0.967895,0.089841,0.015522,0.326700,44.485645,7.654042,8.900723,4635728888331239400.000000,0.600523,0.494663,0.546119,-0.310540,6
-9.344521,0.709178,2.207678,0.412823,-0.232813,0.109492,44.762030,-9.689339,5.944677,4635731357937434600.000000,0.798246,-0.045887,0.582729,0.145344,-9.057893,-1.836946,-0.587575,0.239445,-0.004585,-0.128461,44.253783,-14.321013,-1.440582,4635727169807450100.000000,0.382383,-0.667066,0.337280,0.543183,-10.250770,2.005228,-1.305958,0.048971,0.027675,0.312727,44.509067,7.642828,9.284344,4635728888331239400.000000,0.600731,0.495499,0.545519,-0.309858,6
-9.298869,1.133727,2.359363,0.297063,-0.227238,0.094731,44.920715,-9.677459,5.699891,4635731438822377500.000000,0.798755,-0.044550,0.582231,0.144957,-9.057893,-1.925312,-0.542312,0.263558,-0.013593,-0.122374,44.276253,-14.319284,-1.368851,4635727169807450100.000000,0.383384,-0.666762,0.337536,0.542693,-10.978191,1.408387,-1.640128,0.078956,0.066435,0.308596,44.568361,7.567723,9.075970,4635728888331239400.000000,0.600783,0.496449,0.544986,-0.309174,6
-9.243862,1.631319,2.067835,0.147706,-0.247365,0.073634,44.959866,-9.799997,5.554058,4635731465311617000.000000,0.799298,-0.043748,0.581570,0.144866,-9.047416,-1.394417,-0.662856,0.257869,-0.024122,-0.119019,44.202909,-14.319284,-1.438842,4635727169807450100.000000,0.384375,-0.666437,0.337771,0.542244,-10.916686,0.643123,-2.037503,0.275279,0.205306,0.331505,44.484777,7.471064,8.882987,4635728888331239400.000000,0.600141,0.498120,0.544498,-0.308591,6
-9.146051,2.088850,1.937810,-0.034246,-0.283985,0.041814,44.904703,-10.032241,5.621894,4635731465311617000.000000,0.799914,-0.043608,0.580671,0.145115,-9.328539,-0.719534,-1.039800,0.211439,-0.036635,-0.128648,44.127942,-14.256428,-1.536489,4635727169807450100.000000,0.385277,-0.666171,0.337854,0.541880,-10.435598,0.769932,-2.211544,0.457670,0.330616,0.367419,44.424608,7.312371,9.189033,4635728888331239400.000000,0.598880,0.500488,0.544011,-0.308070,6
-9.100545,2.169754,2.388415,-0.229185,-0.306611,0.013003,44.822272,-10.095523,5.652028,4635731384452441100.000000,0.800565,-0.044173,0.579572,0.145745,-9.637213,-0.591146,-1.339639,0.181098,-0.053121,-0.142232,44.316619,-14.026021,-1.560817,4635727169807450100.000000,0.386148,-0.665935,0.337804,0.541581,-10.221786,0.793786,-2.085600,0.735511,0.440738,0.387023,44.459210,7.179820,9.494637,4635728888331239400.000000,0.596807,0.503729,0.543395,-0.307897,6
-9.103707,2.077987,2.677012,-0.402377,-0.306810,0.009626,44.856320,-10.031183,5.348710,4635731357937434600.000000,0.801184,-0.045324,0.578365,0.146781,-10.110040,-0.816456,-1.494687,0.164478,-0.078463,-0.158868,44.349495,-13.989684,-1.646366,4635727261963954200.000000,0.387045,-0.665691,0.337629,0.541349,-9.829835,0.586508,-1.987540,0.951253,0.497259,0.362694,44.569381,7.201359,9.396977,4635728888331239400.000000,0.594112,0.507514,0.542683,-0.308149,6
-9.161869,1.876213,2.676296,-0.546221,-0.274126,0.018724,44.993900,-10.074409,5.111317,4635731357937434600.000000,0.801687,-0.046953,0.577177,0.148187,-10.432400,-0.676425,-1.744191,0.144025,-0.104247,-0.171374,44.150450,-14.136349,-1.817347,4635727277181632500.000000,0.387950,-0.665439,0.337331,0.541196,-9.699753,1.202082,-1.434330,0.737232,0.426946,0.344461,44.421885,7.239145,9.301186,4635728888331239400.000000,0.591994,0.510628,0.542100,-0.308105,6
-9.299451,1.460451,2.606067,-0.675706,-0.254986,0.069616,45.042302,-10.224198,4.992544,4635731357937434600.000000,0.802082,-0.048903,0.575979,0.150070,-10.233008,-0.531758,-2.012749,0.153828,-0.126216,-0.167540,44.107078,-14.013926,-1.853794,4635727277181632500.000000,0.388905,-0.665115,0.337031,0.541096,-9.216932,2.824819,-1.099342,0.448462,0.395750,0.312716,44.338306,7.080465,9.243716,4635728855524967400.000000,0.590514,0.512913,0.541872,-0.307551,6
-9.504083,1.103875,2.633919,-0.806825,-0.266557,0.164256,44.971798,-10.146956,4.821374,4635731357937434600.000000,0.802409,-0.051056,0.574674,0.152585,-9.847479,-0.596518,-2.092747,0.201781,-0.134746,-0.141882,44.451052,-13.696361,-1.687912,4635727277181632500.000000,0.389946,-0.664658,0.336895,0.540993,-8.929378,3.421631,-1.177516,0.231523,0.283001,0.244414,44.278118,6.921769,9.356294,4635728673582874600.000000,0.589661,0.514363,0.541788,-0.306915,6
-9.834085,0.860009,2.841988,-0.915953,-0.278546,0.287425,44.883330,-10.107730,4.626061,4635731357937434600.000000,0.802652,-0.053270,0.573277,0.155774,-10.020778,-1.039828,-1.754012,0.281763,-0.150319,-0.124960,44.581514,-13.647877,-1.660207,4635727277181632500.000000,0.391191,-0.664011,0.336961,0.540847,-8.755096,3.740859,-0.374378,0.112765,0.200070,0.193559,44.301513,6.774264,9.536692,4635728673582874600.000000,0.589183,0.515299,0.541759,-0.306312,6
-10.301438,0.677019,3.034032,-1.016632,-0.290573,0.425529,44.926541,-10.300735,4.513441,4635731357937434600.000000,0.802795,-0.055482,0.571794,0.159666,-10.394080,-1.121348,-1.267380,0.323069,-0.173825,-0.132002,44.520325,-13.647877,-1.576412,4635727277181632500.000000,0.392599,-0.663252,0.337061,0.540696,-8.382569,4.751645,0.142572,0.081139,0.194543,0.141535,44.398137,6.690684,9.604526,4635728673582874600.000000,0.588719,0.516033,0.541867,-0.305778,6
-10.645656,0.598030,2.883299,-1.136319,-0.345198,0.573739,44.947659,-10.612185,4.354491,4635731438761144300.000000,0.802922,-0.057703,0.570068,0.164347,-10.250525,-0.578414,-0.861146,0.279346,-0.179146,-0.142684,44.361551,-13.585031,-1.562548,4635727277181632500.000000,0.393917,-0.662566,0.337024,0.540601,-8.501943,5.259908,0.317848,0.056163,0.155281,0.098679,44.508384,6.652845,9.551589,4635728673582874600.000000,0.588342,0.516558,0.542003,-0.305376,6
-10.699724,0.659461,2.617771,-1.270393,-0.412752,0.689769,44.892531,-10.886636,4.180579,4635731465311617000.000000,0.803069,-0.060048,0.568033,0.169745,-9.892813,-0.236851,-0.920934,0.179637,-0.190450,-0.166201,44.201089,-13.637494,-1.813993,4635727185028781100.000000,0.395028,-0.662050,0.336678,0.540638,-8.506890,4.952673,0.653610,0.088695,0.168317,0.030898,44.338512,6.798495,9.761810,4635728673582874600.000000,0.587779,0.517025,0.542275,-0.305186,6
-10.675309,0.986823,2.689170,-1.400684,-0.431003,0.751033,44.874416,-11.262438,4.000488,4635731465311617000.000000,0.803149,-0.062667,0.565836,0.175655,-9.902039,-0.708768,-1.380069,0.125986,-0.233526,-0.196425,44.251944,-13.721227,-2.023182,4635727169807450100.000000,0.396119,-0.661567,0.336057,0.540819,-8.388138,4.847782,0.616992,0.112862,0.198567,-0.037149,44.168039,6.836355,10.038000,4635728673582874600.000000,0.587009,0.517437,0.542736,-0.305152,6
-10.577389,1.261034,2.945786,-1.526450,-0.425100,0.771501,44.929544,-11.493727,3.670366,4635731384494279700.000000,0.803127,-0.065660,0.563543,0.181920,-10.415332,-1.202104,-1.641276,0.135218,-0.283422,-0.214564,44.473596,-13.586643,-1.967024,4635727169807450100.000000,0.397345,-0.660980,0.335323,0.541093,-8.586972,5.108490,0.580370,0.068797,0.219676,-0.091136,44.348251,6.690693,10.163391,4635728673582874600.000000,0.586216,0.517645,0.543420,-0.305104,6
-10.335894,1.685881,2.813114,-1.654627,-0.489707,0.759134,44.938472,-11.664615,3.218474,4635731357937434600.000000,0.803185,-0.069057,0.560902,0.188452,-10.613603,-0.892432,-1.400037,0.136874,-0.319869,-0.212251,44.644382,-13.352904,-2.036993,4635727169807450100.000000,0.398621,-0.660302,0.334538,0.541467,-8.918639,4.874715,0.502790,-0.006516,0.248895,-0.140940,44.531783,6.639790,9.982970,4635728673582874600.000000,0.585456,0.517593,0.544379,-0.304944,6
-10.211306,1.907749,2.544559,-1.788692,-0.559873,0.762955,44.687410,-12.083554,2.834267,4635731357937434600.000000,0.803312,-0.072833,0.557885,0.195319,-10.255473,-0.610084,-1.155957,0.114721,-0.365054,-0.205993,44.666889,-13.307800,-2.218477,4635727169807450100.000000,0.399884,-0.659549,0.333645,0.542004,-9.131725,4.092842,0.186473,-0.050214,0.304536,-0.179826,44.412850,6.737213,9.959739,4635728673582874600.000000,0.584613,0.517416,0.545611,-0.304659,6
-10.183996,2.299215,2.579144,-1.933176,-0.587788,0.747376,44.550738,-12.593197,2.544583,4635731357937434600.000000,0.803412,-0.077100,0.554611,0.202463,-9.994113,-0.846158,-1.133558,0.066166,-0.422137,-0.220669,44.520205,-13.316547,-2.162344,4635727169807450100.000000,0.401124,-0.658766,0.332505,0.542740,-9.374012,3.837204,-0.191956,-0.112861,0.399653,-0.203488,44.143015,6.957991,10.320609,4635728673582874600.000000,0.583658,0.517151,0.547203,-0.304083,6
-10.171789,2.518103,2.924682,-2.068521,-0.592558,0.757369,44.596903,-13.032412,2.276028,4635731357937434600.000000,0.803403,-0.081785,0.551163,0.209939,-10.086938,-1.310132,-1.009591,0.050499,-0.489122,-0.229659,44.433136,-13.244954,-2.399898,4635727169807450100.000000,0.402434,-0.657867,0.331192,0.543664,-9.563163,4.210508,-0.510851,-0.256998,0.508968,-0.228055,44.092094,7.103663,10.499181,4635728706307907600.000000,0.582729,0.516616,0.549295,-0.303002,6
-10.086100,2.156383,2.963139,-2.170166,-0.596841,0.819721,44.489465,-13.447463,1.933983,4635731357937434600.000000,0.803238,-0.086655,0.547581,0.217840,-10.526755,-1.829889,-0.957373,0.097716,-0.553822,-0.212388,44.349411,-13.159496,-2.944311,4635727169807450100.000000,0.403920,-0.656715,0.329923,0.544725,-9.516197,4.224257,-0.416848,-0.441145,0.599312,-0.253108,44.143024,7.165746,10.616228,4635728888331239400.000000,0.581953,0.515687,0.551887,-0.301363,6
-9.829298,1.760090,2.620540,-2.282912,-0.613431,0.912428,44.254289,-13.807373,1.420849,4635731357937434600.000000,0.802902,-0.091666,0.543818,0.226292,-10.616977,-2.155775,-1.255977,0.052582,-0.519832,-0.206607,44.473473,-13.074042,-3.027436,4635727169807450100.000000,0.405222,-0.655703,0.328622,0.545762,-9.490729,3.958917,0.151076,-0.657426,0.703432,-0.282506,44.071638,7.152733,10.922218,4635728888331239400.000000,0.581356,0.514289,0.555058,-0.299069,6
-9.661878,1.213227,2.597379,-2.372808,-0.616047,1.020338,44.245903,-14.029781,0.850141,4635731357937434600.000000,0.802342,-0.096718,0.539939,0.235284,-10.274780,-1.191773,-0.583446,-0.181671,-0.347736,-0.220817,44.632155,-12.988600,-2.692249,4635727169807450100.000000,0.405678,-0.655495,0.327039,0.546623,-9.570103,4.022366,0.796447,-0.909879,0.797032,-0.320146,44.021756,7.080294,11.302500,4635728888331239400.000000,0.581024,0.512299,0.558839,-0.296075,6
-9.668380,0.584432,2.606222,-2.429620,-0.644989,1.153938,44.328338,-14.258833,0.423299,4635731357937434600.000000,0.801591,-0.101618,0.535894,0.244834,-11.045072,-0.145575,1.610044,-0.467344,-0.398347,-0.331391,44.654682,-12.903149,-2.971979,4635727169807450100.000000,0.405673,-0.655801,0.324416,0.547821,-9.842881,4.288244,1.213311,-1.188074,0.881824,-0.357967,43.985671,7.091438,11.707949,4635728888331239400.000000,0.581021,0.509634,0.563230,-0.292334,6
-9.689655,-0.004394,2.407311,-2.466698,-0.764066,1.310194,44.285208,-14.705017,0.063261,4635731357937434600.000000,0.800820,-0.106156,0.531405,0.255005,-11.213405,1.581630,2.476903,-1.049178,-0.501971,-0.621487,44.591835,-12.817697,-3.614001,4635727354068917200.000000,0.404874,-0.657234,0.319491,0.549588,-9.835740,4.549292,1.142213,-1.512191,0.956985,-0.423511,43.691652,7.175811,12.194339,4635728888331239400.000000,0.581421,0.506098,0.568309,-0.287817,6
-9.444747,-0.568891,2.343822,-2.473291,-0.944669,1.476285,43.951834,-15.272762,-0.584556,4635731357937434600.000000,0.800147,-0.110139,0.526300,0.265787,-10.119059,3.016166,2.144680,-1.795624,-0.435434,-0.854363,44.644269,-12.585657,-3.962375,4635727384555814900.000000,0.402455,-0.660353,0.312314,0.551746,-9.580254,5.107767,0.835546,-1.898586,1.004326,-0.495426,43.509823,7.275901,12.655572,4635728888331239400.000000,0.582395,0.501477,0.574078,-0.282438,6
-8.876417,-1.102868,2.490738,-2.416521,-1.193975,1.619073,43.656163,-15.867883,-1.329186,4635731357937434600.000000,0.799757,-0.113323,0.520405,0.276992,-10.387152,1.953823,1.488787,-2.239896,-0.520885,-1.098090,44.780354,-11.973213,-4.182064,4635727384555814900.000000,0.399448,-0.664277,0.303273,0.554258,-8.871046,4.790840,-0.229364,-2.224421,1.091150,-0.560942,43.585218,7.106093,13.065492,4635728888331239400.000000,0.583708,0.495962,0.580521,-0.276229,6
-7.944867,-1.517564,2.805394,-2.296769,-1.327093,1.707053,43.409012,-16.585347,-2.138039,4635731357937434600.000000,0.799474,-0.115744,0.514158,0.288246,-11.268158,1.075393,1.768669,-2.431990,-0.693063,-1.298253,44.926845,-11.301794,-4.462904,4635727384555814900.000000,0.396541,-0.668291,0.292909,0.557087,-8.021344,3.935407,-1.986289,-2.608106,1.215785,-0.644122,43.499297,6.883426,13.666284,4635728855705362400.000000,0.585337,0.489393,0.587805,-0.268999,6
-6.726678,-1.739909,3.352196,-2.164597,-1.187603,1.723452,43.091427,-17.222833,-2.903852,4635731357937434600.000000,0.798805,-0.117836,0.508459,0.299157,-12.092843,0.095238,2.501296,-2.593877,-0.915861,-1.551890,45.010490,-10.703757,-5.185189,4635727384555814900.000000,0.393983,-0.672260,0.281048,0.560228,-8.072345,3.633948,-3.202980,-3.121025,1.307900,-0.711211,43.206326,6.760740,14.362867,4635728673582874600.000000,0.587606,0.481424,0.595920,-0.260440,6
-5.500094,-1.965875,3.788096,-2.045275,-0.948025,1.667500,42.758830,-17.628167,-3.657616,4635731357937434600.000000,0.797640,-0.119929,0.503603,0.309469,-11.893260,-0.006944,1.502412,-2.742489,-1.115273,-1.824881,44.947603,-10.117812,-5.884414,4635727384555814900.000000,0.391806,-0.676197,0.267695,0.563547,-8.907726,4.122837,-3.595184,-3.683624,1.384940,-0.751165,42.924494,6.860884,15.118883,4635728673582874600.000000,0.590625,0.471947,0.604770,-0.250363,6
-4.511985,-2.384381,3.441398,-1.990964,-0.783766,1.552849,42.484339,-17.905685,-4.194106,4635731357937434600.000000,0.796203,-0.122278,0.499242,0.319165,-9.642178,0.795830,-0.252317,-2.746806,-1.162159,-1.994942,44.914509,-9.311956,-6.327185,4635727384555814900.000000,0.389984,-0.680073,0.253717,0.566604,-10.248687,4.307360,-3.325532,-4.238001,1.405368,-0.742095,42.697348,6.628062,15.832148,4635728673582874600.000000,0.594503,0.461002,0.614039,-0.238747,6
-3.789192,-2.897167,2.534234,-1.973649,-0.707277,1.401386,42.182100,-18.345591,-4.501949,4635731357937434600.000000,0.794725,-0.124970,0.495024,0.328247,-8.607615,0.509005,-0.292863,-2.522392,-1.154357,-2.077121,44.963380,-8.396536,-6.813698,4635727384555814900.000000,0.388902,-0.683542,0.239993,0.569147,-11.314300,4.032036,-3.136540,-4.696151,1.441885,-0.718673,42.451026,6.031111,16.709212,4635728673582874600.000000,0.598956,0.448839,0.623570,-0.225735,6
-3.240127,-3.009080,2.126760,-1.937004,-0.645044,1.229383,41.910597,-18.974585,-4.905151,4635731357937434600.000000,0.793291,-0.127967,0.490920,0.336617,-9.658497,-0.366706,2.235449,-2.341752,-1.248723,-2.188848,45.087240,-7.479180,-7.481752,4635727384555814900.000000,0.388615,-0.686465,0.226177,0.571479,-10.834481,2.231004,-2.997397,-5.000684,1.496937,-0.738942,42.327112,5.735971,17.562888,4635728706157209600.000000,0.603542,0.435713,0.633279,-0.211776,6
-2.690755,-2.498298,1.983491,-1.941127,-0.590597,1.096514,41.966278,-19.462397,-5.512790,4635731277219981300.000000,0.791854,-0.131312,0.486874,0.344497,-9.830434,-0.877423,4.826762,-2.453467,-1.337977,-2.411853,45.158705,-6.333269,-8.345106,4635727384555814900.000000,0.388540,-0.689413,0.211262,0.573685,-10.162526,0.261704,-2.500528,-5.224065,1.543606,-0.799599,42.148391,5.481741,18.358975,4635728888331239400.000000,0.608051,0.421688,0.643094,-0.197186,6
-2.147536,-1.707542,1.310757,-2.003181,-0.508807,0.986776,42.005676,-19.632710,-6.116964,4635731250563252200.000000,0.790303,-0.135189,0.482904,0.352065,-8.539307,-1.055126,6.172206,-2.835044,-1.421588,-2.661322,45.282548,-5.086461,-9.162873,4635727384555814900.000000,0.387936,-0.692814,0.194527,0.575911,-10.548825,-0.919443,-1.619697,-5.485979,1.545437,-0.835995,41.745210,4.750408,19.224931,4635728888331239400.000000,0.612649,0.406674,0.652840,-0.181874,6
-1.940807,-0.638892,0.483821,-2.023610,-0.327019,0.857485,41.629428,-19.653919,-6.546878,4635731250563252200.000000,0.788494,-0.139647,0.479387,0.359115,-7.173913,-1.273153,6.189083,-3.381990,-1.476506,-2.871112,45.270269,-3.829120,-9.633556,4635727384555814900.000000,0.386173,-0.696902,0.175719,0.578205,-11.408754,-2.407596,-0.318416,-5.701421,1.478735,-0.770453,41.485926,3.992162,20.016482,4635728888331239400.000000,0.617477,0.390998,0.662080,-0.165811,6
-1.980790,0.389187,-0.214697,-2.059465,-0.242400,0.747272,41.312491,-19.791549,-6.925263,4635731250563252200.000000,0.786594,-0.144557,0.475991,0.365797,-5.820630,-0.918857,4.144316,-3.857729,-1.531289,-2.994369,44.950997,-2.435666,-10.048608,4635727384555814900.000000,0.383206,-0.701422,0.155246,0.580568,-11.647733,-5.393624,1.429113,-5.752747,1.429662,-0.655348,41.221041,3.393617,20.786654,4635728888331239400.000000,0.622222,0.375235,0.670635,-0.149287,6
-2.011189,1.359607,-0.552754,-2.143391,-0.377899,0.650618,41.303866,-20.029704,-7.441305,4635731250563252200.000000,0.784990,-0.149713,0.471922,0.372378,-4.151907,-1.639468,1.202676,-4.035031,-1.502570,-3.027440,44.867430,-1.019899,-10.631030,4635727384555814900.000000,0.379607,-0.705987,0.134219,0.582637,-12.223728,-8.076454,3.589798,-5.607994,1.324370,-0.467971,40.670246,2.589793,21.478021,4635728888331239400.000000,0.626778,0.360083,0.678134,-0.132755,6
-2.225271,2.076325,-0.380969,-2.241942,-0.525751,0.585252,41.257826,-20.093386,-7.947840,4635731250563252200.000000,0.783645,-0.155076,0.467133,0.378998,-1.614407,-1.529365,-1.638017,-3.986772,-1.292265,-2.918615,44.904070,0.396111,-11.325104,4635727384555814900.000000,0.375592,-0.710595,0.113899,0.583963,-13.591597,-6.870650,5.892395,-5.320987,1.210637,-0.244942,40.375431,1.772359,22.074274,4635728888331239400.000000,0.631003,0.346051,0.684472,-0.116546,6
-2.616090,2.518356,-0.268488,-2.342068,-0.509674,0.591528,41.172389,-20.038341,-8.362669,4635731250563252200.000000,0.782113,-0.160763,0.462194,0.385785,0.190201,-2.765951,-7.145227,-3.566360,-1.012890,-2.665620,44.597107,1.602738,-11.781916,4635727384555814900.000000,0.371924,-0.714814,0.095741,0.584420,-14.217193,-5.738539,6.991470,-4.928376,1.142985,-0.079569,40.400959,0.822030,22.632498,4635728888331239400.000000,0.634630,0.333326,0.689873,-0.101062,6
-3.318528,2.465608,-0.201314,-2.383872,-0.377898,0.661575,41.077769,-19.965101,-8.900058,4635731250563252200.000000,0.780104,-0.166644,0.457616,0.392753,0.939939,-3.731932,-13.331908,-2.730995,-0.793492,-2.361996,44.304170,2.690805,-11.862107,4635727384555814900.000000,0.369807,-0.717937,0.080832,0.584187,-14.146148,-6.328632,7.584460,-4.366445,1.118772,0.030549,40.314428,-0.119771,23.022395,4635728888331239400.000000,0.637339,0.322262,0.694547,-0.086894,6
-4.323000,2.068473,0.211349,-2.374998,-0.251376,0.772447,40.805812,-20.011111,-9.476840,4635731250563252200.000000,0.777594,-0.172473,0.453490,0.399934,2.103204,-4.119137,-17.538683,-1.687484,-0.608075,-1.981859,44.368685,3.995355,-11.970235,4635727200478424100.000000,0.369759,-0.719646,0.069870,0.583529,-14.331415,-6.146989,7.978424,-3.791407,1.108196,0.101109,39.950090,-1.058921,23.354533,4635728855834217500.000000,0.639132,0.312826,0.698674,-0.074188,6
-5.544028,1.485336,0.928911,-2.291557,-0.225385,0.907330,40.540426,-20.224992,-9.821251,4635731250563252200.000000,0.774786,-0.177801,0.449636,0.407334,3.538478,-6.203227,-20.508582,-0.595512,-0.362394,-1.477222,44.302406,4.835915,-12.249273,4635727169807450100.000000,0.371656,-0.720062,0.063448,0.582543,-14.737954,-6.016155,8.176713,-3.290109,1.058063,0.145845,39.616395,-1.892395,23.752960,4635728673582874600.000000,0.640278,0.304767,0.702288,-0.062869,6
-6.951069,0.899504,1.471632,-2.149167,-0.338809,1.077743,40.470576,-20.536358,-10.172341,4635731250563252200.000000,0.771926,-0.182137,0.445737,0.415060,3.203604,-6.208357,-21.748311,0.593676,-0.203108,-0.958460,44.141978,5.153256,-12.554427,4635727169807450100.000000,0.375808,-0.718861,0.061715,0.581549,-15.104252,-5.423462,8.262245,-2.847643,0.983231,0.173848,39.409595,-2.513517,24.056293,4635728673582874600.000000,0.640971,0.297896,0.705422,-0.052852,6
-8.440395,0.133161,1.926328,-1.952557,-0.495568,1.285542,40.339133,-20.755884,-10.624135,4635731250563252200.000000,0.769069,-0.185165,0.441787,0.423167,-0.653215,-4.991316,-14.857816,1.616243,-0.227507,-0.492647,44.190785,5.114917,-12.587579,4635727169807450100.000000,0.381886,-0.715854,0.063814,0.581072,-15.108360,-5.174218,7.991150,-2.419438,0.900122,0.172243,39.275327,-3.013553,24.351085,4635728673582874600.000000,0.641289,0.292105,0.708146,-0.044193,6
-9.868403,-0.935312,2.689773,-1.726102,-0.515883,1.501554,40.049022,-20.929808,-11.164378,4635731250563252200.000000,0.765970,-0.187014,0.438295,0.431524,-8.553174,-8.093179,0.042225,1.997107,-0.486745,-0.386979,44.203007,5.102695,-12.669532,4635727169807450100.000000,0.388889,-0.711540,0.066734,0.581397,-15.048331,-4.755474,7.624214,-2.058023,0.799503,0.126001,39.141046,-3.624342,24.656270,4635728673582874600.000000,0.641390,0.287097,0.710519,-0.036841,6
-11.556499,-2.367061,4.473529,-1.501543,-0.336985,1.695648,39.655239,-21.229095,-11.579172,4635731250563252200.000000,0.762299,-0.188096,0.435888,0.439912,-29.872724,-9.218219,23.149791,1.451120,-1.288492,-1.040244,43.993779,5.175925,-13.101948,4635727077790841900.000000,0.396048,-0.706293,0.065092,0.583146,-15.328966,-4.387995,7.153380,-1.769815,0.658000,0.045605,39.004922,-4.063509,24.930075,4635728673582874600.000000,0.641505,0.282580,0.712514,-0.030723,6
-13.421315,-4.544097,5.625597,-1.431026,-0.178749,1.793504,39.249359,-21.754314,-11.862859,4635731250563252200.000000,0.758146,-0.189047,0.434150,0.448318,-27.380748,7.099352,17.303429,-0.004126,-1.169981,-1.502806,43.885632,5.617055,-13.684386,4635727246462797800.000000,0.399987,-0.703809,0.058744,0.584133,-15.953534,-4.457527,6.423505,-1.496258,0.494789,-0.052515,38.844056,-4.312287,24.986057,4635728673582874600.000000,0.641736,0.278467,0.714116,-0.025870,6
-14.396345,-7.092413,3.386891,-1.500594,-0.241548,1.808104,38.773195,-22.276030,-12.265904,4635731250563252200.000000,0.753955,-0.190055,0.432054,0.456904,-14.865925,7.359866,-0.843892,-1.007855,-0.676847,-1.746534,43.852484,6.190787,-13.947791,4635727277181632500.000000,0.401428,-0.704208,0.050057,0.583473,-16.341453,-4.583684,5.197023,-1.214746,0.340679,-0.181929,38.618226,-4.634434,24.844405,4635728673582874600.000000,0.642062,0.274696,0.715400,-0.022378,6
-14.856843,-7.831185,1.191228,-1.481991,-0.209262,1.662893,38.401073,-22.657319,-12.653380,4635731250563252200.000000,0.749927,-0.191309,0.429940,0.464933,-15.492071,-5.584985,-5.182381,-0.277248,-0.542792,-1.622722,43.556116,6.776682,-13.904257,4635727277181632500.000000,0.404659,-0.703639,0.043730,0.582435,-15.490450,-3.990860,3.846710,-1.052017,0.260353,-0.357428,38.522694,-4.807889,24.924450,4635728673582874600.000000,0.642409,0.270823,0.716637,-0.019931,6
-15.733536,-5.954165,1.713656,-1.421899,0.005383,1.391974,38.199827,-22.861605,-12.882082,4635731250563252200.000000,0.746029,-0.193260,0.428364,0.471800,-15.583783,-9.038057,-0.215269,0.709303,-0.402144,-1.399216,43.141139,7.425318,-14.163945,4635727093199951900.000000,0.410195,-0.701673,0.040687,0.581154,-13.860799,-2.732346,2.534937,-1.135883,0.251607,-0.586309,38.691241,-4.746342,25.257904,4635728673582874600.000000,0.642840,0.266035,0.718097,-0.017855,6
-16.211739,-2.700275,2.313687,-1.309681,0.030120,1.123954,38.096164,-23.093624,-12.991819,4635731169919895600.000000,0.742659,-0.195377,0.426844,0.477587,-13.101210,-7.539599,1.590096,0.968307,-0.490085,-1.304842,43.069466,7.885843,-14.627798,4635727154433302500.000000,0.416255,-0.699002,0.038397,0.580219,-12.415402,-2.081508,1.292637,-1.421899,0.290766,-0.821482,38.835909,-4.766867,25.397109,4635728673582874600.000000,0.643429,0.259770,0.719916,-0.015508,6
-16.898907,0.268279,1.359748,-1.188464,-0.096818,1.026714,37.891537,-23.349964,-13.150607,4635731304462952400.000000,0.739773,-0.197029,0.425073,0.482938,-8.554643,-8.150518,1.390113,0.723600,-0.560594,-1.177474,43.140920,8.093420,-14.865029,4635727169807450100.000000,0.421288,-0.696533,0.035762,0.579723,-11.202194,-2.466165,0.102044,-1.754821,0.371220,-1.033247,38.874600,-4.881140,25.336860,4635728673582874600.000000,0.644083,0.251966,0.722157,-0.012642,6
-18.129224,4.181840,-0.361766,-1.181398,0.094004,0.764760,37.583247,-23.597130,-13.324534,4635731357937434600.000000,0.737053,-0.199499,0.423672,0.487294,-4.483619,-9.325923,0.776331,0.393837,-0.751424,-0.935508,42.431565,8.745406,-14.997613,4635727169807450100.000000,0.424795,-0.694124,0.032697,0.580235,-10.053434,-2.551857,-0.607778,-2.108416,0.485078,-1.220532,38.685517,-4.807898,25.453218,4635728673582874600.000000,0.644697,0.242634,0.724853,-0.009092,6
-21.200993,6.853071,-1.615257,-1.378909,0.795352,0.561187,37.565298,-23.722103,-13.440427,4635731357937434600.000000,0.733313,-0.204349,0.423838,0.490770,-3.552537,-10.971974,-0.550460,0.212476,-0.928300,-0.606396,41.149993,9.990317,-15.307937,4635727169807450100.000000,0.426995,-0.691546,0.029832,0.581851,-9.262366,-1.989568,-0.915270,-2.491096,0.623127,-1.413439,38.400867,-4.748680,25.632161,4635728632478393300.000000,0.645190,0.231666,0.728037,-0.004763,6
-26.231726,7.183855,-1.843281,-1.717055,1.962078,0.574182,37.769888,-23.679246,-13.327295,4635731357937434600.000000,0.727134,-0.212578,0.426850,0.493848,-7.559091,-10.936265,-1.687532,0.172746,-1.219964,-0.291312,40.600300,10.536513,-15.942505,4635727169807450100.000000,0.428343,-0.688274,0.027259,0.584857,-8.485783,-1.761254,-1.225646,-2.823952,0.778117,-1.598705,38.282417,-4.779052,25.739689,4635728479384284200.000000,0.645420,0.219205,0.731698,0.000230,6
-30.157892,4.724927,-2.995028,-2.010456,2.160209,0.866810,37.959050,-23.593795,-13.135019,4635731357937434600.000000,0.719635,-0.221551,0.430056,0.498089,-13.175602,-8.295719,-2.909911,0.010631,-1.444936,-0.058258,40.979972,10.240495,-16.448343,4635727169807450100.000000,0.428670,-0.684695,0.024557,0.588924,-7.794381,-1.630382,-1.562432,-3.049560,0.940757,-1.755438,38.268406,-4.937733,25.818659,4635728566208692200.000000,0.645223,0.205614,0.735785,0.005639,6
-30.612769,0.943447,-4.939264,-2.068727,0.560742,1.124104,37.754229,-23.764932,-13.223790,4635731357937434600.000000,0.714318,-0.226887,0.428526,0.504617,-17.034361,-5.623814,-3.036189,-0.305153,-1.612357,0.054729,41.053497,9.971839,-16.673469,4635727169807450100.000000,0.427820,-0.681228,0.021102,0.593678,-7.344302,-1.289222,-2.199228,-3.164837,1.094208,-1.887899,38.136782,-5.115110,25.877037,4635728566208692200.000000,0.644499,0.191253,0.740215,0.011177,6
-28.291870,-1.771519,-5.759097,-1.991232,-1.602534,1.198478,37.351334,-24.021280,-13.764262,4635731357937434600.000000,0.712695,-0.227284,0.420739,0.513212,-17.970715,-5.981071,-2.494204,-0.490786,-1.799094,0.103126,40.342520,10.355048,-17.212048,4635727169807450100.000000,0.426316,-0.677589,0.016991,0.599032,-6.662099,-0.327321,-3.083877,-3.230377,1.242631,-1.973628,37.802724,-5.352781,26.179879,4635728566208692200.000000,0.643201,0.176396,0.744912,0.016804,6
-25.264342,-3.058554,-4.970719,-2.002540,-3.095218,1.202465,36.869096,-24.094370,-14.872461,4635731357937434600.000000,0.713529,-0.224469,0.408415,0.523151,-17.446588,-7.745188,-1.693896,-0.497312,-1.959185,0.226966,39.742449,10.425122,-17.967031,4635727169807450100.000000,0.424469,-0.673507,0.012929,0.605018,-5.538225,1.170279,-3.903489,-3.200345,1.398220,-2.022208,37.656250,-5.481124,26.472828,4635728566208692200.000000,0.641222,0.161409,0.749856,0.022319,6
-21.944020,-3.909863,-3.154520,-2.216552,-3.618768,1.195253,36.295340,-24.179874,-16.193845,4635731277348820000.000000,0.714858,-0.221093,0.393941,0.533767,-18.904376,-8.250254,0.704233,-0.444242,-2.129601,0.388526,40.320460,9.505164,-18.716863,4635727169807450100.000000,0.422340,-0.668840,0.009150,0.611717,-4.025548,3.244699,-4.796446,-3.092491,1.559388,-2.018783,37.463079,-5.483458,26.784485,4635728566208692200.000000,0.638485,0.146661,0.755027,0.027610,6
-18.382506,-3.894012,-0.202812,-2.666892,-3.147999,1.141014,35.578092,-24.408840,-17.600752,4635731250563252200.000000,0.708855,-0.224285,0.377245,0.552184,-21.747726,-7.933395,2.978608,-0.373604,-2.324591,0.449808,40.953613,8.786363,-19.304694,4635727169807450100.000000,0.420222,-0.663487,0.005379,0.619008,-2.372024,6.446206,-5.664640,-3.057898,1.673303,-1.986544,37.060739,-5.526019,27.214843,4635728566208692200.000000,0.635185,0.132053,0.760274,0.032942,6
-15.218042,-3.793432,3.203154,-2.862415,-1.712188,0.973782,35.004469,-24.301769,-18.983210,4635731250563252200.000000,0.706545,-0.227229,0.366546,0.561075,-24.292279,-7.392955,5.365615,-0.289087,-2.531477,0.516463,40.894955,8.838007,-20.054323,4635727169807450100.000000,0.418124,-0.657377,0.001646,0.626917,-0.648469,10.129535,-6.100287,-3.188227,1.684676,-1.886717,36.609119,-5.696902,27.791934,4635728566208692200.000000,0.631727,0.117378,0.765262,0.038950,6
-12.935939,-3.875902,3.698638,-3.057403,-0.159587,0.804515,34.739141,-23.932440,-19.773192,4635731250563252200.000000,0.701935,-0.234594,0.359731,0.568196,-28.702278,-4.709588,6.204327,-0.176961,-2.683973,0.554034,40.316408,8.789408,-20.919202,4635727169807450100.000000,0.416186,-0.650591,-0.001956,0.635230,0.366769,12.947870,-6.172828,-3.338313,1.601893,-1.653865,36.155158,-5.912101,28.228873,4635728566208692200.000000,0.628386,0.103031,0.769675,0.045999,6
-11.822556,-3.613239,1.305011,-3.299070,0.780574,0.607694,34.748403,-23.526561,-20.160650,4635731250563252200.000000,0.696014,-0.245140,0.354833,0.574077,-33.323302,1.224710,6.579445,-0.225150,-2.702721,0.393121,39.815801,8.494942,-21.871204,4635727169807450100.000000,0.414489,-0.643751,-0.006155,0.643230,0.361699,14.862887,-5.961455,-3.391284,1.465665,-1.305139,35.754249,-6.328928,28.446270,4635728586719814700.000000,0.625264,0.089663,0.773358,0.054062,6
-11.465723,-3.286724,-1.722425,-3.519095,0.904421,0.427994,34.638439,-22.986312,-20.468882,4635731250563252200.000000,0.689962,-0.256832,0.349506,0.579513,-36.127597,5.586447,5.270162,-0.371384,-2.819450,0.060829,39.193471,8.583369,-22.929520,4635727169807450100.000000,0.413232,-0.636755,-0.011838,0.650878,0.805714,17.074976,-5.160938,-3.275294,1.308265,-0.861579,35.619980,-6.821285,28.688736,4635728673582874600.000000,0.622350,0.078040,0.776300,0.062835,6
-10.726898,-3.082303,-3.549860,-3.716963,0.291831,0.309456,34.650742,-22.354556,-21.012235,4635731411708280800.000000,0.684716,-0.267724,0.341732,0.585412,-35.202492,12.038044,0.516495,-0.791927,-2.853768,-0.350675,38.609129,8.815234,-23.753045,4635727169807450100.000000,0.411914,-0.630274,-0.019810,0.657791,2.351302,19.131265,-4.225861,-2.918454,1.182157,-0.387622,35.439085,-7.396810,29.065389,4635728673582874600.000000,0.619478,0.068894,0.778697,0.071631,6
-10.315183,-4.688302,-2.120322,-3.999239,-0.066023,0.299355,34.833892,-21.698462,-21.634757,4635731465311617000.000000,0.679520,-0.278486,0.332153,0.591923,-32.311300,17.100673,-4.225475,-1.332422,-2.620326,-0.792520,38.171274,8.996663,-24.544702,4635727169807450100.000000,0.410343,-0.625224,-0.030021,0.663184,4.991480,21.582012,-3.655455,-2.543106,1.113836,0.072283,35.076977,-8.003615,29.361801,4635728673582874600.000000,0.616487,0.062220,0.780778,0.080367,6
-10.611414,-7.902201,2.082661,-3.906422,0.512671,0.442263,34.879601,-21.158346,-22.092457,4635731465311617000.000000,0.673095,-0.290136,0.324518,0.597873,-26.218611,19.426753,-6.399892,-1.407520,-2.154568,-1.060550,37.536792,9.658688,-25.170979,4635727169807450100.000000,0.409316,-0.621463,-0.040336,0.666797,9.157677,24.116337,-2.427778,-2.311918,1.070132,0.443359,34.798001,-8.533791,29.532038,4635728673582874600.000000,0.613376,0.057355,0.782629,0.089283,6
-11.243203,-10.905024,6.150511,-3.160401,0.991605,0.605949,34.812440,-20.795226,-22.431190,4635731465311617000.000000,0.666352,-0.300601,0.320203,0.602565,-19.908749,19.044433,-8.262253,-0.812437,-1.943910,-1.220115,37.001228,10.330194,-25.685546,4635727169807450100.000000,0.410261,-0.617171,-0.049048,0.669612,14.825857,26.118845,0.021303,-2.150420,1.163104,0.795177,34.564294,-9.288405,29.567538,4635728673582874600.000000,0.609722,0.054010,0.784604,0.098584,6
-11.917598,-12.103759,4.403173,-2.568809,0.197930,0.787793,34.846047,-20.532808,-22.950024,4635731465311617000.000000,0.660844,-0.307139,0.315346,0.607871,-17.575522,19.163544,-13.976494,-0.463787,-1.843735,-1.647101,36.352744,11.135601,-26.112860,4635727169807450100.000000,0.413272,-0.612409,-0.057708,0.671439,18.244734,25.662924,1.771418,-2.104546,1.076425,1.029960,34.227071,-10.196310,29.680855,4635728673582874600.000000,0.606174,0.051579,0.786233,0.108302,6
-11.755663,-12.497375,2.175704,-2.139705,-0.984743,1.050032,34.736140,-20.352770,-23.471860,4635731465311617000.000000,0.656706,-0.309114,0.308622,0.614767,-16.300161,25.899415,-29.729193,-1.769449,-1.722930,-2.818885,35.597765,12.038826,-26.454768,4635727169807450100.000000,0.416187,-0.609844,-0.072792,0.670508,21.158943,25.516910,5.025693,-2.148674,1.066435,1.366914,33.730146,-10.946718,29.688975,4635728673582874600.000000,0.602442,0.050141,0.787648,0.118999,6
-10.034357,-10.998745,4.260586,-1.941618,-1.299937,1.272176,34.253937,-20.129994,-23.954006,4635731465311617000.000000,0.652589,-0.309413,0.301795,0.622343,-16.052852,22.879831,-40.490924,-4.085065,-1.279712,-4.260660,35.037710,13.309476,-26.606739,4635727169807450100.000000,0.417200,-0.611827,-0.097206,0.664953,2.363991,19.094739,4.576953,-2.252478,-0.033152,1.973941,33.354080,-11.913967,29.646555,4635728673582874600.000000,0.601952,0.050973,0.786011,0.131314,6
-7.409810,-8.175817,9.012272,-2.410563,-0.598936,1.425714,33.787027,-19.949944,-24.585732,4635731465311617000.000000,0.646498,-0.312573,0.295814,0.629946,-17.879119,12.162623,-32.586184,-5.694849,-1.187966,-5.901029,34.178513,15.914538,-26.279611,4635726986035628000.000000,0.418313,-0.615640,-0.130010,0.655056,-42.275247,18.847923,0.356065,-1.103177,0.059872,3.542900,32.962279,-13.259076,29.739000,4635728673582874600.000000,0.599936,0.059767,0.784747,0.143793,6
-4.882888,-5.825920,15.360167,-2.881074,0.569360,1.483391,33.561199,-19.846184,-24.976356,4635731384777758700.000000,0.638093,-0.319946,0.291769,0.636666,-24.268186,-3.031799,-20.981094,-6.776950,-1.305219,-7.910367,32.970584,19.172861,-25.626121,4635726955059085300.000000,0.421425,-0.618975,-0.170918,0.640358,-107.321810,-10.906775,-29.679784,0.221167,1.594234,2.040067,32.480424,-14.372181,30.008122,4635728673582874600.000000,0.593368,0.066028,0.788346,0.148541,6
-2.881058,-2.908605,15.521835,-2.508049,1.170133,1.551213,33.521530,-19.824823,-24.903114,4635731357937434600.000000,0.629163,-0.327777,0.290350,0.642194,-32.961344,-11.672033,-17.668517,-7.220801,-0.845693,-9.035020,31.201243,23.059422,-24.543726,4635726955059085300.000000,0.425829,-0.622201,-0.214736,0.620826,-49.149056,-29.861738,-21.708448,-0.421507,0.370368,0.876626,32.110128,-14.504130,30.001731,4635728673582874600.000000,0.591676,0.067633,0.788788,0.152177,6
0.128178,1.678518,9.503464,-1.801164,-0.030976,1.555223,33.265174,-19.898067,-25.211340,4635731357937434600.000000,0.622555,-0.330491,0.287640,0.648432,-40.865837,-8.597752,-18.502750,-7.364106,-0.667000,-9.179806,29.136972,26.892461,-23.062079,4635726955059085300.000000,0.429389,-0.624538,-0.258473,0.598973,32.093574,-9.596983,0.587630,-2.182984,0.830370,2.698023,31.885166,-15.040611,29.939526,4635728673582874600.000000,0.587744,0.070582,0.788639,0.166202,6
6.194840,8.700366,2.475466,-1.890600,-1.750057,1.725312,32.740290,-19.995721,-26.126832,4635731357937434600.000000,0.617343,-0.328545,0.280425,0.657501,-46.608428,-7.323711,-24.591001,-6.446696,-0.993231,-9.027188,26.901549,30.335528,-21.607533,4635726955059085300.000000,0.433629,-0.623162,-0.299520,0.577861,-7.465484,-1.704352,3.080989,-2.818215,0.019187,2.116192,31.641075,-16.428652,29.938971,4635728673582874600.000000,0.586939,0.070612,0.786063,0.180616,6
12.493183,16.634195,3.151984,-2.409105,-0.441028,1.565156,32.410698,-20.020142,-26.676160,4635731357937434600.000000,0.610236,-0.331653,0.274893,0.664870,-42.427730,5.317749,-24.604881,-5.529767,-0.870097,-8.472108,24.308936,33.288730,-20.156615,4635726955059085300.000000,0.438215,-0.619891,-0.336108,0.557436,-0.018492,21.157505,6.839593,-1.573658,0.833377,1.774142,31.189402,-17.579727,29.815125,4635728673582874600.000000,0.583263,0.071943,0.786387,0.190326,6
9.648647,19.061692,0.184620,-3.248493,1.090198,1.120636,32.404530,-19.837104,-26.779987,4635731357937434600.000000,0.601337,-0.341583,0.270266,0.669829,-31.430007,16.884830,-21.055830,-4.387389,-0.252953,-7.372245,22.036406,35.605187,-18.933968,4635726955059085300.000000,0.443393,-0.616558,-0.365563,0.538166,-1.849130,31.713839,-3.057109,-0.469358,0.971288,1.242392,30.735415,-18.210442,29.858125,4635728673582874600.000000,0.579180,0.074101,0.788019,0.195153,6
-2.333085,16.777091,-2.758132,-4.146524,1.065094,0.909299,32.596742,-19.153690,-27.112498,4635731518927838200.000000,0.591615,-0.353833,0.262696,0.675119,-27.895887,19.160748,-18.959470,-3.678731,-0.151986,-6.392839,20.119322,37.398731,-17.822986,4635726955059085300.000000,0.447859,-0.612950,-0.390321,0.520926,5.304769,1.155974,-6.396244,0.261268,0.850632,1.322872,30.273900,-18.727812,30.015017,4635728673582874600.000000,0.575177,0.078382,0.789893,0.197729,6
-11.329109,12.901523,0.202923,-4.400755,-0.077522,0.848123,32.453471,-18.332738,-27.753297,4635731572685799400.000000,0.582741,-0.363442,0.251417,0.681991,-26.293751,17.385236,-14.639261,-3.259855,-0.073090,-5.772743,18.261842,38.629311,-16.557113,4635726955059085300.000000,0.451797,-0.609218,-0.412108,0.504877,-3.285709,-4.862124,-9.203002,0.364769,1.018470,1.347932,29.831514,-18.994720,30.301627,4635728673582874600.000000,0.570539,0.082852,0.792208,0.200068,6
-13.077227,7.632006,3.429132,-4.287348,-0.942081,0.493143,32.194083,-17.569818,-28.543617,4635731572685799400.000000,0.575760,-0.370564,0.237740,0.688957,-24.571496,14.967289,-12.094546,-2.714756,-0.167621,-5.281800,16.479753,39.766150,-15.493075,4635726955059085300.000000,0.455615,-0.604686,-0.431396,0.490579,-19.975280,9.909710,-7.121331,-0.831694,0.782952,1.405329,29.405462,-19.103839,30.511469,4635728673582874600.000000,0.567012,0.084859,0.792903,0.206401,6
-12.793512,1.730039,5.998807,-3.944851,-0.668662,0.172362,32.047536,-16.834339,-29.352338,4635731492203483100.000000,0.569782,-0.377854,0.225134,0.694182,-23.356491,11.291728,-11.090977,-1.869916,-0.491023,-4.562943,14.782653,40.985052,-14.728632,4635726955059085300.000000,0.459276,-0.598869,-0.447536,0.479722,-16.505867,4.548016,-3.024916,-1.035829,0.624089,1.402928,28.906120,-19.703056,30.656925,4635728673582874600.000000,0.564052,0.086508,0.793001,0.213334,6
-12.012585,-2.402960,5.155637,-3.618513,-0.455878,-0.080513,31.946827,-15.973875,-29.874337,4635731465311617000.000000,0.564709,-0.385125,0.213524,0.697989,-21.272943,8.997120,-10.535938,-1.641501,-0.609310,-3.757876,13.317433,41.716731,-14.238156,4635726955059085300.000000,0.461513,-0.593662,-0.461275,0.470953,-7.637301,5.725095,-3.414037,-0.879872,0.493545,1.408145,28.545650,-20.383239,30.467458,4635728673582874600.000000,0.561431,0.088653,0.792884,0.219705,6
-18.229903,-5.168402,3.720923,-3.343721,1.438438,-0.246129,32.105331,-14.997365,-30.027125,4635731465311617000.000000,0.558733,-0.397322,0.206850,0.697972,-18.995731,9.591229,-12.152932,-2.047580,-0.700064,-3.091265,12.045930,42.008706,-13.692582,4635726955059085300.000000,0.461138,-0.590179,-0.474210,0.462780,-8.283712,8.856906,-2.811183,-0.888501,0.273268,1.365649,28.332276,-20.942446,30.289388,4635728673582874600.000000,0.559553,0.090836,0.792220,0.225913,6
-25.144203,-9.000909,-1.214729,-3.143378,1.330581,0.189028,32.468447,-14.179262,-29.923473,4635731465311617000.000000,0.551799,-0.408277,0.201186,0.698822,-16.911331,11.443099,-11.113564,-2.394148,-0.905343,-2.327832,11.009580,42.376352,-12.723922,4635726955059085300.000000,0.457930,-0.588340,-0.486224,0.455788,-6.547625,4.420423,-1.079774,-0.665896,0.327856,1.378860,28.165541,-21.463898,30.478343,4635728673582874600.000000,0.557372,0.093527,0.791853,0.231427,6
-25.316294,-12.358073,-4.359749,-2.719289,-1.766723,0.600619,32.432135,-13.559735,-30.267934,4635731465311617000.000000,0.546901,-0.408807,0.190311,0.705378,-13.639457,10.489197,-8.509149,-2.632515,-1.085792,-1.360315,10.280063,42.850453,-11.842969,4635726955059085300.000000,0.451848,-0.588462,-0.496571,0.450515,-5.691545,1.661168,-3.822727,-0.610682,0.342641,1.410959,27.797728,-21.869071,30.500078,4635728673582874600.000000,0.555067,0.096434,0.791526,0.236828,6
-18.128073,-11.522211,-0.660048,-2.360286,-3.668215,0.886645,31.453235,-13.123228,-31.347736,4635731465311617000.000000,0.543144,-0.402596,0.176597,0.715350,-9.941215,7.773574,-6.362612,-2.416610,-1.329153,-0.109542,9.878280,43.349178,-11.071967,4635726955059085300.000000,0.443376,-0.590218,-0.503829,0.448571,-8.831885,3.126493,-5.526737,-0.630346,0.303063,1.442387,27.195379,-22.295754,30.183161,4635728673582874600.000000,0.552846,0.099434,0.791041,0.242341,6
-8.930014,-8.727322,3.436968,-2.059328,-2.499766,0.936248,30.391022,-12.842356,-32.388628,4635731465311617000.000000,0.538727,-0.399045,0.166451,0.723070,-7.134709,5.657942,-4.313538,-1.950720,-1.657505,1.257962,10.171405,43.567861,-10.555176,4635726955059085300.000000,0.432744,-0.593291,-0.507393,0.450878,-9.704408,4.049858,-4.974278,-0.810933,0.269645,1.491612,26.808072,-22.815841,30.094045,4635728673582874600.000000,0.550733,0.102211,0.790238,0.248537,6
-5.881669,-8.053748,3.611092,-1.824563,0.137166,1.025590,30.140079,-12.598231,-32.712705,4635731465311617000.000000,0.532520,-0.402798,0.163051,0.726354,-5.080655,5.266880,-2.753268,-1.535470,-1.933399,2.516540,10.793442,43.592636,-10.141714,4635726955059085300.000000,0.420114,-0.597650,-0.507474,0.456934,-9.478981,5.138536,-4.786244,-1.082690,0.233061,1.543054,26.700690,-23.495992,30.229708,4635728673582874600.000000,0.548773,0.104566,0.789002,0.255715,6
-8.913968,-9.361694,1.174284,-1.628545,1.409621,1.187106,30.441886,-12.290070,-32.685382,4635731465311617000.000000,0.525234,-0.409821,0.163320,0.727669,-4.515724,6.094540,-2.069498,-1.134801,-2.186401,3.704171,11.807415,43.248232,-9.895458,4635726955059085300.000000,0.405569,-0.603169,-0.504137,0.466419,-9.134243,5.680696,-4.166164,-1.305921,0.153803,1.561726,26.363070,-24.043617,30.040270,4635728714347443200.000000,0.547113,0.106550,0.787286,0.263618,6
-12.973266,-9.954960,-2.176193,-1.438415,0.656324,1.351343,30.597797,-12.079364,-32.667011,4635731384867956700.000000,0.518240,-0.413996,0.162783,0.730436,-5.636773,7.156376,-0.862688,-0.820091,-2.347007,4.802113,13.236482,42.709725,-9.759219,4635726955059085300.000000,0.389171,-0.609893,-0.497489,0.478625,-8.961104,6.862442,-3.320554,-1.377150,0.101989,1.568003,25.859234,-24.559659,29.774049,4635728888331239400.000000,0.545609,0.108442,0.785313,0.271726,6
-13.983561,-8.501036,-4.030437,-1.241083,-0.839355,1.456616,30.314361,-12.164539,-32.950527,4635731518824755200.000000,0.512246,-0.413088,0.159788,0.735819,-7.838664,8.147037,-0.306181,-0.773804,-2.273125,5.736429,14.871723,42.210852,-9.793683,4635726955059085300.000000,0.370950,-0.618264,-0.487963,0.491973,-9.217408,6.510257,-2.608622,-1.302342,0.089188,1.555371,25.282978,-25.240765,29.536221,4635728888331239400.000000,0.544087,0.110471,0.783343,0.279535,6
-11.648675,-6.221803,-3.132671,-1.042157,-1.569241,1.498320,29.893264,-12.399439,-33.466089,4635731572685799400.000000,0.506916,-0.409452,0.155906,0.742346,-10.693751,7.902739,-0.056321,-0.930383,-2.070735,6.565972,17.095381,41.597347,-9.844284,4635726955059085300.000000,0.350757,-0.628510,-0.475944,0.505393,-9.052855,5.959363,-3.088288,-1.236990,0.045854,1.558943,24.948561,-26.073347,29.372902,4635728888331239400.000000,0.542634,0.112703,0.781294,0.287099,6
-9.255210,-3.368996,-1.149449,-0.852289,-0.990763,1.398605,29.539171,-12.408894,-33.826442,4635731572685799400.000000,0.501801,-0.407236,0.153649,0.747494,-12.007904,7.482369,-0.160067,-1.303105,-1.841876,7.398471,19.216526,40.670387,-9.809635,4635726771493430300.000000,0.327959,-0.640842,-0.461752,0.518218,-9.293549,7.336008,-4.050173,-1.285332,-0.039128,1.544125,24.783596,-26.661745,29.155129,4635728847639091200.000000,0.541462,0.114872,0.778948,0.294727,6
-8.633798,-1.094629,-0.375714,-0.688580,0.156571,1.195752,29.337604,-12.326512,-33.753669,4635731572685799400.000000,0.496832,-0.408361,0.153946,0.750133,-11.668196,8.486325,-1.007363,-1.898695,-1.611180,8.241894,21.585485,39.485222,-9.750377,4635726648538905600.000000,0.301811,-0.655362,-0.445745,0.529832,-8.223520,7.397045,-5.240605,-1.398331,-0.065786,1.493562,24.511690,-27.070887,28.809725,4635728673582874600.000000,0.540454,0.116647,0.776371,0.302573,6
-10.087342,0.264319,-1.161537,-0.533435,0.878771,0.966916,29.361768,-12.487917,-33.622354,4635731411850020900.000000,0.492360,-0.411555,0.155827,0.750948,-12.930729,9.783625,-2.879432,-2.686516,-1.331166,8.916068,24.430275,38.128870,-9.428508,4635726632936538100.000000,0.272118,-0.671815,-0.428660,0.539320,-6.565394,7.844330,-7.103163,-1.561832,-0.051215,1.399241,24.134939,-27.586927,28.514057,4635728673582874600.000000,0.539558,0.117723,0.773609,0.310721,6
-13.134641,-0.127229,-1.946389,-0.404954,1.077944,0.714596,29.575218,-12.796065,-33.512490,4635731357937434600.000000,0.488752,-0.415259,0.158080,0.750794,-14.682850,10.422082,-5.239729,-3.444912,-1.073806,9.298309,27.139177,36.592934,-9.072718,4635726632936538100.000000,0.239459,-0.689292,-0.411223,0.546289,-7.282221,9.499956,-7.657244,-1.877204,-0.062825,1.287161,23.819890,-28.281754,28.017857,4635728673582874600.000000,0.538954,0.117735,0.770404,0.319602,6
-15.580328,-2.045218,-2.687804,-0.220540,0.877285,0.523851,29.703567,-12.878811,-33.201516,4635731357937434600.000000,0.486181,-0.418073,0.160169,0.750459,-15.244429,11.082634,-7.135127,-4.419174,-0.885627,9.439566,29.760433,34.393951,-8.290936,4635726632936538100.000000,0.203567,-0.707159,-0.394669,0.550202,-9.408497,9.468482,-8.554268,-2.215615,-0.106740,1.215116,23.526263,-29.201567,27.396941,4635728673582874600.000000,0.538700,0.116803,0.766607,0.329353,6
-15.985794,-4.093270,-3.301446,0.013601,0.443310,0.394550,29.843863,-12.814822,-32.960217,4635731357937434600.000000,0.484707,-0.419137,0.161884,0.750451,-17.111061,11.724451,-8.732995,-5.457233,-0.680036,9.558392,32.153475,32.149582,-7.102678,4635726632936538100.000000,0.164275,-0.725155,-0.379184,0.550802,-12.419974,9.889737,-7.579576,-2.440155,-0.169380,1.207822,23.314480,-29.985136,26.819234,4635728673582874600.000000,0.538701,0.115416,0.762273,0.339736,6
-14.909905,-6.354249,-2.939718,0.311529,0.211400,0.353309,30.066548,-12.912195,-32.984290,4635731357937434600.000000,0.484035,-0.418899,0.163990,0.750560,-19.798435,9.907731,-9.544420,-6.007734,-0.533510,9.733858,34.655509,29.915665,-5.690635,4635726082394198000.000000,0.122787,-0.742550,-0.363505,0.549005,-15.149546,8.610498,-6.208239,-2.510637,-0.196537,1.264953,23.192728,-30.762367,26.153823,4635728673582874600.000000,0.538670,0.114078,0.757649,0.350412,6
-13.485021,-7.302436,-2.177041,0.657232,0.372426,0.301304,30.073036,-13.143975,-32.926568,4635731357937434600.000000,0.484010,-0.418501,0.167406,0.750044,-22.393686,6.641372,-9.852461,-5.831026,-0.506478,10.029063,37.192612,26.972656,-4.490214,4635725896945396700.000000,0.080927,-0.758650,-0.345662,0.546277,-18.268498,8.291741,-5.364615,-2.431433,-0.161665,1.407950,22.835404,-31.472708,25.429963,4635728673582874600.000000,0.538209,0.113302,0.753047,0.361128,6
-12.730010,-7.394686,-1.045489,0.934542,0.886787,0.262007,30.063765,-13.391177,-32.597388,4635731357937434600.000000,0.484214,-0.419171,0.172649,0.748348,-23.820279,4.398443,-10.440809,-5.104865,-0.519836,10.358608,39.533531,23.846069,-3.664304,4635725881317261300.000000,0.040401,-0.773182,-0.324330,0.543477,-23.748967,7.351135,-4.562232,-2.153872,-0.173997,1.717773,22.331608,-32.222957,24.813673,4635728673582874600.000000,0.537118,0.114126,0.748587,0.371614,6
-12.378720,-6.901147,-0.138452,1.144777,1.316234,0.299797,30.505475,-13.690155,-32.130575,4635731357937434600.000000,0.484338,-0.420711,0.179473,0.745794,-23.394863,3.309071,-10.545418,-4.217143,-0.492210,10.646966,41.569333,20.479646,-3.135188,4635725881317261300.000000,0.002022,-0.786239,-0.299314,0.540588,-31.109812,6.660943,-3.810327,-2.021201,-0.283635,2.208612,21.736796,-33.085643,24.274291,4635728673582874600.000000,0.535469,0.116932,0.743746,0.382678,6
-11.903024,-5.952684,0.152409,1.347695,1.304420,0.324698,30.963455,-14.016657,-31.706283,4635731357937434600.000000,0.484718,-0.421761,0.186937,0.743115,-22.655559,2.329179,-10.004891,-3.702401,-0.320994,10.921496,43.068946,17.000838,-2.740760,4635725697854689300.000000,-0.035084,-0.798216,-0.271556,0.536542,-35.054215,6.298524,-4.485315,-1.963945,-0.301190,2.629245,21.246854,-33.895284,23.727266,4635728673582874600.000000,0.533084,0.121178,0.738623,0.394428,6
-10.653238,-4.656183,0.749597,1.612734,1.071489,0.255169,31.076979,-14.410205,-31.230355,4635731277571087400.000000,0.485924,-0.421583,0.194613,0.740454,-22.912087,-2.059461,-10.496433,-3.327694,-0.107428,11.170303,44.349428,13.363515,-2.435334,4635725574837610500.000000,-0.071181,-0.809144,-0.241536,0.530923,-37.618448,3.617258,-5.487423,-2.076189,-0.265719,2.833707,20.607502,-34.820367,23.157833,4635728673582874600.000000,0.530203,0.125722,0.733143,0.406916,6
-9.072566,-2.134637,1.643509,1.745229,1.208194,0.185949,31.271924,-14.944036,-30.647620,4635731250563252200.000000,0.487428,-0.421584,0.202838,0.737250,-23.954654,-9.593398,-10.835892,-2.930003,-0.047550,11.254303,45.565073,9.127701,-2.309219,4635725559194714100.000000,-0.105899,-0.818505,-0.209808,0.524229,-39.395940,0.617654,-5.527989,-2.470037,-0.166378,2.821301,19.609868,-35.899501,22.429108,4635728673582874600.000000,0.527126,0.129162,0.727051,0.420537,6
-7.415655,1.053673,1.377472,1.558609,1.607380,0.040605,31.592206,-15.389831,-30.046441,4635731250563252200.000000,0.488670,-0.423278,0.211028,0.733147,-23.642096,-16.751373,-10.887225,-2.523506,-0.047289,11.047192,46.262587,4.929649,-2.211560,4635725559194714100.000000,-0.138541,-0.825993,-0.177422,0.516782,-41.589885,-3.262876,-7.365269,-3.046397,-0.176352,2.627830,18.790925,-36.772185,21.571988,4635728673582874600.000000,0.524590,0.130736,0.719841,0.435364,6
-5.980811,3.460366,0.651273,1.407465,1.928878,-0.141492,32.061898,-15.792663,-29.229045,4635731250563252200.000000,0.489877,-0.426381,0.219072,0.728167,-24.425685,-22.173943,-12.202737,-1.977953,-0.118315,10.584416,46.528760,0.901543,-2.291171,4635725467485439000.000000,-0.168074,-0.831551,-0.145039,0.509154,-45.230368,-8.166911,-9.101239,-3.734636,-0.383997,2.412255,18.167108,-37.625630,20.479685,4635728653290777600.000000,0.522925,0.129937,0.710923,0.451944,6
-4.927258,5.800632,0.929787,1.378448,1.969197,-0.386232,32.684233,-16.140695,-28.566290,4635731250563252200.000000,0.491689,-0.429845,0.226654,0.722567,-27.555346,-29.546031,-15.179608,-1.364861,-0.090174,10.180486,46.517333,-3.029362,-2.234217,4635725451820531700.000000,-0.194291,-0.835758,-0.112498,0.501102,-45.921544,-15.860524,-8.585467,-4.158572,-0.529742,2.297171,17.292195,-38.708726,19.114217,4635728606771985400.000000,0.522487,0.128966,0.700531,0.468649,6
-4.057375,7.989123,3.497917,1.489007,1.963779,-0.688674,33.352510,-16.342385,-27.989522,4635731250563252200.000000,0.494557,-0.433306,0.233990,0.716176,-27.991846,-41.915113,-18.735625,-0.433281,0.076314,9.986168,46.114066,-6.666068,-2.002827,4635725451820531700.000000,-0.216440,-0.839487,-0.078626,0.492172,-41.438988,-24.030541,-8.533246,-4.242885,-0.347860,2.393873,16.528011,-39.656971,17.808025,4635728780957057000.000000,0.521181,0.127682,0.690034,0.485717,6
-3.187688,9.077938,6.117734,1.564746,2.156406,-1.030942,33.896022,-16.373202,-27.196577,4635731250563252200.000000,0.498326,-0.437466,0.241300,0.708568,-25.331530,-51.894973,-21.014610,0.657343,0.056179,10.060214,45.160239,-10.484322,-1.829873,4635725451820531700.000000,-0.234559,-0.842716,-0.042107,0.482741,-36.201654,-25.665211,-8.156784,-4.211264,-0.281852,2.739032,15.868291,-40.535884,16.414253,4635728780957057000.000000,0.518808,0.127324,0.679257,0.503227,6
-1.833790,7.018469,5.949894,1.442586,2.198301,-1.471076,34.460461,-16.415798,-26.402923,4635731250563252200.000000,0.503053,-0.442382,0.247496,0.699987,-23.419249,-57.213591,-24.014088,1.570880,-0.112472,9.731202,44.258129,-14.195918,-1.994338,4635725451820531700.000000,-0.248439,-0.844988,-0.004669,0.473551,-34.691555,-21.568464,-5.154419,-4.471322,-0.723456,3.125057,14.889490,-41.400905,14.699656,4635728780957057000.000000,0.516766,0.128328,0.666452,0.521850,6
-0.356739,0.435641,5.880440,1.509015,2.174789,-1.940219,35.229021,-16.367235,-25.716121,4635731250563252200.000000,0.509204,-0.447499,0.252928,0.690278,-25.056498,-59.253123,-25.747640,1.504223,0.027908,8.274666,43.306223,-17.528119,-2.068127,4635725818591049700.000000,-0.259321,-0.846211,0.027373,0.464682,-36.866339,-18.242888,-3.942230,-2.560927,-1.499405,3.873237,13.833863,-42.165114,13.439170,4635728801225818100.000000,0.513993,0.137123,0.655415,0.536134,6
0.551088,-7.270944,8.703345,1.669753,2.564207,-2.408365,36.068309,-16.016904,-24.627604,4635731250563252200.000000,0.516477,-0.453787,0.258720,0.678522,-25.900294,-60.966608,-23.693137,0.829752,0.549966,6.240997,42.164859,-20.163287,-1.460357,4635725972987888600.000000,-0.268458,-0.847138,0.050351,0.455799,-39.980114,-17.892098,-12.516078,1.040690,-1.815410,4.985478,12.421957,-42.737232,13.291601,4635728888331239400.000000,0.507064,0.157004,0.650868,0.542776,6
-0.107778,-12.793591,12.024448,1.437073,2.876876,-2.669213,36.837507,-15.586597,-23.467792,4635731250563252200.000000,0.523563,-0.461614,0.263962,0.665672,-27.949064,-69.287438,-17.852764,1.129421,0.853360,4.119588,41.399363,-21.898251,-1.011067,4635725988691443700.000000,-0.272439,-0.848989,0.066046,0.447921,-46.117083,-7.604500,-15.777263,3.387321,-2.242078,6.360977,10.639395,-43.162383,14.089829,4635728888331239400.000000,0.496270,0.186419,0.649340,0.545272,6
-0.573265,-15.408125,9.487894,1.517381,2.128023,-2.365011,37.582069,-15.095469,-22.633976,4635731250563252200.000000,0.530644,-0.466736,0.268309,0.654664,-29.660238,-76.661217,-11.416726,2.402342,0.569842,2.333542,41.037098,-22.924082,-0.691631,4635725988691443700.000000,-0.268434,-0.852024,0.078103,0.442605,-50.693453,-4.602026,-14.190792,6.968163,-2.784476,7.499870,8.482149,-43.052312,15.823932,4635728888331239400.000000,0.480848,0.227268,0.652983,0.539211,6
0.360615,-12.986953,4.782284,1.671405,1.024351,-1.720534,38.198914,-14.655785,-22.102394,4635731250563252200.000000,0.537412,-0.467709,0.271845,0.646944,-21.443987,-71.622524,-8.389626,2.975910,0.298729,0.789512,40.575596,-23.424541,0.249268,4635726172025160700.000000,-0.259410,-0.855547,0.086026,0.439709,-51.188191,-13.251626,-9.351035,9.232716,-2.080125,7.408733,6.151074,-42.196704,18.574383,4635728868080224300.000000,0.460502,0.270311,0.661749,0.526268,6
1.289362,-7.300291,5.631330,1.563871,1.052113,-0.916262,38.590001,-14.359466,-21.711591,4635731250563252200.000000,0.541712,-0.468045,0.276690,0.641034,-14.013709,-62.985836,-5.135257,2.772608,0.258961,-0.515074,40.358261,-23.497465,1.142780,4635726570107243500.000000,-0.248668,-0.859117,0.088958,0.438372,-55.245393,-10.789611,-15.954533,8.330231,-0.714156,6.969322,4.137245,-41.073842,21.338545,4635728780957057000.000000,0.437317,0.306804,0.670140,0.515302,6
1.023677,-1.668511,5.337404,1.436883,2.127159,-0.026739,38.937822,-14.532247,-20.952827,4635731170258082800.000000,0.542092,-0.470471,0.285327,0.635123,-13.270061,-54.597297,-0.511847,2.399612,-0.073437,-1.877047,40.812656,-22.988591,1.519689,4635726632936538100.000000,-0.236612,-0.862068,0.086665,0.439708,-48.633021,-27.931072,-10.709261,5.071714,-0.139338,5.737283,2.175922,-40.038159,23.612482,4635728780957057000.000000,0.418663,0.332221,0.673127,0.511127,6
-1.287848,3.784853,3.736028,1.186281,3.166366,0.809794,39.346602,-14.977444,-19.997807,4635731143189069800.000000,0.538434,-0.475147,0.297235,0.629267,-15.558390,-44.193298,2.789682,1.396287,-0.298062,-3.081457,41.363662,-22.255103,1.635482,4635726632936538100.000000,-0.225829,-0.863898,0.078415,0.443320,-29.530218,-24.918103,-14.013217,1.361960,0.132977,4.591052,0.516070,-39.480159,24.580403,4635728780957057000.000000,0.406522,0.347140,0.669798,0.515368,6
-3.840132,7.309176,3.134745,1.138034,2.553966,1.527593,39.655176,-15.584424,-19.002956,4635731143189069800.000000,0.533452,-0.477343,0.309005,0.626170,-16.349246,-32.081472,1.765748,0.874483,-0.477291,-4.029474,41.892191,-20.852156,1.627160,4635726632936538100.000000,-0.215057,-0.864999,0.065939,0.448530,-20.981914,-5.018872,-14.724135,-1.989107,0.078701,3.323356,-0.741625,-39.502968,24.400853,4635728780957057000.000000,0.402155,0.353082,0.660668,0.526423,6
-7.970157,10.652338,5.887830,1.292561,0.507785,1.942509,39.668120,-16.368285,-18.494975,4635731143189069800.000000,0.530262,-0.473254,0.317419,0.627773,-8.947697,36.612697,-31.018045,-0.082492,-0.275156,-3.163278,42.563002,-19.130008,1.436022,4635726632936538100.000000,-0.209357,-0.865177,0.054600,0.452391,-27.001970,0.498007,-11.209953,-4.046138,0.086193,2.398577,-1.602799,-40.177479,23.218833,4635728780957057000.000000,0.402815,0.353031,0.648112,0.541350,6
-12.678993,12.567470,22.226097,2.558824,-0.670904,2.294103,39.229753,-17.444821,-18.217074,4635731143189069800.000000,0.530128,-0.462743,0.327185,0.630700,-66.074702,174.779006,-18.000027,5.003223,-2.934560,2.827214,42.727387,-18.799713,1.153797,4635726632936538100.000000,-0.195917,-0.863027,0.076737,0.459253,-29.117517,-12.433170,-4.759508,-4.946507,-0.197281,2.064854,-2.323735,-40.987028,21.692794,4635728780957057000.000000,0.406156,0.351032,0.633258,0.557493,6
-13.155620,11.747038,41.958866,4.166713,0.360008,2.734209,38.677342,-18.787087,-17.659493,4635731143189069800.000000,0.530351,-0.450646,0.344189,0.630222,-140.491232,60.183365,43.311390,-2.171723,-1.068826,-7.167824,42.883964,-18.787193,0.871272,4635726724566630400.000000,-0.195297,-0.861561,0.037108,0.467113,-24.551786,-15.954233,2.026549,-4.921022,-0.650557,0.700672,-2.859552,-41.847499,20.022118,4635728780957057000.000000,0.413571,0.346264,0.619449,0.570389,6
-9.940035,11.316377,30.152704,3.272861,1.961144,2.476607,38.620916,-20.063035,-16.799558,4635731143189069800.000000,0.527056,-0.444923,0.361755,0.627207,-63.893751,-84.973127,16.478585,-4.190820,-0.127160,-8.802484,43.888361,-16.265919,0.382108,4635726740310720500.000000,-0.191773,-0.858529,-0.000309,0.475554,-23.435256,-13.462088,4.310978,-4.449591,-1.132556,-0.792330,-2.705058,-42.596614,18.442899,4635728780957057000.000000,0.424872,0.339378,0.607877,0.578612,6
-11.874238,-7.211634,13.151188,2.794940,2.582056,2.131141,38.858526,-21.168078,-15.506885,4635731143189069800.000000,0.522658,-0.442240,0.378671,0.622785,1.099448,-53.506275,-16.730886,-0.400693,0.115310,-5.962247,44.962835,-13.114047,0.096836,4635726740310720500.000000,-0.180254,-0.858182,-0.020602,0.480217,-24.854809,-11.160713,5.826236,-3.635790,-1.617908,-1.991265,-2.005128,-43.174816,17.071361,4635728780957057000.000000,0.438932,0.331875,0.598924,0.581797,6
-22.986400,-34.324871,13.292816,2.068440,3.070081,2.976270,38.710406,-22.412591,-13.862741,4635731143189069800.000000,0.513769,-0.440912,0.396183,0.620223,1.086249,-28.132295,-22.371637,3.540577,0.259492,-4.819068,45.347743,-11.146788,0.363137,4635726740310720500.000000,-0.156831,-0.860715,-0.029091,0.483454,-25.684222,-11.155664,6.978437,-2.483508,-2.073255,-2.985117,-0.813142,-43.552264,16.116574,4635728801150928900.000000,0.454756,0.324947,0.593129,0.579487,6
-22.955718,-25.130064,-2.279330,2.122194,-0.178436,2.838814,38.280594,-23.545310,-13.236538,4635731464203604000.000000,0.510538,-0.431167,0.406507,0.623055,-1.849050,-9.411032,-8.254623,2.665307,0.264359,-4.131852,45.762146,-9.534763,0.883827,4635726923567125500.000000,-0.137882,-0.862356,-0.036938,0.485764,-21.102689,-9.504081,5.314645,-0.689263,-2.255870,-4.098040,0.869474,-43.634576,15.766649,4635728888331239400.000000,0.471097,0.318962,0.592628,0.570195,6
-20.667866,4.520718,1.484802,2.189012,-2.022850,1.600812,37.850101,-24.510127,-13.573279,4635731572685799400.000000,0.513659,-0.418498,0.410772,0.626323,8.878778,-11.291732,3.971680,0.974631,0.308178,-3.837375,46.274478,-7.729227,1.266449,4635726955059085300.000000,-0.125636,-0.862892,-0.047323,0.487231,-14.568233,-3.378646,-0.428002,1.225489,-2.363060,-5.784875,2.852070,-43.547431,15.888239,4635728888331239400.000000,0.488811,0.312547,0.598439,0.552493,6
-19.823377,14.198086,15.590894,2.115682,0.130345,1.014163,37.389454,-25.045501,-13.252711,4635731572685799400.000000,0.514220,-0.412683,0.418236,0.624779,-0.013395,-8.283572,-3.472189,1.178385,0.218654,-4.029697,46.309847,-6.177583,1.380894,4635726955059085300.000000,-0.112262,-0.863104,-0.057961,0.488968,-6.117187,3.183632,-4.838985,3.034651,-2.412508,-7.992920,5.651237,-43.123013,16.495733,4635728847974112300.000000,0.508770,0.303983,0.610624,0.525249,6
