Accelerometer-X,Accelerometer-Y,Accelerometer-Z,Gyroscope-X,Gyroscope-Y,Gyroscope-Z,Magnetometer-X,Magnetometer-Y,Magnetometer-Z,Barometer-pressure,Orientation-S,Orientation-X,Orientation-Y,Orientation-Z,Accelerometer-X,Accelerometer-Y,Accelerometer-Z,Gyroscope-X,Gyroscope-Y,Gyroscope-Z,Magnetometer-X,Magnetometer-Y,Magnetometer-Z,Barometer-pressure,Orientation-S,Orientation-X,Orientation-Y,Orientation-Z,Accelerometer-X,Accelerometer-Y,Accelerometer-Z,Gyroscope-X,Gyroscope-Y,Gyroscope-Z,Magnetometer-X,Magnetometer-Y,Magnetometer-Z,Barometer-pressure,Orientation-S,Orientation-X,Orientation-Y,Orientation-Z,jump
-9.556682,0.270681,0.913437,0.121663,-0.179996,-0.073737,42.678494,7.932391,16.248055,4635732002182529000.000000,-0.685208,-0.195242,-0.669611,0.209741,-9.720728,1.245995,-1.747150,-0.009948,-0.346642,-0.177892,39.625233,-23.853266,6.286813,4635727814052544500.000000,0.318136,-0.623750,0.536742,0.470779,-9.178339,0.151386,-3.313083,-0.193265,0.343445,-0.364025,44.486218,11.502626,-1.158892,4635729103079604200.000000,-0.445232,-0.643461,-0.440307,0.440291,0
-9.737337,0.430759,0.694757,0.062986,-0.191230,-0.094029,42.760098,7.900626,16.122480,4635732002182529000.000000,-0.685562,-0.195070,-0.669062,0.210496,-9.618595,1.289698,-1.777994,-0.033259,-0.339035,-0.188443,39.554782,-23.853266,6.045272,4635727814052544500.000000,0.319149,-0.623504,0.535787,0.471507,-9.203566,-1.315963,-3.894981,0.000853,0.313965,-0.382611,44.443899,11.841181,-0.902535,4635729103079604200.000000,-0.443926,-0.643367,-0.441864,0.440187,0
-9.852775,0.588757,0.576883,0.015561,-0.212990,-0.116521,42.837178,7.982608,15.922624,4635732002182529000.000000,-0.685994,-0.194679,-0.668511,0.211201,-9.504452,1.132977,-1.742029,-0.049712,-0.332252,-0.203338,39.479400,-23.792888,5.752323,4635727814052544500.000000,0.320132,-0.623325,0.534769,0.472233,-9.439578,-0.524932,-3.199976,0.139927,0.275511,-0.371929,44.591202,11.841181,-0.830916,4635729103079604200.000000,-0.442335,-0.643478,-0.443064,0.440421,0
-9.859045,0.735251,0.687123,-0.022038,-0.183410,-0.149545,42.801588,8.149682,15.857417,4635732002182529000.000000,-0.686344,-0.194116,-0.668103,0.211871,-9.585780,0.897412,-1.693200,-0.052339,-0.334648,-0.214077,39.587286,-23.568705,5.861861,4635727814052544500.000000,0.321134,-0.623167,0.533713,0.472955,-9.460737,1.004244,-2.146082,0.192766,0.251941,-0.337321,44.633526,11.881865,-0.891145,4635729103079604200.000000,-0.440706,-0.643706,-0.444025,0.440753,0
-9.884859,0.890099,0.677682,-0.048495,-0.125612,-0.182532,42.724514,8.144777,15.857417,4635732002182529000.000000,-0.686525,-0.193435,-0.667910,0.212514,-9.758167,0.763954,-1.684622,-0.046176,-0.336279,-0.217527,39.743840,-23.382788,5.966615,4635727814052544500.000000,0.322163,-0.623004,0.532656,0.473662,-9.478622,1.682969,-1.329886,0.171051,0.236987,-0.331266,44.474847,12.167503,-0.706430,4635729103079604200.000000,-0.439173,-0.643873,-0.444983,0.441071,0
-9.958799,1.015306,0.538173,-0.073855,-0.106082,-0.198126,42.592678,8.059328,15.798822,4635732002182529000.000000,-0.686658,-0.192656,-0.667807,0.213116,-9.810458,0.754712,-1.734923,-0.043102,-0.336467,-0.219663,39.771721,-23.352762,5.669758,4635727637075158000.000000,0.323203,-0.622839,0.531598,0.474357,-9.612890,1.818113,-0.731700,0.143489,0.237340,-0.347217,44.348660,12.305062,-0.537126,4635729117369532400.000000,-0.437685,-0.643959,-0.446036,0.441363,0
-9.977286,0.999618,0.429708,-0.088106,-0.141632,-0.197882,42.534431,8.032472,15.705007,4635732002182529000.000000,-0.686901,-0.191804,-0.667613,0.213705,-9.764454,0.676381,-1.715479,-0.033043,-0.339987,-0.216518,39.852200,-23.423182,5.361763,4635727687788340200.000000,0.324271,-0.622644,0.530562,0.475043,-9.743922,1.710706,-0.480173,0.140139,0.247948,-0.353772,44.388624,12.324558,-0.561495,4635729210453786600.000000,-0.436171,-0.644045,-0.447127,0.441632,0
-9.831171,0.834315,0.411214,-0.101045,-0.190307,-0.183358,42.697979,8.308657,15.657567,4635732002182529000.000000,-0.687302,-0.190913,-0.667280,0.214256,-9.673228,0.679322,-1.719097,-0.031857,-0.340739,-0.209603,39.929745,-23.438215,5.310220,4635727706678362100.000000,0.325329,-0.622430,0.529544,0.475736,-9.844040,1.549552,-0.433757,0.149894,0.264754,-0.348216,44.156639,12.451551,-0.707241,4635729210453786600.000000,-0.434605,-0.644189,-0.448212,0.441865,0
-9.573453,0.543124,0.431788,-0.096228,-0.183850,-0.149488,42.833318,8.493893,15.708469,4635732002182529000.000000,-0.687711,-0.190135,-0.666933,0.214717,-9.575575,0.532714,-1.660884,-0.029404,-0.342500,-0.205648,40.073403,-23.226953,5.078839,4635727706678362100.000000,0.359857,-0.582514,0.571980,0.451685,-9.861181,1.485990,-0.485828,0.158018,0.278713,-0.349636,44.115864,12.441813,-0.560897,4635729196176744400.000000,-0.432988,-0.644368,-0.449309,0.442076,0
-9.326146,0.146559,0.422729,-0.071357,-0.118456,-0.105235,42.692816,8.411973,15.743712,4635732002182529000.000000,-0.687957,-0.189610,-0.666715,0.215069,-9.508098,0.440145,-1.547402,-0.027080,-0.345516,-0.202444,40.030902,-23.041022,4.788015,4635727706678362100.000000,0.361066,-0.582218,0.571087,0.452232,-9.757807,1.621961,-0.555826,0.146774,0.286758,-0.360460,44.264046,12.409147,-0.158696,4635729103079604200.000000,-0.431367,-0.644518,-0.450472,0.442261,0
-9.278317,-0.196999,0.364842,-0.048040,-0.070230,-0.059307,42.616043,8.362071,15.622026,4635732002182529000.000000,-0.688092,-0.189322,-0.666578,0.215316,-9.487301,0.457435,-1.455515,-0.023183,-0.346960,-0.197479,39.885105,-23.081365,4.736473,4635727706678362100.000000,0.362277,-0.581900,0.570210,0.452779,-9.711377,1.582164,-0.620884,0.118645,0.297655,-0.371215,44.239701,12.662182,-0.184664,4635729103079604200.000000,-0.429778,-0.644614,-0.451732,0.442382,0
-9.398615,-0.426862,0.408750,-0.024085,-0.072263,-0.025093,42.716459,8.470852,15.363612,4635732002182529000.000000,-0.688244,-0.189196,-0.666387,0.215532,-9.495210,0.483996,-1.360017,-0.023311,-0.340108,-0.193019,39.997972,-23.166806,4.816929,4635727706678362100.000000,0.363465,-0.581582,0.569353,0.453314,-9.761824,1.357588,-0.799879,0.098270,0.302002,-0.375346,44.082554,13.010614,-0.341041,4635729103079604200.000000,-0.428224,-0.644674,-0.453043,0.442460,0
-9.540576,-0.563606,0.464570,-0.004307,-0.095547,-0.006504,42.770903,8.403619,15.338404,4635732002182529000.000000,-0.688462,-0.189157,-0.666096,0.215769,-9.527534,0.458122,-1.372989,-0.021739,-0.334202,-0.187866,40.289584,-23.111452,4.673202,4635727706678362100.000000,0.364631,-0.581260,0.568519,0.453836,-9.817996,1.123937,-1.013981,0.099547,0.300717,-0.377699,44.093140,13.074129,-0.232030,4635729103079604200.000000,-0.426663,-0.644727,-0.454354,0.442547,0
-9.674846,-0.589796,0.367321,0.007657,-0.114592,-0.001404,42.833308,8.182528,15.444422,4635731854997184500.000000,-0.688728,-0.189150,-0.665735,0.216039,-9.594325,0.341046,-1.369380,-0.008163,-0.324462,-0.183406,40.345467,-22.955607,4.477899,4635727706678362100.000000,0.365799,-0.580924,0.567734,0.454308,-9.844031,1.038486,-1.114881,0.108309,0.305132,-0.374494,44.081789,13.104938,-0.061894,4635729103079604200.000000,-0.425074,-0.644807,-0.455647,0.442631,0
-9.775657,-0.569223,0.267195,0.020198,-0.121097,-0.005460,42.860191,7.996954,15.478988,4635731787434164200.000000,-0.688998,-0.189162,-0.665348,0.216360,-9.607226,0.327449,-1.337059,0.006099,-0.312901,-0.167694,40.144329,-22.855105,4.363040,4635727706678362100.000000,0.366944,-0.580550,0.567031,0.454741,-9.867688,0.969246,-1.238563,0.109528,0.308487,-0.372283,43.997969,13.348195,0.049473,4635729103079604200.000000,-0.423478,-0.644896,-0.456935,0.442702,0
-9.810910,-0.569906,0.202322,0.030423,-0.115181,-0.010405,42.910384,8.172883,15.403700,4635731787434164200.000000,-0.689240,-0.189194,-0.664971,0.216720,-9.597171,0.168709,-1.280329,0.032302,-0.308191,-0.150417,40.101318,-22.910441,4.265391,4635727706678362100.000000,0.368109,-0.580103,0.566426,0.455125,-9.787209,1.025311,-1.348541,0.098204,0.299441,-0.375279,43.934444,13.644525,0.318901,4635729103079604200.000000,-0.421925,-0.644939,-0.458237,0.442778,0
-9.789657,-0.632302,0.091098,0.041896,-0.086538,-0.012482,42.933437,8.385363,15.427675,4635731787434164200.000000,-0.689391,-0.189280,-0.664668,0.217094,-9.695585,0.083998,-1.209230,0.063784,-0.301467,-0.133325,40.372848,-22.995900,4.258233,4635727706678362100.000000,0.368850,-0.580138,0.565357,0.455807,-9.589406,1.180878,-1.291612,0.088241,0.294242,-0.371640,43.903664,13.770818,0.488296,4635729103079604200.000000,-0.420413,-0.644958,-0.459538,0.442839,0
-9.769766,-0.675927,-0.001353,0.060567,-0.060865,-0.016477,42.883253,8.385133,15.588394,4635731787434164200.000000,-0.689452,-0.189431,-0.664425,0.217511,-9.737204,0.043077,-1.216437,0.086147,-0.293111,-0.108317,40.632033,-22.870176,4.260384,4635727706678362100.000000,0.370029,-0.579535,0.564977,0.456090,-9.476183,1.140278,-1.201182,0.070999,0.290395,-0.378974,43.679841,13.716132,0.476965,4635729074602831900.000000,-0.418939,-0.644924,-0.460880,0.442891,0
-9.749196,-0.691978,0.059219,0.084856,-0.060330,-0.029135,42.743105,8.470795,15.516077,4635731787434164200.000000,-0.689481,-0.189617,-0.664171,0.218032,-9.711341,-0.033766,-1.220740,0.102042,-0.288085,-0.082494,40.604679,-22.628888,4.089442,4635727706678362100.000000,0.371184,-0.578855,0.564696,0.456362,-9.508692,0.997027,-1.237804,0.070834,0.289185,-0.383967,43.531601,13.864239,0.414176,4635728888331239400.000000,-0.417456,-0.644877,-0.462230,0.442954,0
-9.724783,-0.720909,0.223095,0.114148,-0.076191,-0.051010,42.689289,8.629478,15.320775,4635731934542204900.000000,-0.689511,-0.189813,-0.663862,0.218708,-9.674723,-0.089046,-1.220740,0.117875,-0.288211,-0.055102,40.448857,-22.593750,4.052858,4635727706678362100.000000,0.372327,-0.578085,0.564511,0.456638,-9.598997,0.899233,-1.271189,0.098812,0.286482,-0.379977,43.542931,14.013221,0.525523,4635728888331239400.000000,-0.415908,-0.644879,-0.463510,0.443069,0
-9.717093,-0.782610,0.280770,0.148779,-0.089563,-0.072648,42.856508,8.570772,15.259254,4635732002182529000.000000,-0.689530,-0.190036,-0.663499,0.219553,-9.708475,-0.117765,-1.160424,0.131256,-0.287520,-0.028213,40.428765,-22.726590,4.052858,4635727706678362100.000000,0.373448,-0.577231,0.564415,0.456920,-9.722676,0.953795,-1.286629,0.133003,0.280781,-0.379398,43.626754,14.108368,0.782005,4635728888331239400.000000,-0.414279,-0.644927,-0.464716,0.443262,0
-9.758900,-0.839134,0.188794,0.198998,-0.095124,-0.087091,42.933437,8.403707,15.267616,4635732002182529000.000000,-0.689511,-0.190358,-0.663085,0.220583,-9.717093,-0.101969,-1.157548,0.143194,-0.285573,0.000250,40.430920,-22.754601,3.982491,4635727706678362100.000000,0.374539,-0.576294,0.564413,0.457213,-9.839167,0.970854,-1.313548,0.152449,0.279289,-0.389153,43.690296,14.265447,0.865108,4635728888331239400.000000,-0.412581,-0.644984,-0.465906,0.443512,0
-9.778130,-0.804359,0.121409,0.252677,-0.095402,-0.098107,42.874917,8.349864,15.204582,4635732002182529000.000000,-0.689440,-0.190803,-0.662628,0.221792,-9.696988,-0.218289,-1.199913,0.162860,-0.283436,0.029969,40.491236,-22.684232,3.967406,4635727706678362100.000000,0.375616,-0.575259,0.564522,0.457499,-9.829464,1.037471,-1.283394,0.164212,0.275724,-0.399268,43.669274,14.413551,0.856135,4635728888331239400.000000,-0.410837,-0.645034,-0.467093,0.443811,0
-9.744690,-0.722754,0.101507,0.300628,-0.107501,-0.107326,42.847984,8.466904,15.173802,4635732002182529000.000000,-0.689353,-0.191349,-0.662098,0.223170,-9.622319,-0.264251,-1.188430,0.192136,-0.289216,0.060754,40.574522,-22.598789,4.037765,4635727706678362100.000000,0.376718,-0.574092,0.564750,0.457776,-9.756228,1.206021,-1.310143,0.160238,0.276368,-0.406949,43.531601,14.572231,0.878036,4635728888331239400.000000,-0.409086,-0.645061,-0.468305,0.444112,0
-9.729300,-0.628938,0.156182,0.344365,-0.122734,-0.115872,42.956672,8.629453,15.232326,4635732002182529000.000000,-0.689264,-0.191982,-0.661488,0.224703,-9.657481,-0.147951,-1.143914,0.214317,-0.290536,0.090850,40.458953,-22.654053,3.902093,4635727706678362100.000000,0.377817,-0.572817,0.565089,0.458050,-9.681368,1.256643,-1.422522,0.142236,0.273948,-0.422830,43.541296,14.730927,0.952177,4635728888331239400.000000,-0.407356,-0.645019,-0.469587,0.444410,0
-9.687503,-0.522928,0.191470,0.387819,-0.130035,-0.120759,42.889649,8.788136,15.125503,4635732002182529000.000000,-0.689153,-0.192719,-0.660818,0.226376,-9.698438,0.008683,-1.074939,0.231104,-0.290536,0.115495,40.430920,-22.739556,3.708815,4635727706678362100.000000,0.378908,-0.571455,0.565515,0.458323,-9.600764,1.162217,-1.463273,0.109422,0.269252,-0.437925,43.574146,14.878311,0.978028,4635728888331239400.000000,-0.405692,-0.644881,-0.470958,0.444681,0
-9.609750,-0.371270,0.212036,0.432343,-0.132845,-0.127620,42.777266,8.896673,14.863320,4635731855134146600.000000,-0.689006,-0.193561,-0.660101,0.228193,-9.755178,0.046681,-1.082161,0.245366,-0.288776,0.137235,40.501331,-22.825010,3.593960,4635727706678362100.000000,0.379987,-0.570022,0.566022,0.458590,-9.545481,1.095438,-1.447838,0.063576,0.262623,-0.452250,43.340618,14.961234,1.173326,4635728888331239400.000000,-0.404138,-0.644621,-0.472441,0.444900,0
-9.566095,-0.225455,0.269881,0.472813,-0.131325,-0.133971,42.858981,8.973760,14.637230,4635731787434164200.000000,-0.688812,-0.194503,-0.659351,0.230136,-9.816214,0.079005,-1.126692,0.261012,-0.288400,0.157717,40.526431,-23.041218,3.586828,4635727706678362100.000000,0.381061,-0.568514,0.566605,0.458849,-9.447822,1.062951,-1.419288,0.010531,0.260707,-0.454748,43.138443,15.130324,1.328285,4635728902530969600.000000,-0.402724,-0.644259,-0.474024,0.445022,0
-9.483179,-0.057748,0.334765,0.498834,-0.142746,-0.130536,43.017670,9.164007,14.692645,4635731787434164200.000000,-0.688628,-0.195517,-0.658537,0.232149,-9.867198,0.175988,-1.145348,0.279676,-0.291041,0.173613,40.327389,-23.225034,3.428024,4635727706678362100.000000,0.381694,-0.567501,0.566685,0.459478,-9.353394,0.946836,-1.456613,-0.046159,0.253654,-0.450776,43.202000,15.415427,1.232948,4635728995705421800.000000,-0.401479,-0.643796,-0.475686,0.445044,0
-9.398385,0.108648,0.362372,0.516934,-0.164561,-0.117208,43.067719,9.416512,14.805046,4635731787434164200.000000,-0.688498,-0.196597,-0.657628,0.234190,-9.916019,0.305950,-1.227955,0.290099,-0.286324,0.190325,40.344774,-23.043898,3.313199,4635727795141291000.000000,0.382767,-0.565870,0.567401,0.459714,-9.281777,0.595669,-1.578662,-0.091980,0.249524,-0.432501,43.192331,15.488656,1.271622,4635728995705421800.000000,-0.400397,-0.643283,-0.477372,0.444955,0
-9.333503,0.225548,0.416361,0.529636,-0.177821,-0.096800,43.017578,9.605995,14.765143,4635731787434164200.000000,-0.688410,-0.197755,-0.656648,0.236217,-9.944735,0.500587,-1.295445,0.302165,-0.286076,0.199495,40.428081,-22.998747,3.527334,4635727814052544500.000000,0.383850,-0.564196,0.568160,0.459932,-9.235243,0.033202,-1.694290,-0.103854,0.245050,-0.398261,43.117477,15.573181,1.550097,4635728995705421800.000000,-0.399418,-0.642806,-0.478982,0.444794,0
-9.330959,0.339906,0.431111,0.524964,-0.193676,-0.064868,42.935989,9.706187,14.600655,4635731787434164200.000000,-0.688396,-0.198971,-0.655596,0.238150,-9.868577,0.677925,-1.276021,0.310582,-0.280984,0.206092,40.443127,-23.139547,3.818140,4635727814052544500.000000,0.384927,-0.562498,0.568957,0.460125,-9.305017,-0.435752,-1.762700,-0.077193,0.232656,-0.353220,43.033637,15.731874,1.721926,4635728995705421800.000000,-0.398476,-0.642437,-0.480400,0.444642,0
-9.380441,0.445274,0.477393,0.511021,-0.212173,-0.025625,42.850533,9.729300,14.346839,4635731787434164200.000000,-0.688479,-0.200234,-0.654468,0.239947,-9.780985,0.788475,-1.229347,0.321578,-0.272816,0.213380,40.382795,-23.240042,3.638467,4635727814052544500.000000,0.385995,-0.560778,0.569802,0.460284,-9.498032,-0.774304,-1.800928,-0.022019,0.224029,-0.286779,42.958789,15.879284,1.819576,4635728995705421800.000000,-0.397526,-0.642275,-0.481524,0.444512,0
-9.466549,0.576361,0.533928,0.496797,-0.211322,0.014235,42.765077,9.729300,13.990853,4635731934431004700.000000,-0.688607,-0.201564,-0.653320,0.241589,-9.775979,0.845915,-1.170457,0.339488,-0.266030,0.212938,40.440279,-23.184707,3.267165,4635727814052544500.000000,0.387087,-0.559043,0.570687,0.460382,-9.590861,-1.082036,-1.841708,0.040614,0.222738,-0.226035,42.884609,15.952528,1.904355,4635728995705421800.000000,-0.396522,-0.642335,-0.482366,0.444409,0
-9.597608,0.747888,0.540979,0.482913,-0.195131,0.048633,42.788243,9.729300,13.867610,4635732002182529000.000000,-0.688734,-0.202964,-0.652199,0.243079,-9.737907,0.784129,-1.179815,0.366632,-0.252582,0.215201,40.384946,-23.240042,3.278785,4635727814052544500.000000,0.388204,-0.557281,0.571647,0.460385,-9.648678,-1.274667,-1.810183,0.120243,0.227011,-0.166079,42.884609,16.037040,1.915623,4635728995705421800.000000,-0.395406,-0.642654,-0.482905,0.444356,0
-9.760793,0.956045,0.512066,0.457334,-0.176637,0.076290,42.928306,9.779419,13.992907,4635732002182529000.000000,-0.688857,-0.204382,-0.651130,0.244403,-9.679030,0.698687,-1.234389,0.412184,-0.233231,0.218405,40.299504,-23.184724,3.376432,4635727814052544500.000000,0.389373,-0.555472,0.572732,0.460237,-9.691730,-1.075113,-1.662763,0.185725,0.229875,-0.106609,42.886218,16.186068,2.026803,4635728995705421800.000000,-0.394219,-0.643205,-0.483168,0.444328,0
-9.864871,1.142366,0.467091,0.427089,-0.149708,0.094616,43.032385,9.752426,13.925424,4635732002182529000.000000,-0.688949,-0.205791,-0.650151,0.245568,-9.567712,0.583063,-1.345707,0.483318,-0.212055,0.222490,40.153716,-23.099266,3.232776,4635727814052544500.000000,0.390645,-0.553575,0.573992,0.459875,-9.782008,-0.554733,-1.613646,0.222009,0.223748,-0.057954,42.896816,16.258653,2.270577,4635728995705421800.000000,-0.393039,-0.643898,-0.483226,0.444307,0
-9.921409,1.279857,0.434968,0.397912,-0.103382,0.100800,42.997039,9.779419,13.800785,4635732002182529000.000000,-0.688943,-0.207179,-0.649326,0.246596,-9.314915,0.450931,-1.538171,0.572356,-0.186293,0.235561,39.984959,-23.224976,3.359226,4635727814052544500.000000,0.392034,-0.551545,0.575491,0.459258,-9.900863,-0.249263,-1.731553,0.236259,0.218772,-0.021049,42.896816,16.217496,2.246452,4635729023998402600.000000,-0.391897,-0.644680,-0.483148,0.444267,0
-10.003652,1.343459,0.377140,0.371995,-0.058015,0.100743,42.919941,9.861017,13.836776,4635732002182529000.000000,-0.688835,-0.208538,-0.648656,0.247514,-9.014094,0.487577,-1.846186,0.693226,-0.169270,0.260188,40.025202,-23.395845,3.554506,4635727725628262400.000000,0.393608,-0.549286,0.577300,0.458347,-9.988870,-0.102789,-1.867084,0.247418,0.209581,0.005230,42.885567,16.016113,2.087466,4635729210453786600.000000,-0.390789,-0.645517,-0.482959,0.444233,0
-10.076246,1.371726,0.253789,0.344507,-0.049978,0.093098,43.005393,9.829532,13.733976,4635732002182529000.000000,-0.688719,-0.209805,-0.648042,0.248372,-8.859697,0.661362,-2.095375,0.781636,-0.164872,0.274577,40.110660,-23.426006,3.749835,4635727706678362100.000000,0.395342,-0.546848,0.579311,0.457231,-9.995607,0.053342,-1.762996,0.267094,0.202751,0.027182,42.801721,16.037005,2.100322,4635729210453786600.000000,-0.389683,-0.646416,-0.482662,0.444220,0
-10.062116,1.396140,0.157416,0.305437,-0.071339,0.079494,43.164082,9.802545,13.471852,4635732002182529000.000000,-0.688680,-0.210901,-0.647418,0.249181,-8.918592,0.927062,-2.186565,0.803688,-0.189127,0.281049,40.196112,-23.556708,3.703864,4635727706678362100.000000,0.397166,-0.544304,0.581330,0.456122,-9.900204,0.279503,-1.655077,0.273670,0.192153,0.038791,42.738117,16.184451,2.197982,4635729196318483500.000000,-0.388601,-0.647327,-0.482305,0.444227,0
-9.938121,1.453961,0.075820,0.264566,-0.093265,0.064540,43.264318,9.852655,13.379314,4635732002182529000.000000,-0.688718,-0.211816,-0.646784,0.249942,-9.207243,1.137436,-1.634380,0.899502,-0.219032,0.281991,40.080501,-23.725442,3.686636,4635727706678362100.000000,0.399270,-0.541534,0.583474,0.454843,-9.880922,0.520745,-1.811204,0.266840,0.175766,0.048629,42.736510,16.238413,2.245827,4635729103079604200.000000,-0.387589,-0.648215,-0.481907,0.444248,0
-9.762752,1.485445,-0.034667,0.222128,-0.100068,0.047396,43.237354,9.875790,13.379314,4635732002182529000.000000,-0.688794,-0.212556,-0.646190,0.250643,-9.416206,1.463432,-1.111619,0.901204,-0.200562,0.271436,39.851441,-23.765660,3.927895,4635727706678362100.000000,0.401347,-0.538810,0.585619,0.453492,-9.740871,0.541636,-2.022887,0.258351,0.163456,0.052761,42.737149,16.153936,2.002014,4635729103079604200.000000,-0.386629,-0.649077,-0.481489,0.444280,0
-9.588018,1.380783,-0.256895,0.194411,-0.086528,0.027049,43.214207,9.825703,13.379314,4635732002182529000.000000,-0.688835,-0.213175,-0.645680,0.251316,-9.418373,1.495768,-0.794215,0.948260,-0.161167,0.267414,39.667609,-23.697446,4.049981,4635727795098095600.000000,0.403433,-0.536081,0.587899,0.451923,-9.656056,0.305519,-2.154289,0.259812,0.146731,0.056667,42.822601,16.016113,2.026095,4635729103079604200.000000,-0.385705,-0.649917,-0.481029,0.444354,0
-9.475544,1.197035,-0.316762,0.187994,-0.086685,0.004224,43.155771,9.802545,13.387662,4635732002182529000.000000,-0.688859,-0.213714,-0.645196,0.252036,-9.261157,1.358652,-0.503450,1.052411,-0.142381,0.246811,39.647489,-23.752713,3.904265,4635727814052544500.000000,0.405734,-0.533252,0.590347,0.450014,-9.673702,0.157718,-2.118297,0.278109,0.125651,0.065352,42.908045,16.016113,2.209187,4635729103079604200.000000,-0.384791,-0.650762,-0.480479,0.444504,0
-9.548703,1.001725,-0.580660,0.277836,-0.154002,-0.024387,43.187190,9.911065,13.449956,4635732002182529000.000000,-0.688952,-0.214364,-0.644449,0.253140,-9.268995,1.672291,-0.431575,1.098800,-0.110030,0.228400,39.709942,-23.697467,4.030540,4635727814052544500.000000,0.408082,-0.530438,0.592883,0.447878,-9.804775,0.260815,-2.170335,0.295230,0.105863,0.074123,42.991890,16.006488,2.344175,4635729103079604200.000000,-0.383886,-0.651614,-0.479842,0.444727,0
-9.778637,0.906585,-1.275575,0.398248,-0.307872,-0.042944,43.205861,9.961241,13.343433,4635732002182529000.000000,-0.689328,-0.215145,-0.643147,0.254757,-9.297728,1.795912,-0.447361,1.084238,-0.071071,0.222741,39.652536,-23.752718,4.225877,4635727725647972400.000000,0.410303,-0.527722,0.595431,0.445671,-9.908223,0.453278,-2.225935,0.297592,0.083487,0.076626,43.044284,15.952492,2.159462,4635729103079604200.000000,-0.383022,-0.652433,-0.479155,0.445012,0
-9.980437,1.066423,-0.811961,0.350016,-0.388678,-0.049190,43.143571,10.011322,13.081331,4635732002182529000.000000,-0.689955,-0.215685,-0.641666,0.256333,-9.291993,1.706210,-0.290896,1.017471,-0.025402,0.230088,39.647488,-23.908495,4.501550,4635727706678362100.000000,0.412240,-0.525175,0.597938,0.443532,-9.966049,0.457471,-2.171315,0.295089,0.068114,0.074350,42.970058,16.027332,1.989807,4635729103079604200.000000,-0.382190,-0.653215,-0.478451,0.445337,0
-10.076222,1.089065,0.133262,0.210768,-0.284086,-0.041438,43.166631,10.092916,12.788343,4635732002182529000.000000,-0.690432,-0.215956,-0.640626,0.257420,-9.350122,1.162122,-0.135779,0.982079,-0.013574,0.208050,39.709933,-23.938719,4.794515,4635727706678362100.000000,0.414102,-0.522753,0.600339,0.441409,-9.980235,0.418257,-2.159108,0.298488,0.050096,0.071706,42.979675,16.111180,2.001025,4635729103079604200.000000,-0.381380,-0.653962,-0.477719,0.445721,0
-10.204024,0.744886,0.056162,0.115565,-0.139433,-0.015476,43.189793,10.119937,12.637276,4635732002182529000.000000,-0.690636,-0.216177,-0.640079,0.258048,-9.523847,0.326376,0.231768,0.942187,-0.030402,0.172176,39.652555,-24.009055,5.077445,4635727706678362100.000000,0.415977,-0.520448,0.602550,0.439352,-9.849160,0.463503,-2.143696,0.308555,0.033987,0.071933,43.043304,16.144362,2.064041,4635729103079604200.000000,-0.380575,-0.654694,-0.476943,0.446167,0
-10.404425,0.389543,-0.310142,0.071754,-0.040978,0.000501,43.198137,10.061524,12.677006,4635732002182529000.000000,-0.690634,-0.216421,-0.639847,0.258423,-9.658865,-0.070221,0.676919,0.879246,-0.044730,0.155014,39.577157,-24.154778,5.137156,4635727706678362100.000000,0.417775,-0.518260,0.604574,0.437447,-9.752114,0.656202,-2.107077,0.304264,0.024235,0.065192,43.033697,15.922053,1.978598,4635729103079604200.000000,-0.379787,-0.655387,-0.476174,0.446641,0
-10.582442,0.226215,-0.352772,0.059762,0.001111,-0.004828,43.143581,9.976068,12.774669,4635732002182529000.000000,-0.690524,-0.216661,-0.639754,0.258744,-9.760853,-0.192409,1.038198,0.792605,-0.059307,0.140437,39.493858,-24.192914,5.209651,4635727706678362100.000000,0.419443,-0.516226,0.606375,0.435761,-9.736704,0.883737,-2.067253,0.275546,0.013413,0.048469,42.970058,15.784172,1.915563,4635729103079604200.000000,-0.379067,-0.655981,-0.475487,0.447114,0
-10.557545,0.186974,-0.396358,0.066050,-0.049138,-0.023879,43.116547,9.949034,12.805566,4635732002182529000.000000,-0.690522,-0.216814,-0.639527,0.259182,-9.979067,-0.237666,1.189088,0.693908,-0.060194,0.121088,39.478741,-24.054418,5.305143,4635727706678362100.000000,0.420931,-0.514405,0.607947,0.434288,-9.698481,0.918758,-2.001412,0.225851,0.002084,0.026966,42.979666,15.804987,1.989807,4635729103079604200.000000,-0.378465,-0.656430,-0.474933,0.447551,0
-10.163975,0.283243,-0.435603,0.057017,-0.142280,-0.061642,43.283434,10.007444,12.738811,4635732002182529000.000000,-0.690736,-0.216740,-0.639076,0.259788,-10.102651,-0.324521,0.937275,0.618998,-0.043993,0.125408,39.609349,-23.953844,5.402801,4635727706678362100.000000,0.422205,-0.512729,0.609415,0.432973,-9.656056,0.949576,-1.921365,0.171884,-0.005621,0.005236,43.032097,15.963681,1.964191,4635729103079604200.000000,-0.377987,-0.656736,-0.474527,0.447937,0
-9.430448,0.346289,-0.347679,0.030827,-0.173040,-0.119646,43.469173,10.034486,12.641152,4635732002182529000.000000,-0.690991,-0.216402,-0.638616,0.260520,-10.059665,-0.472398,0.376663,0.610224,-0.030042,0.146447,39.778074,-24.009036,5.339724,4635727706678362100.000000,0.423383,-0.511036,0.610932,0.431685,-9.643259,1.003616,-1.951585,0.113230,-0.007897,-0.011713,42.957851,16.101564,1.807286,4635729103079604200.000000,-0.377640,-0.656913,-0.474272,0.448239,0
-8.700589,0.245564,-0.238446,0.026473,-0.106614,-0.186644,43.460997,10.034486,12.543509,4635732002182529000.000000,-0.691001,-0.215946,-0.638412,0.261372,-9.926136,-0.349808,-0.183523,0.650538,-0.025135,0.171706,39.798296,-24.024170,5.402798,4635727706678362100.000000,0.424584,-0.509213,0.612578,0.430325,-9.545600,0.904780,-1.931380,0.050314,-0.010821,-0.026895,42.949854,16.090368,1.917740,4635729103079604200.000000,-0.377445,-0.656954,-0.474173,0.448449,0
-8.350683,-0.004875,-0.115770,0.031759,-0.005771,-0.243323,43.267113,10.092875,12.512589,4635732002182529000.000000,-0.690675,-0.215464,-0.638543,0.262310,-9.699296,0.134651,-0.541951,0.681022,-0.016657,0.208766,39.665546,-24.164806,5.821903,4635727706678362100.000000,0.425758,-0.507249,0.614368,0.428930,-9.463934,0.641040,-1.861340,0.005888,-0.012309,-0.035389,42.906406,16.027301,2.111440,4635729103079604200.000000,-0.377360,-0.656904,-0.474181,0.448586,0
-8.397278,-0.381301,-0.023190,0.053551,0.049332,-0.261020,43.139737,10.169992,12.570986,4635732002182529000.000000,-0.690163,-0.215058,-0.638823,0.263308,-9.435063,0.533295,-0.688569,0.701572,-0.009680,0.236861,39.436537,-24.335705,6.380505,4635727795033668600.000000,0.426904,-0.505182,0.616261,0.427512,-9.493144,0.421886,-1.812510,-0.013288,-0.016022,-0.035338,42.970058,16.111154,2.246603,4635729103079604200.000000,-0.377336,-0.656815,-0.474220,0.448694,0
-8.664386,-0.671187,0.066727,0.083456,0.041571,-0.238342,43.166593,10.360000,12.589699,4635732002182529000.000000,-0.689668,-0.214789,-0.639027,0.264326,-9.417628,0.578072,-0.708029,0.716404,-0.016456,0.248433,39.322974,-24.295661,6.401770,4635727814052544500.000000,0.428073,-0.503040,0.618187,0.426086,-9.555782,0.293993,-1.770074,-0.024618,-0.016162,-0.026602,42.979652,16.165216,2.049094,4635729103079604200.000000,-0.377359,-0.656728,-0.474254,0.448768,0
-8.940075,-0.736311,0.264478,0.097308,0.030923,-0.193943,43.248180,10.604149,12.577492,4635732002182529000.000000,-0.689238,-0.214666,-0.639144,0.265263,-9.574756,0.654090,-0.697987,0.708319,-0.016401,0.268400,39.177284,-24.210227,6.223788,4635727814052544500.000000,0.429183,-0.500857,0.620132,0.424713,-9.616228,0.190886,-1.768471,-0.032044,-0.016249,-0.008524,43.032086,16.080730,1.783270,4635729103079604200.000000,-0.377432,-0.656667,-0.474248,0.448801,0
-9.171416,-0.640689,0.341807,0.089849,0.074430,-0.141887,43.266905,10.681478,12.515236,4635732002182529000.000000,-0.688755,-0.214708,-0.639348,0.265991,-9.697618,0.892362,-0.806300,0.687591,-0.014265,0.275014,39.149143,-24.195074,6.269501,4635727814052544500.000000,0.430227,-0.498692,0.622051,0.423396,-9.582198,-0.041669,-1.761071,-0.030362,-0.009980,0.016043,42.937017,15.931650,1.709036,4635729131272897500.000000,-0.377534,-0.656670,-0.474180,0.448783,0
-9.499526,-0.414696,0.425201,0.073777,0.143225,-0.087029,43.154624,10.631441,12.554889,4635732002182529000.000000,-0.688164,-0.214926,-0.639717,0.266458,-9.636743,1.140844,-0.840147,0.655492,-0.020916,0.272067,39.350017,-24.265379,6.527861,4635727814052544500.000000,0.431222,-0.496574,0.623889,0.422167,-9.495758,-0.333419,-1.788692,-0.016843,-0.005060,0.041592,42.800759,15.857417,1.721858,4635729317827969000.000000,-0.377637,-0.656754,-0.474025,0.448737,0
-9.869618,-0.104434,0.530597,0.058875,0.173590,-0.032215,42.945892,10.608233,12.585833,4635732002182529000.000000,-0.687565,-0.215282,-0.640140,0.266700,-9.498924,1.284543,-0.902566,0.609013,-0.025067,0.273067,39.393291,-24.350822,6.740470,4635727814052544500.000000,0.432126,-0.494524,0.625634,0.421065,-9.491562,-0.418635,-1.834315,-0.000367,-0.002784,0.073215,42.832195,15.847802,1.806696,4635729317827969000.000000,-0.377751,-0.656929,-0.473758,0.448667,0
-10.127435,0.216839,0.469801,0.044989,0.144474,0.016425,43.039199,10.666613,12.710932,4635732002182529000.000000,-0.687110,-0.215695,-0.640451,0.266791,-9.493030,1.547205,-0.995893,0.522974,-0.017727,0.257629,39.192447,-24.365976,6.765067,4635727814052544500.000000,0.432856,-0.492677,0.627205,0.420141,-9.537185,-0.258351,-1.849120,0.004132,0.000000,0.100932,42.990877,15.804990,1.817905,4635729317827969000.000000,-0.377898,-0.657172,-0.473410,0.448554,0
-10.193182,0.575900,0.410581,0.014322,0.094952,0.052866,43.333360,10.635313,12.902367,4635732002182529000.000000,-0.686856,-0.216062,-0.640621,0.266741,-9.668057,1.739744,-1.033296,0.435136,-0.016901,0.234890,39.149143,-24.436264,6.843229,4635727814052544500.000000,0.433441,-0.491047,0.628572,0.419402,-9.568011,-0.085830,-1.805093,0.001382,0.000140,0.120808,43.117540,15.954085,1.904967,4635729317827969000.000000,-0.378091,-0.657448,-0.473014,0.448404,0
-10.126482,0.937609,0.386169,-0.030693,0.062264,0.076882,43.267191,10.608233,12.964262,4635732002182529000.000000,-0.686755,-0.216329,-0.640726,0.266531,-9.825360,1.659639,-0.897076,0.326665,-0.008306,0.221057,39.279656,-24.521706,6.870600,4635727814052544500.000000,0.433804,-0.489662,0.629734,0.418904,-9.647653,0.105268,-1.813703,-0.012503,-0.000053,0.137476,43.033697,16.007505,1.978598,4635729317827969000.000000,-0.378355,-0.657734,-0.472601,0.448199,0
-10.028835,1.183213,0.403438,-0.081671,0.061040,0.085504,43.081425,10.608233,12.897574,4635732002182529000.000000,-0.686714,-0.216471,-0.640876,0.266162,-9.761032,1.284459,-0.605736,0.252980,0.012914,0.206674,39.247609,-24.536880,6.792463,4635727814052544500.000000,0.433984,-0.488483,0.630774,0.418528,-9.756918,0.322196,-1.945781,-0.027229,-0.007757,0.150662,42.970058,15.837600,1.878736,4635729317827969000.000000,-0.378698,-0.658008,-0.472164,0.447967,0
-9.997864,1.211813,0.540085,-0.117962,0.054607,0.083603,43.031097,10.608233,12.933287,4635732002182529000.000000,-0.686720,-0.216497,-0.641050,0.265707,-9.801742,1.037870,-0.479060,0.228225,0.021482,0.190840,38.963541,-24.476647,7.006006,4635727814052544500.000000,0.434119,-0.487403,0.631753,0.418171,-9.773327,0.368422,-1.969595,-0.047804,-0.010314,0.158786,42.970058,15.615871,1.685024,4635729303747587100.000000,-0.379116,-0.658263,-0.471736,0.447690,0
-10.131216,1.046304,0.631501,-0.144612,-0.048249,0.077142,43.089437,10.549891,12.905921,4635732002182529000.000000,-0.687017,-0.216315,-0.640964,0.265291,-9.955285,1.031121,-0.624491,0.213961,0.018039,0.181846,38.764460,-24.463636,7.286755,4635727814052544500.000000,0.434249,-0.486365,0.632683,0.417840,-9.728721,0.484659,-1.911768,-0.070370,-0.014674,0.163147,42.970058,15.552232,1.538711,4635729210453786600.000000,-0.379611,-0.658483,-0.471329,0.447374,0
-10.143177,0.784908,0.646992,-0.175351,-0.074308,0.065290,43.166552,10.581120,12.937149,4635732002182529000.000000,-0.687399,-0.215986,-0.640849,0.264851,-9.855164,1.117932,-0.789691,0.201832,0.015334,0.176125,38.944886,-24.594127,7.346687,4635727814052544500.000000,0.434371,-0.485357,0.633573,0.417535,-9.627866,0.640158,-1.870351,-0.093729,-0.013377,0.160591,42.981246,15.563420,1.647558,4635729210453786600.000000,-0.380164,-0.658663,-0.470977,0.447012,0
-9.953256,0.437465,0.755335,-0.190962,0.017246,0.049217,43.198126,10.608233,13.030935,4635732002182529000.000000,-0.687532,-0.215669,-0.641026,0.264333,-9.736620,1.315969,-0.968463,0.190082,0.015832,0.158488,39.060711,-24.833127,7.198290,4635727902343424000.000000,0.434498,-0.484418,0.634406,0.417229,-9.515382,0.766447,-1.809892,-0.116300,-0.017650,0.154831,43.076286,15.637684,1.830667,4635729210453786600.000000,-0.380778,-0.658785,-0.470677,0.446625,0
-9.859123,0.042401,0.880686,-0.194793,0.090543,0.035773,43.143667,10.499903,13.070255,4635732002182529000.000000,-0.687457,-0.215386,-0.641430,0.263777,-9.717093,1.565765,-1.061220,0.159895,0.010754,0.127660,38.875189,-24.878689,7.155710,4635727921426726900.000000,0.434630,-0.483606,0.635113,0.416957,-9.468155,0.822119,-1.840691,-0.138819,-0.021922,0.146147,43.203029,15.637684,1.978629,4635729210453786600.000000,-0.381447,-0.658844,-0.470438,0.446218,0
-9.859708,-0.385462,0.848886,-0.181616,0.094419,0.031315,43.058213,10.282865,12.949125,4635732002182529000.000000,-0.687356,-0.215134,-0.641834,0.263265,-9.666919,1.882319,-1.104356,0.100252,0.019272,0.095427,38.761507,-24.878689,7.153538,4635727921426726900.000000,0.434674,-0.483002,0.635667,0.416767,-9.431533,0.749905,-1.901161,-0.151907,-0.025915,0.136953,43.098418,15.615329,1.917129,4635729210453786600.000000,-0.382143,-0.658856,-0.470242,0.445811,0
-9.813583,-0.666581,0.801230,-0.157677,0.056574,0.034622,43.089427,10.255387,12.891018,4635732002182529000.000000,-0.687337,-0.214917,-0.642100,0.262842,-9.565742,2.011221,-1.231292,0.033339,0.023997,0.060749,38.946998,-24.878689,7.163573,4635727921426726900.000000,0.434632,-0.482619,0.636043,0.416682,-9.393314,0.622578,-1.884730,-0.144939,-0.028889,0.129845,42.919168,15.447621,2.014787,4635729210453786600.000000,-0.382813,-0.658859,-0.470049,0.445436,0
-9.665363,-0.824092,0.868466,-0.134231,0.035826,0.045065,43.174869,10.395276,13.007660,4635732002182529000.000000,-0.687364,-0.214772,-0.642272,0.262470,-9.516085,1.966220,-1.277432,-0.029564,0.028958,0.029012,38.990448,-24.738200,7.075432,4635727921426726900.000000,0.434505,-0.482442,0.636254,0.416696,-9.352466,0.635340,-1.913372,-0.133421,-0.036177,0.118516,43.078886,15.320292,2.110841,4635729210453786600.000000,-0.383445,-0.658843,-0.469855,0.445120,0
-9.490591,-0.850063,0.911679,-0.118362,0.063730,0.062256,43.202000,10.449537,13.195220,4635732002182529000.000000,-0.687321,-0.214750,-0.642491,0.262066,-9.549706,1.882940,-1.221568,-0.073956,0.037811,0.000670,38.789750,-24.637539,7.216437,4635727921426726900.000000,0.434316,-0.482435,0.636348,0.416758,-9.366269,0.721832,-1.885766,-0.117168,-0.036226,0.109133,43.151576,15.329863,2.172363,4635729210453786600.000000,-0.384015,-0.658834,-0.469656,0.444851,0
-9.411332,-0.833981,0.907225,-0.106274,0.102028,0.073464,43.152020,10.341245,13.332211,4635732002182529000.000000,-0.687176,-0.214834,-0.642795,0.261628,-9.628632,1.657025,-1.148331,-0.106640,0.035132,-0.016564,38.806500,-24.692568,7.411736,4635727921426726900.000000,0.434099,-0.482528,0.636346,0.416880,-9.400256,0.734040,-1.832151,-0.105510,-0.042168,0.094737,43.140965,15.404703,2.063536,4635729210453786600.000000,-0.384538,-0.658805,-0.469465,0.444644,0
-9.424693,-0.780119,0.820041,-0.101813,0.099374,0.080941,43.178740,10.174211,13.367106,4635732002182529000.000000,-0.687043,-0.214948,-0.643081,0.261182,-9.603715,1.189974,-0.994821,-0.106010,0.037692,-0.030640,38.889777,-24.707785,7.366249,4635727921426726900.000000,0.433901,-0.482661,0.636321,0.416969,-9.493128,0.751032,-1.746700,-0.087491,-0.038453,0.083637,43.152130,15.448680,1.904355,4635729210453786600.000000,-0.384982,-0.658791,-0.469275,0.444481,0
-9.469647,-0.665216,0.747949,-0.105119,0.065228,0.083316,43.202000,10.178255,13.367106,4635732002182529000.000000,-0.687006,-0.215022,-0.643270,0.260752,-9.584985,0.908031,-0.813884,-0.079219,0.041965,-0.032235,38.904995,-24.637550,7.188322,4635727921426726900.000000,0.433748,-0.482759,0.636347,0.416977,-9.562128,0.809420,-1.664445,-0.071379,-0.037895,0.069334,43.235977,15.235890,1.904355,4635729210453786600.000000,-0.385353,-0.658777,-0.469095,0.444371,0
-9.493483,-0.497625,0.690793,-0.116290,0.037761,0.078213,43.202000,10.147078,13.300465,4635732002182529000.000000,-0.687048,-0.215020,-0.643397,0.260331,-9.562747,0.786468,-0.690984,-0.048245,0.040092,-0.027655,38.904995,-24.692558,7.233796,4635727744943459300.000000,0.433655,-0.482784,0.636432,0.416914,-9.669857,0.920336,-1.608190,-0.062323,-0.033623,0.052384,43.310816,15.163189,1.904355,4635729210453786600.000000,-0.385660,-0.658752,-0.468950,0.444295,0
-9.539003,-0.264564,0.696393,-0.143292,0.040450,0.061992,43.093727,10.011664,13.211146,4635732002182529000.000000,-0.687089,-0.214900,-0.643575,0.259881,-9.518269,0.759034,-0.581120,-0.014636,0.036888,-0.028459,38.975220,-24.778008,7.251197,4635727706678362100.000000,0.433640,-0.482746,0.636567,0.416767,-9.670916,0.950585,-1.572631,-0.057262,-0.028515,0.036503,43.375558,15.172210,1.917094,4635729210453786600.000000,-0.385914,-0.658713,-0.468849,0.444240,0
-9.583385,-0.033185,0.708029,-0.172033,0.052150,0.035866,43.043304,9.961241,13.383897,4635732002182529000.000000,-0.687095,-0.214641,-0.643841,0.259418,-9.569752,0.796982,-0.621725,0.001987,0.026662,-0.028840,39.000478,-24.923636,7.180982,4635727706678362100.000000,0.433686,-0.482661,0.636713,0.416596,-9.597672,0.936785,-1.470726,-0.053640,-0.017694,0.021409,43.311867,15.161595,2.013161,4635729210453786600.000000,-0.386109,-0.658670,-0.468801,0.444184,0
-9.644985,0.094916,0.608097,-0.202377,0.046071,0.007030,43.159891,10.019535,13.535267,4635732002182529000.000000,-0.687114,-0.214210,-0.644148,0.258962,-9.622938,0.956164,-0.694975,0.007784,0.022812,-0.036740,38.862209,-24.821520,7.075460,4635727706678362100.000000,0.433767,-0.482580,0.636844,0.416403,-9.524429,0.918740,-1.431451,-0.046673,-0.006502,0.006084,43.311867,15.172741,2.087466,4635729210453786600.000000,-0.386235,-0.658628,-0.468801,0.444136,0
-9.734885,0.138730,0.578196,-0.230050,0.023441,-0.018896,43.264174,10.046693,13.495803,4635732002182529000.000000,-0.687189,-0.213607,-0.644443,0.258526,-9.651703,1.400061,-0.798306,-0.020419,0.033841,-0.045475,38.761536,-24.793236,7.136125,4635727706678362100.000000,0.433778,-0.482592,0.636930,0.416247,-9.465510,0.919288,-1.460636,-0.035297,0.001253,-0.005571,43.300730,15.256592,2.076329,4635729210453786600.000000,-0.386294,-0.658596,-0.468826,0.444107,0
-9.840877,0.171474,0.602612,-0.251314,-0.007636,-0.043464,43.120888,9.988395,13.473094,4635732002182529000.000000,-0.687340,-0.212843,-0.644694,0.258130,-9.716232,1.569538,-0.998423,-0.059174,0.038072,-0.050509,38.816503,-24.863442,7.153538,4635727706678362100.000000,0.433711,-0.482694,0.636945,0.416177,-9.495769,0.770137,-1.521673,-0.018579,0.009613,-0.022337,43.226414,15.310746,2.002014,4635729210453786600.000000,-0.386259,-0.658574,-0.468878,0.444115,0
-9.967378,0.141480,0.627023,-0.271995,-0.032729,-0.064385,42.993346,9.853000,13.543583,4635732002182529000.000000,-0.687554,-0.211936,-0.644912,0.257761,-9.789474,1.406440,-1.067716,-0.071490,0.037576,-0.060046,38.891924,-24.738282,7.233770,4635727706678362100.000000,0.433639,-0.482840,0.636917,0.416124,-9.491515,0.692641,-1.579527,0.003062,0.011144,-0.029814,43.216870,15.235911,2.002014,4635729210453786600.000000,-0.386148,-0.658575,-0.468912,0.444173,0
-10.060028,-0.011147,0.676416,-0.284615,-0.039521,-0.071226,43.136584,9.802545,13.508022,4635731855709298700.000000,-0.687789,-0.210968,-0.645130,0.257383,-9.872748,1.337142,-1.174542,-0.064736,0.040895,-0.069850,38.904995,-24.507204,7.401633,4635727706678362100.000000,0.433593,-0.483004,0.636886,0.416030,-9.540340,0.685712,-1.620914,0.024334,0.021502,-0.038403,43.151582,15.182258,2.002014,4635729210453786600.000000,-0.385942,-0.658613,-0.468948,0.444259,0
-10.174899,-0.181479,0.770754,-0.300445,-0.035150,-0.065009,43.205881,9.910779,13.410368,4635731787434164200.000000,-0.688032,-0.209975,-0.645371,0.256941,-9.948171,1.300520,-1.236442,-0.077939,0.035515,-0.068933,38.965167,-24.533839,7.524570,4635727706678362100.000000,0.433534,-0.483178,0.636823,0.415984,-9.589169,0.797168,-1.687801,0.029074,0.022431,-0.054147,43.140965,15.340955,2.013140,4635729210453786600.000000,-0.385693,-0.658629,-0.469020,0.444376,0
-10.284199,-0.306868,0.814014,-0.314572,-0.036026,-0.045198,43.093772,10.077795,13.437591,4635731787434164200.000000,-0.688310,-0.208994,-0.645607,0.256404,-9.941183,1.123491,-1.245155,-0.070649,0.028915,-0.064851,38.918065,-24.609261,7.463943,4635727706678362100.000000,0.433503,-0.483316,0.636768,0.415941,-9.636409,0.892224,-1.716982,0.022526,0.022709,-0.067894,43.140965,15.458330,2.089055,4635729210453786600.000000,-0.385436,-0.658607,-0.469144,0.444500,0
-10.323580,-0.350132,0.784599,-0.328505,-0.038842,-0.012620,43.101575,10.015604,13.597955,4635731787434164200.000000,-0.688641,-0.208057,-0.645820,0.255738,-9.836548,0.926014,-1.275239,-0.042038,0.014610,-0.069353,38.764603,-24.562165,7.286071,4635727706678362100.000000,0.433578,-0.483388,0.636726,0.415845,-9.663504,0.795684,-1.784352,0.012413,0.024151,-0.080848,43.142551,15.299667,2.086981,4635729210453786600.000000,-0.385180,-0.658546,-0.469323,0.444622,0
-10.302477,-0.354015,0.794053,-0.344194,-0.028590,0.028083,43.245360,9.852966,13.735044,4635731787434164200.000000,-0.689001,-0.207196,-0.646043,0.254904,-9.744568,1.131773,-1.331909,-0.034562,0.002099,-0.071375,38.804274,-24.609245,7.170987,4635727706678362100.000000,0.433705,-0.483430,0.636668,0.415751,-9.636401,0.610502,-1.891046,-0.014387,0.021641,-0.094734,43.142066,15.202845,2.025812,4635729196498879500.000000,-0.384976,-0.658412,-0.469584,0.444722,0
-10.207539,-0.337354,0.888990,-0.358760,-0.014024,0.067169,43.349642,9.860856,13.694980,4635731933975315500.000000,-0.689374,-0.206412,-0.646289,0.253906,-9.699222,1.394666,-1.312736,-0.061377,-0.003509,-0.075952,38.619020,-24.562175,7.303930,4635727706678362100.000000,0.433802,-0.483522,0.636546,0.415731,-9.677781,0.386845,-1.962219,-0.033155,0.023360,-0.107509,43.077237,15.518646,2.208920,4635729103079604200.000000,-0.384798,-0.658224,-0.469922,0.444798,0
-10.085470,-0.246303,0.952752,-0.379934,-0.007427,0.098722,43.372906,9.829689,13.601777,4635732002182529000.000000,-0.689780,-0.205660,-0.646547,0.252754,-9.662604,1.420424,-1.296167,-0.094486,-0.011290,-0.094450,37.883675,-23.877420,7.396799,4635727706678362100.000000,0.433887,-0.483707,0.636316,0.415779,-9.747848,0.539184,-1.896595,-0.039757,0.022431,-0.111046,43.171081,15.774662,2.342875,4635729103079604200.000000,-0.384635,-0.658014,-0.470282,0.444869,0
-9.963386,-0.107558,0.947723,-0.403045,-0.011511,0.121733,43.322921,9.635931,13.582963,4635732002182529000.000000,-0.690239,-0.204899,-0.646797,0.251476,-9.676107,1.416059,-1.283959,-0.135496,-0.009309,-0.119324,37.452361,-23.179770,7.239454,4635727706678362100.000000,0.433928,-0.484035,0.635968,0.415885,-9.777657,0.588818,-1.586489,-0.032239,0.023818,-0.104442,43.363395,15.690322,2.161822,4635729103079604200.000000,-0.384459,-0.657835,-0.470608,0.444942,0
-9.824669,0.063900,0.898324,-0.426202,-0.027004,0.132551,43.191381,9.500093,13.653473,4635731855658959900.000000,-0.690769,-0.204083,-0.647016,0.250117,-9.590236,1.676737,-1.241673,-0.200155,-0.001527,-0.141451,37.511590,-22.859263,7.112133,4635727706678362100.000000,0.433856,-0.484552,0.635478,0.416108,-9.691093,0.276016,-1.542718,-0.016314,0.032835,-0.109742,43.269547,15.542723,2.089051,4635729103079604200.000000,-0.384210,-0.657688,-0.470932,0.445031,0
-9.619894,0.246997,0.903918,-0.458444,-0.035299,0.127299,43.140965,9.422975,13.751124,4635731787434164200.000000,-0.691342,-0.203151,-0.647247,0.248692,-9.390178,2.024138,-1.263019,-0.287113,0.001754,-0.176843,37.547789,-22.885803,7.252880,4635727706678362100.000000,0.433662,-0.485325,0.634771,0.416488,-9.696307,0.258401,-1.774562,0.010687,0.032223,-0.104834,43.047132,15.488489,2.123427,4635729103079604200.000000,-0.383897,-0.657593,-0.471192,0.445166,0
-9.429580,0.413465,1.048823,-0.499866,-0.026843,0.111515,43.190938,9.399700,13.782158,4635731787434164200.000000,-0.691907,-0.202066,-0.647556,0.247194,-9.310778,2.217767,-1.329709,-0.386672,0.002136,-0.226696,37.690296,-23.302016,7.217657,4635727706678362100.000000,0.433352,-0.486410,0.633790,0.417039,-9.791459,0.347680,-1.431171,0.068090,0.042114,-0.081612,42.918525,15.561733,2.270116,4635729103079604200.000000,-0.383454,-0.657651,-0.471300,0.445348,0
-9.333643,0.630455,1.185832,-0.546573,-0.015144,0.083155,43.330810,9.341400,13.848788,4635731787434164200.000000,-0.692449,-0.200780,-0.647969,0.245640,-9.342134,2.256185,-1.162397,-0.482883,0.000382,-0.278158,38.272151,-23.790312,6.911696,4635727706678362100.000000,0.432938,-0.487801,0.632530,0.417755,-9.691759,0.306768,-1.116747,0.123356,0.053448,-0.060665,42.982265,15.636560,2.172458,4635729103079604200.000000,-0.382875,-0.657859,-0.471264,0.445577,0
-9.280936,0.907907,1.195756,-0.604111,-0.012478,0.043485,43.326814,9.314249,13.946444,4635731787434164200.000000,-0.692987,-0.199224,-0.648478,0.244041,-9.431056,1.987744,-0.782293,-0.549007,0.001754,-0.325044,38.582725,-23.536893,6.758145,4635727706678362100.000000,0.432467,-0.489437,0.631059,0.418555,-9.504371,0.325303,-1.102730,0.176342,0.062684,-0.042232,43.001252,15.731496,2.087466,4635729103079604200.000000,-0.382166,-0.658206,-0.471092,0.445855,0
-9.240437,1.100934,1.167464,-0.674803,-0.022290,0.014607,43.249695,9.255958,13.919186,4635731787434164200.000000,-0.693576,-0.197373,-0.649050,0.242342,-9.578816,1.487803,-0.447458,-0.559709,-0.001371,-0.367462,38.483916,-23.121882,6.728465,4635727706678362100.000000,0.432054,-0.491194,0.629474,0.419309,-9.368505,0.345201,-1.311390,0.227930,0.075740,-0.021660,43.119263,15.858548,2.100125,4635729103079604200.000000,-0.381329,-0.658698,-0.470789,0.446165,0
-9.195490,1.180803,1.134723,-0.740098,-0.032532,0.004563,43.276375,9.062262,13.833738,4635731787434164200.000000,-0.694232,-0.195296,-0.649662,0.240501,-9.677378,0.960711,-0.290420,-0.548310,0.004002,-0.397719,38.262907,-23.258033,6.495780,4635727706678362100.000000,0.431702,-0.493017,0.627852,0.419965,-9.226755,0.098326,-1.434599,0.291867,0.083356,0.001604,43.025430,15.763590,2.186708,4635729103079604200.000000,-0.380344,-0.659351,-0.470315,0.446541,0
-9.138338,1.221303,1.106430,-0.799521,-0.033063,0.009032,43.307985,8.818133,13.939785,4635731933898011600.000000,-0.694935,-0.193056,-0.650323,0.238485,-9.762821,0.636254,-0.128276,-0.500230,0.011478,-0.418474,38.211358,-23.093502,6.285181,4635727706678362100.000000,0.431462,-0.494818,0.626280,0.420439,-9.142203,-0.049972,-1.505548,0.371254,0.090931,0.029332,42.833055,15.625476,2.184687,4635729130886334500.000000,-0.379179,-0.660195,-0.469629,0.447006,0
-9.168882,1.232948,0.982112,-0.863366,-0.048071,0.025590,43.253589,8.690549,14.135096,4635732002182529000.000000,-0.695739,-0.190659,-0.650983,0.236257,-9.868323,0.616020,-0.177831,-0.485895,0.012818,-0.445594,38.259280,-22.436269,6.390490,4635727706678362100.000000,0.431296,-0.496662,0.624677,0.420820,-9.232397,0.079739,-1.737927,0.410684,0.091307,0.047413,42.917365,15.625476,2.087028,4635729317827969000.000000,-0.377935,-0.661137,-0.468818,0.447519,0
-9.233801,1.199647,0.919437,-0.925949,-0.077398,0.061183,43.226414,8.725534,14.197210,4635732002182529000.000000,-0.696698,-0.188146,-0.651583,0.233777,-9.938099,0.933213,-0.335605,-0.641885,0.017202,-0.489337,38.200066,-22.232782,6.421094,4635727706678362100.000000,0.430871,-0.498903,0.622713,0.421514,-9.344985,0.483284,-2.036348,0.402539,0.086343,0.049235,43.044448,15.615993,1.989370,4635729317827969000.000000,-0.376725,-0.662060,-0.468005,0.448025,0
-9.294838,1.109191,1.015459,-0.982462,-0.087588,0.110465,43.226414,8.744383,14.130608,4635732002182529000.000000,-0.697767,-0.185590,-0.652161,0.231005,-9.928995,0.790607,-0.266032,-0.680521,0.040952,-0.498634,38.264910,-22.487988,6.270809,4635727706678362100.000000,0.430317,-0.501275,0.620697,0.422239,-9.390652,0.703718,-2.186704,0.366427,0.077146,0.041620,42.970058,15.552232,1.891721,4635729317827969000.000000,-0.375617,-0.662892,-0.467264,0.448498,0
-9.430803,1.024300,1.012092,-1.024554,-0.123283,0.161347,43.226414,8.573995,14.107876,4635732002182529000.000000,-0.699003,-0.183013,-0.652625,0.227994,-9.824419,0.203573,-0.194048,-0.517526,0.044177,-0.521621,38.412676,-22.476934,6.157823,4635727706678362100.000000,0.430133,-0.503415,0.618920,0.422489,-9.422964,0.736327,-2.195753,0.318674,0.071428,0.033490,42.990591,15.563288,1.806696,4635729331720116200.000000,-0.374636,-0.663622,-0.466623,0.448905,0
-9.560071,1.025980,0.847287,-1.063053,-0.166149,0.204262,43.284685,8.338191,14.253271,4635732002182529000.000000,-0.700413,-0.180396,-0.652957,0.224781,-9.732412,0.456156,-0.283301,-0.399328,0.032397,-0.578320,38.300847,-22.120974,6.130305,4635727706678362100.000000,0.430324,-0.505465,0.617207,0.422353,-9.483137,0.593422,-2.202508,0.281462,0.068977,0.027181,43.117695,15.647166,1.806696,4635729425202151400.000000,-0.373750,-0.664277,-0.466065,0.449256,0
-9.570050,1.062598,0.756305,-1.093103,-0.178381,0.233584,43.370127,8.089633,14.261024,4635732002182529000.000000,-0.701891,-0.177756,-0.653246,0.221406,-9.667012,1.128091,-0.325218,-0.308585,0.050066,-0.615034,38.190079,-21.776128,5.967855,4635727794780586000.000000,0.430722,-0.507475,0.615604,0.421876,-9.368558,0.597833,-2.308361,0.253318,0.058058,0.014642,43.044882,15.699882,1.819319,4635729425202151400.000000,-0.372939,-0.664840,-0.465577,0.449601,0
-9.541750,1.107545,0.836209,-1.121653,-0.174011,0.247228,43.397320,7.841589,14.108982,4635732002182529000.000000,-0.703377,-0.175070,-0.653550,0.217906,-9.656056,1.577908,-0.479856,-0.240960,0.076388,-0.668801,38.372891,-21.446511,5.772525,4635727814052544500.000000,0.431287,-0.509544,0.614049,0.421070,-9.245741,0.820205,-2.189742,0.228159,0.053546,0.003406,43.087092,15.606528,1.915408,4635729425202151400.000000,-0.372187,-0.665334,-0.465161,0.449926,0
-9.633856,1.148050,0.970484,-1.151559,-0.174885,0.240479,43.239186,7.597452,14.125627,4635732002182529000.000000,-0.704865,-0.172274,-0.653870,0.214340,-9.826350,1.838328,-0.672988,-0.205109,0.092574,-0.740698,38.817391,-21.237111,5.737480,4635727814052544500.000000,0.432009,-0.511758,0.612428,0.420005,-9.283936,0.671407,-1.876372,0.192536,0.055442,-0.012098,43.269686,15.467945,2.004005,4635729425202151400.000000,-0.371500,-0.665745,-0.464857,0.450200,0
-9.788648,1.093132,0.988250,-1.173455,-0.198816,0.216401,43.223629,7.469832,14.293730,4635732002182529000.000000,-0.706396,-0.169322,-0.654140,0.210796,-10.023839,1.980101,-0.788158,-0.209384,0.116099,-0.810203,39.095301,-21.134146,5.817608,4635727725952633900.000000,0.432780,-0.514193,0.610688,0.418769,-9.345372,0.690323,-1.785836,0.163356,0.061953,-0.032012,43.025159,15.412451,2.087063,4635729425202151400.000000,-0.370846,-0.666082,-0.464674,0.450429,0
-9.889098,0.837353,0.918339,-1.174138,-0.230474,0.182463,43.309083,7.330009,14.489057,4635732002182529000.000000,-0.707967,-0.166244,-0.654327,0.207368,-10.068915,1.931912,-0.785659,-0.209741,0.131216,-0.868917,39.136936,-20.988617,5.835139,4635727706678362100.000000,0.433608,-0.516798,0.608843,0.417389,-9.510776,0.860456,-1.909487,0.145714,0.060711,-0.057545,42.768067,15.562093,1.989404,4635729425202151400.000000,-0.370195,-0.666340,-0.464594,0.450666,0
-9.879130,0.457872,0.807937,-1.147733,-0.238149,0.146879,43.386204,7.001040,14.501303,4635732002182529000.000000,-0.709493,-0.163136,-0.654478,0.204118,-10.081123,1.776344,-0.731196,-0.193582,0.152798,-0.939555,39.126921,-20.749785,5.674889,4635727706678362100.000000,0.434533,-0.519585,0.606905,0.415787,-9.792716,1.172713,-2.026429,0.121731,0.051926,-0.090279,43.000004,15.721961,1.902779,4635729425202151400.000000,-0.369564,-0.666482,-0.464633,0.450932,0
-9.855262,0.163211,0.677553,-1.109575,-0.194908,0.106537,43.525998,6.706379,14.353189,4635732002182529000.000000,-0.710826,-0.160064,-0.654738,0.201057,-10.133382,1.925901,-0.880452,-0.217292,0.175417,-1.010615,39.254903,-20.433394,5.790022,4635727706678362100.000000,0.435466,-0.522624,0.604805,0.414059,-9.964000,1.353838,-2.021704,0.077184,0.049273,-0.130002,43.192551,15.785356,1.917345,4635729397498504200.000000,-0.368988,-0.666473,-0.464862,0.451181,0
-9.951208,0.027216,0.584868,-1.078061,-0.136595,0.064539,43.630347,6.570384,14.236633,4635732002182529000.000000,-0.711929,-0.157017,-0.655159,0.198163,-10.214443,2.195689,-1.035710,-0.281067,0.204857,-1.069720,39.543758,-20.093795,5.973125,4635727706678362100.000000,0.436279,-0.525968,0.602510,0.412310,-9.878156,1.478660,-2.003980,0.012268,0.048549,-0.185684,43.108284,15.729826,2.087466,4635729210453786600.000000,-0.368489,-0.666254,-0.465368,0.451391,0
-10.147578,0.083174,0.428462,-1.073583,-0.134575,0.016338,43.653675,6.376820,14.275957,4635732002182529000.000000,-0.712971,-0.153851,-0.655602,0.195419,-10.379998,2.296227,-1.032005,-0.369088,0.241966,-1.105305,39.791061,-19.762000,6.006042,4635727794750189600.000000,0.436858,-0.529615,0.600041,0.410626,-9.718278,1.818903,-2.123293,-0.060708,0.034354,-0.242846,42.959036,15.868439,2.074869,4635729210453786600.000000,-0.368113,-0.665785,-0.466148,0.451585,0
-10.317395,0.088808,0.283057,-1.075625,-0.193002,-0.035657,43.603775,6.190905,14.448457,4635732002182529000.000000,-0.714117,-0.150486,-0.655894,0.192858,-10.533070,1.956747,-1.055461,-0.428532,0.292685,-1.119635,39.892835,-19.362310,6.076133,4635727814052544500.000000,0.437179,-0.533502,0.597499,0.408956,-9.637555,1.787436,-2.303238,-0.148083,0.011133,-0.302485,42.884609,15.952308,1.989807,4635729210453786600.000000,-0.367911,-0.665022,-0.467220,0.451767,0
-10.305869,0.015029,0.169300,-1.048700,-0.232116,-0.079264,43.472315,6.023893,14.522919,4635732002182529000.000000,-0.715305,-0.147047,-0.656063,0.190521,-10.619474,1.159097,-1.162161,-0.431808,0.292650,-1.115423,40.096225,-19.007370,6.011400,4635727814052544500.000000,0.437477,-0.537367,0.594951,0.407288,-9.590299,1.530701,-2.430467,-0.217584,-0.009817,-0.352379,42.873596,16.046007,2.002394,4635729210453786600.000000,-0.367847,-0.664015,-0.468527,0.451946,0
-10.103987,-0.012207,0.184180,-1.023005,-0.161402,-0.115875,43.479950,5.969420,14.460278,4635732002182529000.000000,-0.716241,-0.143639,-0.656432,0.188317,-10.932991,1.261305,-0.353168,-0.467256,0.269512,-1.103566,40.338172,-18.745661,5.993835,4635727814052544500.000000,0.437722,-0.541216,0.592313,0.405770,-9.558396,1.214072,-2.343445,-0.272713,-0.028113,-0.391729,42.808594,16.279514,2.074882,4635729210453786600.000000,-0.367897,-0.662808,-0.470019,0.452127,0
-9.964063,0.095907,0.182576,-1.022698,-0.098049,-0.143119,43.557084,5.969420,14.362619,4635732002182529000.000000,-0.716970,-0.140204,-0.656996,0.186153,-11.118993,1.078154,-0.150883,-0.576054,0.254390,-1.115275,40.572284,-18.351383,6.073917,4635727814052544500.000000,0.437769,-0.545253,0.589424,0.404521,-9.575673,1.075465,-2.248946,-0.323118,-0.048160,-0.421325,42.870831,16.492203,1.964677,4635729210453786600.000000,-0.368066,-0.661428,-0.471653,0.452310,0
-10.053243,0.354376,0.270690,-1.031970,-0.145116,-0.150609,43.638638,5.969420,14.398015,4635732002182529000.000000,-0.717815,-0.136682,-0.657419,0.184011,-10.895079,0.314628,-0.066399,-0.733063,0.266975,-1.110467,40.804242,-18.004181,6.001393,4635727814052544500.000000,0.437407,-0.549571,0.586288,0.403626,-9.697394,0.949141,-2.194555,-0.357344,-0.072698,-0.440384,42.861763,16.501633,1.818064,4635729210453786600.000000,-0.368337,-0.659910,-0.473360,0.452522,0
-10.207499,0.734351,0.375591,-1.049585,-0.260337,-0.162248,43.607683,5.911222,14.362638,4635732002182529000.000000,-0.718963,-0.132985,-0.657506,0.181917,-10.649957,-0.802403,-0.499345,-0.819598,0.271117,-1.077201,40.835959,-17.734643,5.901536,4635727814052544500.000000,0.436768,-0.553956,0.583073,0.402978,-9.730871,0.555766,-2.266221,-0.369885,-0.091023,-0.449278,42.851989,16.595281,2.015285,4635729210453786600.000000,-0.368662,-0.658316,-0.475088,0.452770,0
-10.146143,1.091192,0.402844,-1.088405,-0.344137,-0.180066,43.580429,5.825773,14.206788,4635732002182529000.000000,-0.720334,-0.129056,-0.657367,0.179813,-10.858490,-0.983184,-0.558122,-0.820701,0.246784,-1.069408,40.893826,-17.418250,5.883968,4635727814052544500.000000,0.436161,-0.558267,0.579813,0.402390,-9.761904,0.259149,-2.319407,-0.382487,-0.116900,-0.445662,42.693307,16.827196,2.283129,4635729210453786600.000000,-0.369080,-0.656654,-0.476791,0.453053,0
-10.029006,1.237898,0.469361,-1.148503,-0.290031,-0.158939,43.688518,5.748629,14.148380,4635732002182529000.000000,-0.721588,-0.125042,-0.657410,0.177447,-10.573120,-0.546215,-0.719482,-0.854984,0.280811,-1.010540,40.967060,-17.088690,5.954030,4635727814052544500.000000,0.435280,-0.562539,0.576679,0.401899,-9.903342,0.192181,-2.335096,-0.409770,-0.137195,-0.438155,42.564422,17.038741,2.366667,4635729210453786600.000000,-0.369625,-0.654921,-0.478492,0.453322,0
-10.155811,1.116041,0.542069,-1.176896,-0.137450,-0.077234,43.855509,5.667081,14.281389,4635732002182529000.000000,-0.722483,-0.121277,-0.657875,0.174675,-9.797686,-0.761975,-0.927024,-0.894594,0.285089,-0.917072,41.110380,-16.749056,5.809265,4635727637965071400.000000,0.434127,-0.566650,0.573689,0.401650,-9.904225,0.155216,-2.450893,-0.450419,-0.157352,-0.423613,42.628254,17.093159,2.357598,4635729210453786600.000000,-0.370346,-0.653112,-0.480196,0.453541,0
-10.553976,0.891907,0.519980,-1.179576,-0.053155,0.035869,43.851845,5.589948,14.476693,4635732002182529000.000000,-0.723214,-0.117873,-0.658523,0.171508,-9.383651,-1.340490,-1.064461,-0.905895,0.218453,-0.895002,41.329095,-16.477362,5.774102,4635727687329109000.000000,0.433059,-0.570602,0.570596,0.401612,-9.747113,0.033155,-2.502185,-0.505546,-0.176303,-0.411727,42.596904,17.048137,2.343156,4635729210453786600.000000,-0.371274,-0.651203,-0.481937,0.453681,0
-10.880468,0.792957,0.334241,-1.211241,-0.150086,0.128257,43.666628,5.508384,14.480826,4635732002182529000.000000,-0.724275,-0.114555,-0.658842,0.168019,-8.986216,-1.422660,-1.286600,-0.997046,0.118206,-0.943950,41.561023,-16.090925,5.844151,4635727706678362100.000000,0.432083,-0.574652,0.567039,0.401929,-9.614731,-0.070109,-2.409228,-0.558296,-0.194079,-0.398910,42.373133,17.207165,2.172918,4635729210453786600.000000,-0.372400,-0.649200,-0.483711,0.453740,0
-10.812639,0.881013,0.007008,-1.280778,-0.323333,0.179267,43.534457,5.314893,14.395384,4635732002182529000.000000,-0.725861,-0.111042,-0.658644,0.164264,-8.240932,-1.095833,-1.050409,-1.155224,0.019657,-0.968934,41.672879,-15.876014,5.779497,4635727706678362100.000000,0.430990,-0.578861,0.562961,0.402794,-9.582811,-0.061370,-2.343489,-0.612194,-0.214727,-0.384995,42.308058,17.459151,2.208970,4635729196666390500.000000,-0.373737,-0.647096,-0.485514,0.453721,0
-10.418400,1.177082,-0.309322,-1.341249,-0.414438,0.184654,43.623535,5.012589,14.376425,4635732002182529000.000000,-0.727707,-0.107296,-0.658190,0.160363,-7.703280,-0.755264,-0.678618,-1.349365,-0.042515,-0.963259,41.688282,-15.715133,5.441707,4635727706678362100.000000,0.429548,-0.583279,0.558436,0.404257,-9.587513,-0.159027,-2.248966,-0.652588,-0.223409,-0.365963,42.371899,17.736120,2.466227,4635729130651088900.000000,-0.375235,-0.644942,-0.487327,0.453607,0
-9.817597,1.618139,-0.352974,-1.376525,-0.409373,0.146676,43.727960,4.849195,14.380322,4635732002182529000.000000,-0.729504,-0.103339,-0.657770,0.156473,-7.637431,-0.795878,-0.530325,-1.551731,-0.090861,-0.946450,41.748317,-15.476396,5.051078,4635727706678362100.000000,0.427678,-0.587911,0.553497,0.406317,-9.625698,-0.219092,-2.169465,-0.674686,-0.232747,-0.363581,42.353106,17.788678,2.551347,4635729317827969000.000000,-0.376813,-0.642734,-0.489157,0.453465,0
-9.316372,1.961206,-0.105227,-1.414473,-0.344952,0.089594,43.809504,4.763754,14.255670,4635732002182529000.000000,-0.731079,-0.099148,-0.657572,0.152619,-7.731885,-1.778432,-0.422661,-1.686391,-0.120349,-0.899400,42.021672,-15.220040,4.910581,4635727706678362100.000000,0.425443,-0.592593,0.548360,0.408818,-9.662000,-0.017513,-2.039564,-0.681945,-0.239539,-0.365827,42.225407,17.650659,2.551347,4635729317827969000.000000,-0.378414,-0.640490,-0.490991,0.453326,0
-9.096875,2.009298,0.049855,-1.449925,-0.282296,0.053776,44.002968,4.404106,14.147355,4635732002182529000.000000,-0.732448,-0.094787,-0.657579,0.148746,-7.751701,-3.250360,-0.482879,-1.701841,-0.139855,-0.816235,42.208975,-14.963710,4.655063,4635727706678362100.000000,0.423050,-0.597045,0.543336,0.411525,-9.616304,0.215660,-1.868987,-0.703060,-0.242086,-0.364019,42.214454,17.754879,2.563865,4635729317827969000.000000,-0.380075,-0.638204,-0.492849,0.453142,0
-9.107748,1.723913,-0.101248,-1.475426,-0.296164,0.049566,44.080933,4.140157,14.065801,4635732002182529000.000000,-0.733835,-0.090325,-0.657537,0.144816,-7.761705,-4.198216,-0.780619,-1.641842,-0.145758,-0.724762,42.237614,-14.787394,4.282059,4635727706678362100.000000,0.420640,-0.601142,0.538600,0.414247,-9.602849,0.354015,-1.794488,-0.728944,-0.248523,-0.378289,42.108641,17.975880,2.636480,4635729317827969000.000000,-0.381788,-0.635827,-0.494781,0.452939,0
-9.222528,1.358233,-0.257885,-1.505125,-0.354449,0.069445,44.022775,4.139329,13.963740,4635732002182529000.000000,-0.735377,-0.085788,-0.657303,0.140760,-7.683875,-4.405860,-1.082410,-1.513378,-0.148087,-0.636402,42.307644,-14.688722,4.051488,4635727706678362100.000000,0.418386,-0.604784,0.534276,0.416820,-9.670136,0.349322,-1.802310,-0.748415,-0.261997,-0.386533,41.884858,18.114529,2.540397,4635729317827969000.000000,-0.383559,-0.633369,-0.496742,0.452740,0
-9.381727,0.987616,-0.209901,-1.533148,-0.379281,0.102690,43.937327,3.938416,13.745878,4635732002182529000.000000,-0.736987,-0.081239,-0.656971,0.136528,-7.496179,-4.208993,-1.415404,-1.388139,-0.143220,-0.552316,42.383093,-14.533241,3.936203,4635727882667392000.000000,0.416275,-0.608005,0.530369,0.419229,-9.776864,0.286131,-1.864904,-0.761615,-0.272814,-0.386559,41.830676,18.198410,2.476837,4635729317827969000.000000,-0.385381,-0.630862,-0.498704,0.452536,0
-9.569246,0.551032,0.011866,-1.548607,-0.334806,0.133192,43.968183,3.558970,13.676700,4635731929109327900.000000,-0.738467,-0.076747,-0.656746,0.132140,-7.348691,-3.712593,-1.617137,-1.263756,-0.113180,-0.460256,42.386310,-14.222314,3.758530,4635727921426726900.000000,0.414240,-0.610841,0.526947,0.421433,-9.840432,0.038852,-1.930333,-0.768519,-0.283880,-0.391984,41.969051,18.293541,2.562290,4635729317827969000.000000,-0.387228,-0.628303,-0.500669,0.452350,0
-9.756257,0.103767,0.213967,-1.546930,-0.265717,0.150060,44.053634,3.264126,13.759269,4635731894808346600.000000,-0.739735,-0.072342,-0.656701,0.127676,-7.284427,-3.533360,-1.968123,-1.121266,-0.070926,-0.352246,42.454131,-13.960511,3.563196,4635727921426726900.000000,0.412275,-0.613253,0.524109,0.423391,-9.754973,-0.221910,-1.936285,-0.762467,-0.291658,-0.383575,41.958102,18.504860,2.636799,4635729317827969000.000000,-0.389087,-0.625746,-0.502582,0.452177,0
-9.889522,-0.344008,0.326717,-1.528549,-0.239903,0.151633,44.139087,2.961824,13.869135,4635731894808346600.000000,-0.740899,-0.068008,-0.656699,0.123246,-7.305621,-3.275662,-2.568791,-0.967064,-0.021008,-0.249045,42.669614,-13.916440,3.607963,4635727921426726900.000000,0.410407,-0.615252,0.521882,0.425053,-9.677347,-0.426269,-1.887177,-0.743629,-0.307788,-0.374187,41.872671,18.505148,2.625868,4635729317827969000.000000,-0.390942,-0.623202,-0.504403,0.452064,0
-9.957842,-0.729162,0.461989,-1.499967,-0.265813,0.143341,44.274359,2.690418,13.779646,4635731894808346600.000000,-0.742092,-0.063724,-0.656580,0.118921,-7.442253,-2.722682,-3.225708,-0.768252,0.026756,-0.135331,42.713703,-13.976448,3.545587,4635727921426726900.000000,0.408740,-0.616741,0.520374,0.426348,-9.651371,-0.601572,-1.748211,-0.719310,-0.317265,-0.350799,41.787218,18.618709,2.538854,4635729317827969000.000000,-0.392792,-0.620721,-0.506094,0.451984,0
-9.915322,-1.041602,0.662179,-1.450831,-0.302037,0.136294,44.383208,2.554258,13.721121,4635731894808346600.000000,-0.743339,-0.059553,-0.656301,0.114757,-7.570955,-2.002238,-3.804939,-0.573075,0.080760,-0.011017,42.583673,-13.999686,3.367901,4635727921426726900.000000,0.407233,-0.617721,0.519620,0.427291,-9.617872,-0.728328,-1.578871,-0.688036,-0.325810,-0.320755,41.701766,18.905152,2.464618,4635729317827969000.000000,-0.394630,-0.618330,-0.507629,0.451937,0
-9.763447,-1.259838,0.931724,-1.385888,-0.318053,0.130954,44.360713,2.418989,13.853974,4635731894808346600.000000,-0.744586,-0.055558,-0.655920,0.110788,-7.603005,-1.567725,-4.256378,-0.393968,0.147669,0.123753,42.485005,-14.001891,3.332621,4635727921426726900.000000,0.405802,-0.618222,0.519642,0.427901,-9.607226,-0.868286,-1.426432,-0.647587,-0.334081,-0.290601,41.617886,19.043549,2.528219,4635729317827969000.000000,-0.396435,-0.616047,-0.508992,0.451942,0
-9.621852,-1.376523,1.208095,-1.302269,-0.310273,0.127793,44.229345,2.202170,13.933047,4635731894808346600.000000,-0.745767,-0.051816,-0.655505,0.107051,-7.755208,-2.031496,-4.663619,-0.173107,0.188221,0.260470,42.409558,-14.071889,3.412619,4635727921426726900.000000,0.404607,-0.618124,0.520478,0.428158,-9.608786,-0.860211,-1.318126,-0.612161,-0.339944,-0.265078,41.572723,19.054470,2.416244,4635729317827969000.000000,-0.398205,-0.613860,-0.510208,0.451992,0
-9.499788,-1.345735,1.385310,-1.209304,-0.313481,0.124204,44.170291,2.007856,13.683482,4635731894808346600.000000,-0.746915,-0.048351,-0.655021,0.103577,-8.198361,-2.598545,-4.826481,0.131142,0.176901,0.374454,42.326305,-14.217355,3.350273,4635727921426726900.000000,0.404015,-0.617244,0.522128,0.427976,-9.633475,-0.719963,-1.211105,-0.604957,-0.341807,-0.233579,41.678647,19.147724,2.160710,4635729317827969000.000000,-0.400013,-0.611745,-0.511318,0.452007,0
-9.419223,-1.218765,1.494689,-1.113850,-0.345573,0.113393,44.224506,1.953184,13.429579,4635731894808346600.000000,-0.748108,-0.045138,-0.654383,0.100402,-8.848759,-2.427869,-4.176420,0.410410,0.158167,0.458014,42.380852,-14.316031,3.492602,4635727921426726900.000000,0.404031,-0.615675,0.524457,0.427374,-9.748020,-0.665985,-1.065164,-0.595658,-0.341671,-0.205262,41.501507,19.264570,2.198150,4635729317827969000.000000,-0.401848,-0.609700,-0.512337,0.451990,0
-9.432910,-1.163608,1.567437,-1.006098,-0.397400,0.087157,44.309953,1.836952,13.508246,4635731894808346600.000000,-0.749395,-0.042166,-0.653530,0.097609,-9.532412,-2.228244,-2.928502,0.599296,0.139132,0.523744,42.466307,-14.541480,3.767927,4635727921426726900.000000,0.404452,-0.613602,0.527253,0.426515,-9.888259,-0.944399,-1.103605,-0.555662,-0.341012,-0.172130,41.330116,19.180686,2.453688,4635729317827969000.000000,-0.403642,-0.607785,-0.513197,0.451995,0
-9.564756,-1.201213,1.736396,-0.922661,-0.459094,0.059473,44.445211,1.508320,13.391992,4635731894808346600.000000,-0.750811,-0.039354,-0.652443,0.095139,-10.165981,-2.227328,-1.625785,0.715070,0.111158,0.568387,42.221802,-14.787817,3.740929,4635727921426726900.000000,0.405145,-0.611178,0.530313,0.425543,-9.978124,-1.452426,-1.244118,-0.483415,-0.340694,-0.131950,41.487250,19.127702,2.441220,4635729290411090900.000000,-0.405324,-0.606075,-0.513816,0.452083,0
-9.727357,-1.278853,2.188581,-0.887373,-0.483957,0.044733,44.603909,1.205098,12.982297,4635731894808346600.000000,-0.752271,-0.036602,-0.651256,0.092813,-10.678564,-1.874017,-0.601781,0.721570,0.101372,0.602852,42.034395,-14.971970,3.803244,4635727921426726900.000000,0.405808,-0.608638,0.533448,0.424633,-9.999169,-1.853716,-1.419426,-0.360954,-0.324831,-0.095386,41.594790,19.211590,2.356029,4635729103079604200.000000,-0.406730,-0.604676,-0.514136,0.452329,0
-9.827935,-1.430705,2.642165,-0.880496,-0.435891,0.035121,44.704486,1.181187,12.697167,4635731894808346600.000000,-0.753583,-0.033864,-0.650208,0.090527,-10.906923,-1.444507,0.022717,0.660242,0.107406,0.636843,41.935679,-15.002898,4.060904,4635727921426726900.000000,0.406234,-0.606126,0.536561,0.423896,-9.918385,-1.693967,-1.527484,-0.231673,-0.319535,-0.064679,41.456341,19.284841,2.331093,4635729103079604200.000000,-0.407857,-0.603569,-0.514144,0.452784,0
-9.859675,-1.613809,2.654875,-0.862723,-0.344034,0.031318,44.669823,1.258335,12.701066,4635731894808346600.000000,-0.754631,-0.031205,-0.649434,0.088287,-10.907834,-0.937241,0.352068,0.551925,0.133450,0.650900,41.990222,-15.142895,4.113895,4635727921426726900.000000,0.406297,-0.603802,0.539553,0.423354,-9.864890,-1.185738,-1.524119,-0.145159,-0.328466,-0.038159,41.465683,19.350291,2.135798,4635729103079604200.000000,-0.408833,-0.602648,-0.513904,0.453402,0
-9.905079,-1.738809,2.459087,-0.834185,-0.227660,0.024441,44.534581,1.281777,12.732322,4635731894808346600.000000,-0.755348,-0.028660,-0.649007,0.086130,-10.901211,-0.522358,0.572819,0.397889,0.157232,0.646514,41.945684,-15.373773,4.123894,4635727921426726900.000000,0.405922,-0.601782,0.542295,0.423086,-9.787226,-0.649154,-1.403377,-0.107202,-0.332875,-0.027751,41.518698,19.359385,1.977837,4635729103079604200.000000,-0.409741,-0.601806,-0.513557,0.454094,0
-10.007608,-1.828166,2.392651,-0.804278,-0.132806,0.017732,44.591664,1.173891,12.674229,4635731894808346600.000000,-0.755794,-0.026224,-0.648861,0.084062,-11.201123,0.188138,0.890288,0.193562,0.201529,0.626792,42.002411,-15.697868,4.286055,4635727921426726900.000000,0.404964,-0.600223,0.544697,0.423133,-9.767477,-0.318720,-1.225176,-0.103086,-0.337671,-0.019615,41.444134,19.348734,2.063051,4635729103079604200.000000,-0.410666,-0.600975,-0.513176,0.454790,0
-10.113084,-1.880422,2.293064,-0.772917,-0.124243,0.013118,44.758659,1.015195,12.713261,4635731894808346600.000000,-0.756205,-0.023878,-0.648726,0.082091,-11.527350,0.319603,1.062142,0.038544,0.244539,0.605236,41.957901,-15.959694,4.321421,4635727745566551000.000000,0.403555,-0.599046,0.546838,0.423385,-9.778130,-0.250365,-1.173465,-0.106815,-0.339283,-0.013730,41.464337,19.350288,2.027306,4635729103079604200.000000,-0.411615,-0.600145,-0.512783,0.455470,0
-10.160950,-1.900446,2.138276,-0.730707,-0.202887,0.015380,44.755284,0.906292,12.810920,4635731894808346600.000000,-0.756817,-0.021644,-0.648322,0.080235,-11.894726,0.297399,0.776558,-0.066782,0.312439,0.583873,41.814680,-16.073883,4.171469,4635727706678362100.000000,0.401763,-0.598210,0.548848,0.423670,-9.771918,-0.322482,-1.179460,-0.103282,-0.344215,-0.004661,41.590407,19.370258,1.757435,4635729103079604200.000000,-0.412580,-0.599332,-0.512349,0.456155,0
-10.094076,-1.896056,2.070868,-0.699684,-0.276725,0.034518,44.727924,0.762748,12.717705,4635731894808346600.000000,-0.757626,-0.019534,-0.647668,0.078407,-11.223492,-0.146881,-0.221673,-0.151737,0.371271,0.569508,41.526024,-16.299290,4.138309,4635727706678362100.000000,0.399647,-0.597648,0.550766,0.423977,-9.730853,-0.554422,-1.155260,-0.068037,-0.347439,0.000000,41.475669,19.423317,1.588515,4635729103079604200.000000,-0.413472,-0.598582,-0.511830,0.456914,0
-9.901239,-1.817466,2.237308,-0.682721,-0.265382,0.067412,44.727924,0.600156,12.468225,4635731894808346600.000000,-0.758407,-0.017571,-0.647036,0.076520,-10.500087,-0.594036,-1.017070,-0.096653,0.391825,0.560189,41.338590,-16.485668,4.528185,4635727706678362100.000000,0.397634,-0.597045,0.552788,0.424087,-9.771008,-0.759964,-1.216296,0.031252,-0.359886,-0.000272,41.293416,19.330102,1.599170,4635729103079604200.000000,-0.414144,-0.597975,-0.511103,0.457914,0
-9.644437,-1.516794,2.427261,-0.677548,-0.167532,0.103725,44.669851,0.549333,12.320232,4635731894808346600.000000,-0.758929,-0.015752,-0.646703,0.074525,-10.286332,-1.191178,-1.907161,0.060508,0.374905,0.569137,41.239882,-16.586585,4.854293,4635727706678362100.000000,0.396032,-0.596126,0.555078,0.423889,-9.999822,-0.799890,-1.244748,0.225081,-0.379157,-0.004172,41.442787,19.211554,1.597618,4635729130370918400.000000,-0.414367,-0.597654,-0.509981,0.459378,0
-9.500325,-1.151060,2.154559,-0.671399,-0.070832,0.136411,44.592698,0.491261,12.359223,4635731894808346600.000000,-0.759194,-0.014072,-0.646668,0.072435,-9.936580,-1.156262,-2.704965,0.232670,0.333040,0.600321,41.164429,-16.871943,4.987339,4635727706678362100.000000,0.394897,-0.594769,0.557674,0.423445,-10.187180,-0.902941,-1.044775,0.448564,-0.358944,-0.019109,41.504969,19.304966,1.538870,4635729317827969000.000000,-0.413961,-0.597722,-0.508504,0.461290,0
-9.531010,-0.797074,1.819524,-0.674467,-0.010407,0.161578,44.627295,0.356046,12.456874,4635731894808346600.000000,-0.759299,-0.012467,-0.646818,0.070254,-9.223880,-0.383426,-3.104204,0.346044,0.284486,0.616328,41.031214,-17.271510,5.094993,4635727706678362100.000000,0.394122,-0.593097,0.560424,0.422882,-10.208087,-0.693664,-0.817492,0.536889,-0.320816,-0.023464,41.418169,19.498124,1.148036,4635729317827969000.000000,-0.413242,-0.598004,-0.506928,0.463299,0
-9.566691,-0.459662,1.882753,-0.711317,-0.008449,0.170219,44.704448,0.131000,12.305694,4635731894808346600.000000,-0.759397,-0.010770,-0.646980,0.067945,-8.612584,0.459868,-3.031794,0.363364,0.244101,0.612336,40.934709,-17.486638,5.354761,4635727706678362100.000000,0.393487,-0.591327,0.563122,0.422367,-10.038751,-0.377662,-0.645442,0.533143,-0.309102,-0.008410,41.416812,19.424887,0.709196,4635729304195198000.000000,-0.412533,-0.598333,-0.505334,0.465244,0
-9.529132,-0.179830,1.911712,-0.752811,-0.075919,0.165823,44.785987,-0.050705,12.095193,4635731894808346600.000000,-0.759671,-0.008911,-0.646935,0.065540,-8.578509,0.590385,-2.653278,0.301091,0.210898,0.586498,40.859259,-17.587572,5.477828,4635727706678362100.000000,0.392818,-0.589654,0.565587,0.422035,-9.894004,0.053273,-0.617736,0.440879,-0.309322,-0.006392,41.469906,19.370241,0.549333,4635729210453786600.000000,-0.412055,-0.598503,-0.503911,0.466989,0
-9.443219,0.084799,1.726277,-0.780033,-0.158379,0.150364,44.921193,-0.097659,12.160903,4635731894808346600.000000,-0.760156,-0.006901,-0.646631,0.063114,-8.993708,0.366122,-2.166073,0.220008,0.172734,0.523366,40.776025,-17.742969,5.503324,4635727706678362100.000000,0.392147,-0.588191,0.567686,0.421882,-9.821930,0.762841,-0.491205,0.174862,-0.291198,0.008255,41.386007,19.404742,0.549333,4635729210453786600.000000,-0.412232,-0.598278,-0.503000,0.468101,0
-9.204581,0.320179,1.706051,-0.812622,-0.204765,0.117351,44.972073,-0.205469,12.227904,4635731894808346600.000000,-0.760751,-0.004687,-0.646182,0.060704,-9.432042,0.537225,-1.645585,0.127269,0.159443,0.456366,40.770513,-17.973827,5.505539,4635727706678362100.000000,0.391396,-0.587011,0.569432,0.421871,-9.633370,1.400935,-0.431904,-0.058559,-0.295039,0.061067,41.342189,19.182116,0.513719,4635729210453786600.000000,-0.413102,-0.597754,-0.502405,0.468642,0
-8.907713,0.498434,1.857832,-0.857260,-0.211070,0.076382,44.864276,-0.430489,12.107437,4635731894808346600.000000,-0.761343,-0.002219,-0.645718,0.058304,-9.639468,0.975659,-1.400454,0.013842,0.172075,0.406753,40.702780,-18.088074,5.665417,4635727706678362100.000000,0.390423,-0.586153,0.570875,0.422015,-9.749433,1.402943,-0.448395,-0.311890,-0.342094,0.085603,41.490047,19.054389,0.243785,4635729210453786600.000000,-0.414746,-0.596755,-0.502159,0.468728,0
-8.747421,0.541043,1.933144,-0.892263,-0.206455,0.031827,44.755342,-0.512711,11.990673,4635731894808346600.000000,-0.761903,0.000478,-0.645269,0.055950,-9.668263,1.151965,-1.587036,-0.086158,0.190912,0.355582,40.557390,-18.173518,5.860717,4635727706678362100.000000,0.389250,-0.585609,0.572047,0.422267,-9.887997,0.889818,-0.340258,-0.512162,-0.348709,0.096438,41.532307,19.158443,0.085641,4635729210453786600.000000,-0.416919,-0.595416,-0.502262,0.468391,0
-8.699504,0.454214,1.808319,-0.895713,-0.215241,-0.017007,44.736215,-0.562458,12.153951,4635731894808346600.000000,-0.762465,0.003319,-0.644785,0.053741,-9.688243,1.101983,-1.755669,-0.156931,0.204018,0.285767,40.468640,-18.328887,5.976094,4635727706678362100.000000,0.387996,-0.585367,0.572943,0.422541,-9.872527,0.209441,-0.355899,-0.631214,-0.329246,0.119450,41.384646,19.360941,0.206484,4635729210453786600.000000,-0.419391,-0.593950,-0.502574,0.467711,0
-8.799449,0.182915,1.712496,-0.885717,-0.236723,-0.058503,44.740131,-0.585955,12.376675,4635731894808346600.000000,-0.763065,0.006245,-0.644221,0.051690,-9.762613,1.286272,-1.702356,-0.209854,0.219265,0.213807,40.525269,-18.499804,5.913910,4635727706678362100.000000,0.386702,-0.585409,0.573593,0.422788,-9.759735,-0.412632,-0.551049,-0.666780,-0.321348,0.169533,41.426245,19.340830,0.462503,4635729210453786600.000000,-0.422031,-0.592533,-0.502843,0.466843,0
-8.991283,-0.349502,1.680251,-0.861256,-0.288849,-0.085729,44.789867,-0.643979,12.182380,4635731894808346600.000000,-0.763790,0.009177,-0.643476,0.049788,-9.778130,1.110806,-1.684622,-0.257435,0.230917,0.162347,40.600731,-18.390964,5.816248,4635727794556908500.000000,0.385353,-0.585670,0.574050,0.423037,-9.738749,-0.715429,-0.614510,-0.663755,-0.299806,0.223437,41.639454,19.172856,0.501549,4635729210453786600.000000,-0.424719,-0.591271,-0.503008,0.465828,0
-9.149069,-0.988633,1.672414,-0.828831,-0.357630,-0.095105,44.863110,-0.621675,11.795677,4635731894808346600.000000,-0.764688,0.012046,-0.642497,0.048000,-9.748160,0.772342,-1.684622,-0.300059,0.233730,0.105738,40.624021,-18.499791,5.728588,4635727814052544500.000000,0.383992,-0.586139,0.574296,0.423291,-9.920453,-0.551797,-0.350453,-0.690809,-0.252649,0.256112,41.628635,18.961031,0.222354,4635729210453786600.000000,-0.427431,-0.590118,-0.503219,0.464580,0
-9.266773,-1.585893,1.672414,-0.789191,-0.397667,-0.088155,44.944642,-0.598163,11.736587,4635732040619728900.000000,-0.765687,0.014777,-0.641375,0.046293,-9.731518,0.478272,-1.884411,-0.324234,0.234798,0.064472,40.496374,-18.660702,5.633149,4635727814052544500.000000,0.382642,-0.586746,0.574399,0.423532,-10.138169,-0.117559,-0.062424,-0.775603,-0.188140,0.270796,41.566367,18.867692,0.046529,4635729210453786600.000000,-0.430237,-0.588964,-0.503665,0.462967,0
-9.335196,-1.919270,1.697280,-0.748641,-0.402995,-0.077131,45.079827,-0.705915,11.643607,4635732109556711400.000000,-0.766695,0.017350,-0.640221,0.044658,-9.739290,0.357333,-2.148538,-0.330544,0.231496,0.033206,40.327689,-18.629597,5.765248,4635727814052544500.000000,0.381339,-0.587431,0.574408,0.423746,-10.089336,0.836895,-0.004805,-0.949085,-0.114447,0.281179,41.684140,18.645013,0.511992,4635729210453786600.000000,-0.433332,-0.587652,-0.504551,0.460779,0
-9.350871,-2.221862,1.601297,-0.717099,-0.391471,-0.065725,45.238511,-0.872886,11.261606,4635732109556711400.000000,-0.767668,0.019789,-0.639092,0.043072,-9.681578,0.201971,-2.197333,-0.298789,0.228098,0.011166,40.296638,-18.546372,5.958329,4635727814052544500.000000,0.380161,-0.588110,0.574413,0.423856,-10.040517,2.184503,-0.122074,-1.221316,-0.048100,0.272340,41.908016,18.515688,0.940115,4635729210453786600.000000,-0.436928,-0.585941,-0.506093,0.457861,0
-9.301141,-2.513954,1.368000,-0.698029,-0.369990,-0.050349,45.231449,-0.927763,11.050719,4635732109556711400.000000,-0.768581,0.022123,-0.638023,0.041488,-9.668263,-0.168648,-2.147399,-0.234804,0.218777,-0.003883,40.366547,-18.730574,5.993835,4635727814052544500.000000,0.379188,-0.588706,0.574478,0.423812,-9.988599,3.861984,-0.140603,-1.607450,0.019733,0.246029,41.889488,18.579668,1.060935,4635729210453786600.000000,-0.441258,-0.583580,-0.508542,0.453995,0
-9.169899,-2.674757,1.207197,-0.688152,-0.314972,-0.024560,45.146006,-0.878043,10.956992,4635731963780317200.000000,-0.769345,0.024346,-0.637124,0.039852,-9.778128,-0.274111,-1.976492,-0.162748,0.201977,-0.024761,40.452004,-18.774986,6.073737,4635727814052544500.000000,0.378468,-0.589208,0.574592,0.423602,-9.929250,5.861311,-0.317967,-2.083717,0.088056,0.213026,41.773879,18.559598,1.355596,4635729210453786600.000000,-0.446510,-0.580368,-0.512067,0.448987,0
-8.961501,-2.685186,1.163625,-0.679226,-0.223797,0.014771,45.068848,-0.912518,10.801340,4635731894808346600.000000,-0.769868,0.026421,-0.636515,0.038123,-9.782571,0.138676,-1.741241,-0.130316,0.198675,-0.047191,40.527463,-18.645157,6.251283,4635727814052544500.000000,0.377876,-0.589706,0.574704,0.423287,-10.052254,7.809653,-0.702392,-2.654659,0.127908,0.160094,41.871525,18.391662,1.756990,4635729210453786600.000000,-0.452913,-0.575998,-0.516813,0.442720,0
-8.845561,-2.499421,1.143132,-0.658738,-0.120873,0.058565,45.153033,-1.047685,10.742515,4635731894808346600.000000,-0.770121,0.028298,-0.636234,0.036318,-9.638318,0.501577,-1.766735,-0.162742,0.202171,-0.076612,40.540787,-18.686196,6.366705,4635727814052544500.000000,0.377248,-0.590331,0.574690,0.422994,-10.797186,7.513710,-0.979408,-3.260830,0.127256,0.059211,41.959930,18.178232,2.280912,4635729210453786600.000000,-0.460515,-0.570178,-0.522840,0.435272,0
-8.859092,-2.143669,1.085580,-0.627305,-0.040469,0.098731,45.262008,-1.206368,10.808792,4635731894808346600.000000,-0.770166,0.029954,-0.636206,0.034477,-9.627197,0.641423,-2.011944,-0.229443,0.203822,-0.109333,40.540787,-18.701742,6.304589,4635727814052544500.000000,0.376509,-0.591142,0.574481,0.422805,-11.593946,5.456406,-0.791511,-3.763301,0.139167,-0.084005,41.965822,18.083511,3.124688,4635729210453786600.000000,-0.468926,-0.562978,-0.530035,0.426881,0
-8.957625,-1.823683,0.979201,-0.605448,0.022434,0.133558,45.231476,-1.315352,10.914733,4635731894808346600.000000,-0.770048,0.031439,-0.636377,0.032590,-9.881239,0.609280,-2.402503,-0.291391,0.196154,-0.140694,40.470899,-18.631854,6.206942,4635727814052544500.000000,0.375690,-0.592110,0.574072,0.422734,-11.507891,4.211636,-0.544953,-4.185244,0.165719,-0.188370,41.831444,17.934095,3.845818,4635729210453786600.000000,-0.477953,-0.554615,-0.538134,0.417582,0
-9.145974,-1.402080,0.832274,-0.595225,0.077901,0.147824,45.262005,-1.400804,11.016315,4635731894808346600.000000,-0.769781,0.032846,-0.636723,0.030691,-10.106548,0.488343,-2.657808,-0.321504,0.182173,-0.161187,40.315564,-18.476520,6.179170,4635727814052544500.000000,0.374866,-0.593150,0.573536,0.422735,-11.029085,2.982582,-0.680532,-4.583837,0.176596,-0.281892,41.631748,17.859430,4.271901,4635729210453786600.000000,-0.487549,-0.545084,-0.546985,0.407415,0
-9.324285,-0.971774,0.690147,-0.599346,0.119711,0.129244,45.347458,-1.370276,11.105690,4635731894808346600.000000,-0.769396,0.034309,-0.637198,0.028847,-10.144352,0.084504,-2.757738,-0.309187,0.161104,-0.170610,40.284431,-18.375501,6.097077,4635727638424306700.000000,0.374138,-0.594154,0.572965,0.422744,-10.872774,1.329046,-0.609890,-4.888105,0.134243,-0.406903,41.592283,17.857889,5.014182,4635729210453786600.000000,-0.497527,-0.534366,-0.556338,0.396746,0
-9.524403,-0.834027,0.613855,-0.610409,0.158203,0.084839,45.151244,-1.235119,10.934329,4635731894808346600.000000,-0.768896,0.035921,-0.637787,0.027120,-10.144352,-0.369349,-2.681239,-0.260070,0.122079,-0.170225,40.414202,-18.300040,6.079287,4635727599304179700.000000,0.373625,-0.595012,0.572419,0.422732,-11.290539,0.062613,-0.174599,-4.959767,0.069867,-0.441926,41.703686,17.817956,6.199322,4635729210453786600.000000,-0.507546,-0.523081,-0.565527,0.385956,0
-9.851801,-0.946069,0.515330,-0.617809,0.204969,0.030673,45.045319,-1.349784,10.848457,4635731894808346600.000000,-0.768261,0.037695,-0.638515,0.025555,-10.144352,-0.511567,-2.591339,-0.203654,0.081101,-0.160228,40.582876,-18.276708,6.089269,4635727599304179700.000000,0.373330,-0.595686,0.571932,0.422702,-11.469091,-1.200066,0.677006,-4.777843,-0.013104,-0.310598,41.822720,17.585917,7.006288,4635729210453786600.000000,-0.517365,-0.512140,-0.573732,0.375337,0
-10.205340,-1.150080,0.401552,-0.628946,0.245745,-0.022691,45.161263,-1.701566,11.059427,4635731894808346600.000000,-0.767504,0.039641,-0.639362,0.024136,-10.024567,-0.465025,-2.635655,-0.174993,0.048372,-0.148478,40.683905,-18.414233,6.251209,4635727599304179700.000000,0.373165,-0.596228,0.571475,0.422701,-11.652666,-2.511486,2.239219,-4.346113,-0.107492,-0.161952,41.891018,17.363253,7.483914,4635729196861302800.000000,-0.526530,-0.502152,-0.580536,0.365497,0
-10.456055,-1.386387,0.308246,-0.646456,0.263221,-0.067785,45.166528,-1.880805,11.290084,4635731894808346600.000000,-0.766687,0.041762,-0.640254,0.022818,-9.908035,-0.491598,-2.609083,-0.165664,0.019146,-0.132363,40.629614,-18.445387,6.366660,4635727599304179700.000000,0.373065,-0.596665,0.571028,0.422776,-12.014883,-3.231729,3.531898,-3.725140,-0.193559,0.010813,41.696532,17.232366,8.007673,4635729130242064400.000000,-0.534716,-0.493670,-0.585682,0.356855,0
-10.613882,-1.572552,0.289052,-0.666407,0.273940,-0.093498,44.919369,-1.796691,11.485394,4635731894808346600.000000,-0.765830,0.044014,-0.641173,0.021530,-9.887997,-0.550407,-2.380602,-0.161875,-0.000960,-0.111780,40.544166,-18.375521,6.294646,4635727599304179700.000000,0.372986,-0.597012,0.570609,0.422922,-11.822362,-3.092670,4.055801,-3.089584,-0.256875,0.182303,41.063001,17.322740,8.742770,4635729317827969000.000000,-0.541897,-0.486822,-0.589278,0.349434,0
-10.681904,-1.722949,0.292978,-0.678005,0.298005,-0.099338,44.763694,-1.795341,11.680689,4635731894808346600.000000,-0.764900,0.046315,-0.642164,0.020234,-9.798170,-0.611444,-2.231807,-0.159544,-0.019992,-0.079937,40.528580,-18.290070,6.194760,4635727599304179700.000000,0.372902,-0.597247,0.570242,0.423160,-11.474385,-2.814704,3.997996,-2.541661,-0.334823,0.300127,40.328200,17.626521,9.179967,4635729317827969000.000000,-0.548253,-0.481316,-0.591581,0.343199,0
-10.627447,-1.836312,0.235019,-0.673165,0.312698,-0.084848,44.798091,-1.876862,11.809761,4635731894808346600.000000,-0.763925,0.048561,-0.643198,0.018908,-9.618458,-0.582660,-2.069827,-0.168759,-0.024372,-0.045760,40.528580,-18.214606,6.176946,4635727599304179700.000000,0.372745,-0.597406,0.569937,0.423484,-11.076076,-2.399831,4.005171,-2.076924,-0.394733,0.371099,40.061879,17.967888,9.203106,4635729317827969000.000000,-0.553871,-0.476917,-0.592882,0.338037,0
-10.488401,-1.892569,0.141295,-0.652343,0.316552,-0.054794,44.767631,-1.846403,11.832902,4635731894808346600.000000,-0.762940,0.050659,-0.644243,0.017542,-9.473040,-0.553790,-1.928865,-0.179635,-0.014962,-0.010706,40.598432,-18.261114,6.107091,4635727599304179700.000000,0.372477,-0.597517,0.569715,0.423864,-10.633652,-2.065598,3.654972,-1.519712,-0.435212,0.404165,40.263640,17.973117,9.386220,4635729317827969000.000000,-0.558492,-0.473799,-0.593203,0.334233,0
-10.288337,-2.069903,0.043647,-0.625262,0.327380,-0.020617,44.798074,-1.876845,11.771032,4635731894808346600.000000,-0.761928,0.052577,-0.645323,0.016142,-9.468489,-0.758897,-1.774625,-0.177219,-0.012818,0.021923,40.753740,-18.414192,5.931827,4635727599304179700.000000,0.372152,-0.597550,0.569579,0.424283,-10.242844,-1.566591,2.795476,-0.954621,-0.486180,0.411422,40.678725,17.406764,9.547733,4635729331405939700.000000,-0.562116,-0.471923,-0.592587,0.331895,0
-10.052058,-2.363704,-0.004346,-0.595319,0.348127,0.009217,44.883524,-2.011955,11.875953,4635731894808346600.000000,-0.760862,0.054319,-0.646468,0.014733,-9.532806,-0.795712,-1.675821,-0.173625,-0.007580,0.055707,40.844794,-18.445387,5.896176,4635727599304179700.000000,0.371764,-0.597507,0.569542,0.424734,-9.759142,-0.084532,1.761382,-0.485005,-0.510720,0.449361,41.081364,16.751025,9.533735,4635729425202151400.000000,-0.564921,-0.471196,-0.591183,0.330667,0
-9.849294,-2.656265,0.054008,-0.558548,0.376696,0.032643,44.861375,-2.120990,12.137487,4635731894808346600.000000,-0.759725,0.055879,-0.647702,0.013354,-9.526234,-0.603909,-1.809869,-0.169548,-0.001171,0.089890,40.798314,-18.445387,5.975996,4635727599304179700.000000,0.371310,-0.597387,0.569607,0.425211,-9.260528,1.804178,0.943674,-0.126887,-0.522494,0.504628,41.378732,16.336458,9.338400,4635729425202151400.000000,-0.567123,-0.471427,-0.589143,0.330210,0
-9.657922,-2.945289,0.126832,-0.524823,0.396083,0.043866,44.721929,-2.090571,12.231818,4635731894808346600.000000,-0.758537,0.057300,-0.648994,0.012036,-9.441962,-0.541587,-1.982990,-0.151308,0.001746,0.122322,40.645261,-18.375550,6.073647,4635727599304179700.000000,0.370839,-0.597167,0.569790,0.425688,-9.039402,3.158876,0.313710,0.133273,-0.550408,0.547991,41.515839,16.281714,9.119991,4635729411648318500.000000,-0.568936,-0.472336,-0.586588,0.330341,0
-9.470872,-3.205173,0.138212,-0.487328,0.403452,0.049551,44.617229,-2.170645,12.231818,4635731894808346600.000000,-0.757334,0.058586,-0.650304,0.010802,-9.464021,-0.596983,-2.024198,-0.118598,-0.007466,0.149128,40.484338,-18.359934,6.011684,4635727599304179700.000000,0.370423,-0.596816,0.570082,0.426151,-8.897548,3.201970,-0.151218,0.358946,-0.584566,0.566484,41.555981,16.268730,8.741601,4635729317827969000.000000,-0.570406,-0.473775,-0.583597,0.331043,0
-9.238092,-3.383115,0.258436,-0.446013,0.399758,0.054892,44.593643,-2.387286,12.504958,4635731894808346600.000000,-0.756147,0.059727,-0.651599,0.009662,-9.602637,-0.600394,-2.006476,-0.065018,-0.034055,0.166034,40.255808,-18.359934,5.914025,4635727599304179700.000000,0.370174,-0.596294,0.570470,0.426578,-8.806156,2.290374,-0.257785,0.522122,-0.605274,0.538067,41.988078,15.627567,8.361632,4635729317827969000.000000,-0.571557,-0.475496,-0.580378,0.332245,0
-9.023153,-3.446830,0.449792,-0.402189,0.387938,0.063128,44.486069,-2.465895,12.758787,4635731894808346600.000000,-0.754999,0.060708,-0.652852,0.008613,-9.671546,-0.368708,-2.091801,-0.034398,-0.056980,0.180988,40.281020,-18.499602,5.816366,4635727687053871100.000000,0.370028,-0.595649,0.570913,0.427013,-8.841239,0.857160,-0.140001,0.704429,-0.636924,0.530350,42.512008,14.930094,7.995629,4635729317827969000.000000,-0.572404,-0.477579,-0.576838,0.333961,0
-8.827834,-3.396770,0.454786,-0.350810,0.374052,0.074914,44.385297,-2.407970,12.693649,4635731894808346600.000000,-0.753899,0.061495,-0.654061,0.007662,-9.660521,-0.077990,-2.291432,-0.039509,-0.075722,0.181976,40.496140,-18.660515,5.728691,4635727706678362100.000000,0.369912,-0.594976,0.571319,0.427509,-8.837943,-0.794782,0.181788,0.939647,-0.672028,0.543302,42.244771,15.349975,7.789538,4635729317827969000.000000,-0.572872,-0.480193,-0.572846,0.336272,0
-8.673896,-3.245126,0.452083,-0.298509,0.379715,0.087007,44.527192,-2.380444,12.882897,4635731894808346600.000000,-0.752794,0.062085,-0.655286,0.006818,-9.626135,0.055374,-2.291720,-0.058239,-0.093879,0.167622,40.480944,-18.689535,5.633276,4635727706678362100.000000,0.369818,-0.594333,0.571627,0.428072,-8.614952,-1.846594,0.341807,1.257181,-0.698999,0.558802,41.942160,15.797121,7.496485,4635729317827969000.000000,-0.572772,-0.483548,-0.568294,0.339346,0
-8.605815,-3.095129,0.554885,-0.253759,0.415660,0.098031,44.663762,-2.487993,13.265621,4635731894808346600.000000,-0.751600,0.062502,-0.656623,0.006070,-9.599485,0.093194,-2.202988,-0.067189,-0.103311,0.161004,40.397721,-18.629687,5.615406,4635727706678362100.000000,0.369737,-0.593703,0.571887,0.428668,-8.192173,-2.023244,0.311022,1.617945,-0.728784,0.589279,42.463720,15.046469,7.105713,4635729317827969000.000000,-0.572032,-0.487766,-0.563072,0.343240,0
-8.643653,-3.027030,0.672625,-0.207032,0.461593,0.106542,44.525832,-2.588781,13.465983,4635731894808346600.000000,-0.750290,0.062749,-0.658102,0.005436,-9.505256,-0.051945,-2.155204,-0.057016,-0.114278,0.156731,40.451905,-18.676132,5.695194,4635727706678362100.000000,0.369714,-0.593047,0.572138,0.429261,-7.719257,-1.858167,0.043874,1.945869,-0.760521,0.649106,42.623297,14.560790,6.606674,4635729317827969000.000000,-0.570747,-0.492824,-0.557143,0.347798,0
-8.741722,-3.006955,0.650111,-0.144140,0.476394,0.106779,44.397512,-2.612384,13.501388,4635731894808346600.000000,-0.748952,0.062797,-0.659623,0.004977,-9.435285,-0.145292,-2.048769,-0.038767,-0.119919,0.148968,40.337888,-18.829161,5.713065,4635727706678362100.000000,0.369765,-0.592370,0.572393,0.429812,-7.282950,-1.317449,-0.389532,2.202672,-0.754470,0.726513,42.266729,14.957056,5.945937,4635729317827969000.000000,-0.568980,-0.498637,-0.550643,0.352725,0
-8.810215,-2.969929,0.490209,-0.089918,0.461192,0.108642,44.266362,-2.612384,13.633757,4635731894808346600.000000,-0.747667,0.062671,-0.661094,0.004657,-9.394195,-0.128776,-2.046376,-0.010814,-0.126809,0.144786,40.239031,-18.860437,5.553491,4635727706678362100.000000,0.369908,-0.591648,0.572675,0.430306,-7.047085,-0.238604,-0.868687,2.358649,-0.711379,0.762105,42.393325,14.843863,5.288369,4635729317827969000.000000,-0.566780,-0.504912,-0.543880,0.357798,0
-8.817681,-2.896291,0.452074,-0.053781,0.463372,0.112914,44.049782,-2.554483,13.754607,4635732040318787600.000000,-0.746383,0.062421,-0.662569,0.004423,-9.287771,-0.112102,-2.050844,0.015601,-0.132541,0.142455,40.293199,-18.790633,5.437969,4635727706678362100.000000,0.370134,-0.590881,0.572990,0.430748,-7.469776,0.815358,-1.321547,2.399699,-0.704850,0.742356,42.405143,14.511607,4.739163,4635729317827969000.000000,-0.564385,-0.511189,-0.537048,0.362954,0
-8.772390,-2.868740,0.546592,-0.018464,0.496798,0.121529,43.971066,-2.584830,13.856598,4635732109556711400.000000,-0.745012,0.062035,-0.664146,0.004270,-9.215559,-0.030091,-1.991012,0.036873,-0.133518,0.136828,40.308846,-18.844789,5.499862,4635727706678362100.000000,0.370425,-0.590091,0.573326,0.431132,-7.884446,1.387034,-1.472831,2.362444,-0.709504,0.738382,42.080715,14.577176,4.272159,4635729317827969000.000000,-0.562010,-0.517301,-0.530207,0.368001,0
-8.703087,-2.860470,0.594225,0.010235,0.546756,0.135104,44.086849,-2.719896,14.024346,4635732109556711400.000000,-0.743507,0.061522,-0.665879,0.004166,-9.334001,-0.022178,-1.937717,0.044952,-0.137008,0.131293,40.249020,-19.069822,5.437981,4635727706678362100.000000,0.370753,-0.589296,0.573657,0.431497,-7.850727,1.302779,-1.859108,2.326262,-0.693609,0.766557,42.415089,14.549433,3.760822,4635729317827969000.000000,-0.559659,-0.523357,-0.523336,0.372825,0
-8.662923,-2.897885,0.581622,0.044935,0.579903,0.151506,44.092347,-2.936493,14.219673,4635731964062890000.000000,-0.741915,0.060855,-0.667714,0.004116,-9.502648,-0.064292,-1.918800,0.040697,-0.137791,0.124208,40.305385,-19.116793,5.430056,4635727706678362100.000000,0.371086,-0.588522,0.573962,0.431863,-7.696805,0.877032,-2.403397,2.291286,-0.673733,0.796455,42.843162,14.262705,3.091031,4635729290823374800.000000,-0.557325,-0.529371,-0.516439,0.377420,0
-8.655049,-2.934110,0.482777,0.085178,0.592547,0.166425,43.903323,-3.064849,14.423253,4635731894808346600.000000,-0.740293,0.060021,-0.669586,0.004135,-9.593796,-0.103151,-1.966407,0.049117,-0.142152,0.121965,40.380868,-19.047010,5.422325,4635727706678362100.000000,0.371454,-0.587732,0.574268,0.432215,-7.733359,0.373513,-2.551725,2.270792,-0.665826,0.822775,42.524332,14.113229,2.468711,4635729103079604200.000000,-0.555000,-0.535350,-0.509476,0.381851,0
-8.646780,-2.859298,0.439467,0.116357,0.610152,0.174521,43.774967,-3.030593,14.746515,4635731894808346600.000000,-0.738625,0.059068,-0.671510,0.004221,-9.637137,-0.069986,-1.967629,0.050399,-0.148366,0.121769,40.324506,-18.891759,5.420087,4635727706678362100.000000,0.371841,-0.586929,0.574565,0.432578,-7.693732,-0.139135,-3.119275,2.338622,-0.620846,0.872425,42.389083,14.021642,2.097888,4635729103079604200.000000,-0.552447,-0.541600,-0.502342,0.386165,0
-8.642841,-2.753765,0.480807,0.148848,0.629688,0.185649,43.759603,-3.052630,15.124930,4635731894808346600.000000,-0.736905,0.057982,-0.673491,0.004368,-9.603977,-0.031133,-1.915552,0.052820,-0.151285,0.123513,40.249036,-18.999990,5.420087,4635727531324148700.000000,0.372237,-0.586112,0.574867,0.432945,-7.730415,-0.560253,-3.594008,2.412603,-0.594529,0.898876,42.962576,13.855156,1.685848,4635729103079604200.000000,-0.549652,-0.548054,-0.495030,0.390467,0
-8.642841,-2.680910,0.459163,0.179032,0.647123,0.202429,43.705664,-3.192020,15.445483,4635731894808346600.000000,-0.735137,0.056756,-0.675523,0.004552,-9.555154,-0.054314,-1.924288,0.055151,-0.156037,0.119545,40.245569,-19.230668,5.190862,4635727491929997300.000000,0.372656,-0.585292,0.575153,0.433312,-7.869332,-0.759360,-4.076657,2.493330,-0.570592,0.930585,43.173040,13.484481,1.199083,4635729103079604200.000000,-0.546607,-0.554729,-0.487507,0.394758,0
-8.642841,-2.595069,0.464271,0.214039,0.679406,0.224205,43.628479,-3.238901,15.606170,4635731894808346600.000000,-0.733280,0.055360,-0.677652,0.004776,-9.506326,-0.180629,-1.938736,0.053800,-0.164866,0.122925,40.247810,-19.474811,4.989826,4635727491929997300.000000,0.373087,-0.584450,0.575431,0.433709,-8.087380,0.576973,-2.992097,2.416065,-0.648356,0.848442,43.246332,13.254076,0.648276,4635729103079604200.000000,-0.543696,-0.560865,-0.480060,0.399209,0
-8.659376,-2.381677,0.492623,0.247425,0.731946,0.243362,43.497371,-3.292832,15.712088,4635731894808346600.000000,-0.731275,0.053807,-0.679939,0.005047,-9.537224,-0.267322,-1.861249,0.068232,-0.182328,0.125649,40.247810,-19.589400,4.956206,4635727491929997300.000000,0.373590,-0.583548,0.575712,0.434117,-8.032433,3.296920,-3.273755,1.808495,-0.385280,0.718422,43.374398,13.022123,0.173775,4635729103079604200.000000,-0.541411,-0.565750,-0.474476,0.402087,0
-8.741656,-2.088324,0.351703,0.261040,0.763205,0.265515,43.289080,-3.370014,15.945950,4635731894808346600.000000,-0.729176,0.052147,-0.682316,0.005297,-9.685714,0.087973,-1.933012,0.055869,-0.194578,0.123425,40.247810,-19.545293,5.035934,4635727491929997300.000000,0.374097,-0.582646,0.575947,0.434580,-7.821608,1.066158,-7.844104,1.741261,-0.251922,0.577491,43.279778,12.695588,-0.265588,4635729103079604200.000000,-0.538750,-0.570393,-0.469604,0.404812,0
-8.868089,-1.915380,0.090568,0.260594,0.752424,0.287918,43.106702,-3.286152,16.288618,4635731894808346600.000000,-0.727098,0.050425,-0.684657,0.005475,-9.717093,0.200802,-1.913320,0.035771,-0.201771,0.121965,40.108284,-19.392320,5.043899,4635727491929997300.000000,0.374574,-0.581766,0.576130,0.435106,-6.970480,-4.957550,-5.472871,1.401922,-0.146020,0.214778,43.160844,12.343188,-0.500504,4635729103079604200.000000,-0.536052,-0.573716,-0.466382,0.407415,0
-8.969302,-1.855127,0.074440,0.261731,0.739433,0.299875,43.113410,-3.177064,16.596985,4635731894808346600.000000,-0.725049,0.048665,-0.686953,0.005617,-9.717093,0.018194,-1.884425,0.026813,-0.214283,0.110434,40.017117,-19.430696,4.961939,4635727491929997300.000000,0.375081,-0.580903,0.576247,0.435666,-7.391913,-3.980626,-3.414969,0.866760,0.020305,0.036708,43.299660,12.288303,-0.489808,4635729103079604200.000000,-0.533995,-0.575765,-0.464854,0.408967,0
-9.120922,-1.760607,0.109867,0.265659,0.768142,0.298667,43.091337,-3.248763,16.952196,4635731894808346600.000000,-0.722909,0.046895,-0.689326,0.005779,-9.766910,0.025402,-2.029391,0.016046,-0.236014,0.107883,40.013625,-19.645662,4.953962,4635727491929997300.000000,0.375618,-0.580023,0.576305,0.436299,-9.088339,-1.323064,-3.022707,0.567483,0.087875,-0.052525,43.288964,12.447000,-0.402828,4635729103079604200.000000,-0.532370,-0.577084,-0.464197,0.409971,0
-9.386744,-1.704702,-0.039013,0.250391,0.811901,0.287537,42.902297,-3.353896,17.342832,4635731894808346600.000000,-0.720630,0.045201,-0.691820,0.005940,-9.718344,0.156194,-2.152730,0.009527,-0.252540,0.103524,40.085617,-19.760292,4.796777,4635727491929997300.000000,0.376187,-0.579134,0.576312,0.436980,-8.622907,-1.461452,-2.314941,-0.038654,0.207503,-0.355991,43.214207,12.605693,-0.317392,4635729103079604200.000000,-0.531451,-0.576673,-0.465569,0.410186,0
-9.691930,-1.655474,-0.184306,0.220758,0.810480,0.272203,42.666419,-3.488975,17.733468,4635731894808346600.000000,-0.718339,0.043640,-0.694297,0.006061,-9.694924,0.242884,-1.963712,0.009417,-0.265748,0.095569,40.101318,-19.706259,4.601492,4635727491929997300.000000,0.376801,-0.578240,0.576278,0.437680,-8.122524,1.233110,-3.019826,-0.462787,0.312171,-0.534206,43.214207,12.753688,-0.306707,4635729103079604200.000000,-0.531039,-0.575154,-0.468321,0.409722,0
-9.972301,-1.586165,-0.186649,0.186542,0.766337,0.252563,42.649527,-3.531876,17.991768,4635731894808346600.000000,-0.716159,0.042238,-0.696631,0.006134,-9.792307,0.236430,-1.777083,-0.001719,-0.280310,0.087023,40.101318,-19.690542,4.485866,4635727579561351200.000000,0.377439,-0.577356,0.576178,0.438428,-8.783299,4.622110,-3.404343,-0.745716,0.402157,-0.494412,43.194363,12.837618,-0.196832,4635729103079604200.000000,-0.531188,-0.573233,-0.471651,0.408397,0
-10.216032,-1.463306,-0.104743,0.153467,0.714761,0.229030,42.677082,-3.585830,18.120910,4635731894808346600.000000,-0.714115,0.041004,-0.698799,0.006171,-9.974162,0.212014,-1.964847,-0.008631,-0.304853,0.067145,40.091356,-19.620800,4.467910,4635727599304179700.000000,0.378155,-0.576485,0.575978,0.439219,-10.316812,6.100623,-3.404322,-1.080442,0.386668,-0.357694,43.057038,12.985628,0.083934,4635729089654610900.000000,-0.532388,-0.570801,-0.475182,0.406142,0
-10.464503,-1.275475,-0.106323,0.123595,0.668901,0.210253,42.569578,-3.671279,18.218566,4635731894808346600.000000,-0.712192,0.039914,-0.700822,0.006170,-10.069842,0.486459,-2.183574,-0.012228,-0.331555,0.047331,40.158846,-19.605089,4.467910,4635727599304179700.000000,0.378963,-0.575617,0.575680,0.440050,-11.104196,5.047887,-2.714701,-1.411273,0.363301,-0.311625,43.067719,13.069542,0.364679,4635729049366738900.000000,-0.534482,-0.567669,-0.479097,0.403172,0
-10.712569,-1.076235,-0.246104,0.103439,0.604853,0.189891,42.353014,-3.583082,18.382367,4635731894808346600.000000,-0.710446,0.038945,-0.702646,0.006159,-10.033507,0.718681,-2.132093,-0.019791,-0.346926,0.029848,40.104832,-19.475589,4.388216,4635727599304179700.000000,0.379821,-0.574774,0.575301,0.440907,-10.446458,2.960235,-1.438921,-1.657765,0.421120,-0.429666,43.058561,13.237410,0.657685,4635729425202151400.000000,-0.536819,-0.563823,-0.483812,0.399818,0
-10.915352,-0.930543,-0.263849,0.091759,0.528989,0.176143,42.282506,-3.527940,18.503257,4635731894808346600.000000,-0.708916,0.038052,-0.704239,0.006143,-9.952547,0.567588,-2.022226,-0.019620,-0.364974,0.007528,40.089111,-19.506164,4.210864,4635727774545855500.000000,0.380764,-0.573950,0.574838,0.441771,-9.637756,1.014857,-0.735450,-1.618125,0.512306,-0.537545,42.995998,13.458652,1.048275,4635729425202151400.000000,-0.538670,-0.559969,-0.488893,0.396550,0
-11.007522,-0.940741,-0.194548,0.087210,0.454979,0.164360,42.344313,-3.800740,18.671371,4635731894808346600.000000,-0.707598,0.037209,-0.705608,0.006136,-9.837222,0.465156,-1.972133,-0.000924,-0.385942,-0.019456,40.099071,-19.589361,4.025525,4635727814052544500.000000,0.381850,-0.573121,0.574310,0.442595,-9.588858,-0.436347,-1.277194,-1.417452,0.553840,-0.538086,43.006683,13.606662,1.499959,4635729425202151400.000000,-0.539941,-0.556604,-0.493714,0.393575,0
-10.998482,-1.113203,-0.129565,0.086520,0.398978,0.150094,42.371899,-3.980390,19.002930,4635731894808346600.000000,-0.706441,0.036411,-0.706808,0.006161,-9.705190,0.620997,-1.945472,0.031093,-0.405561,-0.048098,39.961877,-19.475608,3.832458,4635727814052544500.000000,0.383112,-0.572273,0.573739,0.443343,-10.217482,-1.066672,-1.233100,-1.189435,0.494024,-0.467196,42.997542,13.765342,1.770035,4635729425202151400.000000,-0.540899,-0.553779,-0.497844,0.391035,0
-10.986663,-1.415599,0.014141,0.087967,0.372614,0.132971,42.214822,-3.838685,19.385284,4635731894808346600.000000,-0.705360,0.035660,-0.707925,0.006236,-9.710348,0.838461,-1.901141,0.046971,-0.421300,-0.080421,40.069841,-19.575860,3.716831,4635727814052544500.000000,0.384508,-0.571446,0.573093,0.444037,-10.715074,-0.721965,-0.482305,-0.926931,0.467582,-0.400826,42.924297,13.922512,1.963828,4635729425202151400.000000,-0.541400,-0.551625,-0.501320,0.388941,0
-11.019726,-1.649911,0.180699,0.098782,0.339959,0.112645,42.082097,-3.925194,19.449570,4635731894808346600.000000,-0.704374,0.034937,-0.708940,0.006398,-9.876433,1.008396,-1.852313,0.031707,-0.431026,-0.114404,40.927891,-20.272323,3.728719,4635727814052544500.000000,0.385953,-0.570705,0.572319,0.444733,-10.608233,0.150994,0.054764,-0.721309,0.463182,-0.389469,42.861714,14.070508,2.183449,4635729425202151400.000000,-0.541444,-0.549942,-0.504417,0.387255,0
-11.085084,-1.684241,0.273267,0.108673,0.285630,0.091282,42.054504,-4.169333,19.364122,4635731894808346600.000000,-0.703548,0.034250,-0.709791,0.006644,-9.962205,0.878290,-1.793524,0.010344,-0.442185,-0.146842,41.592552,-20.751623,3.586085,4635727638862410800.000000,0.387431,-0.570054,0.571407,0.445454,-10.661506,0.344882,0.585802,-0.589653,0.442754,-0.402023,42.863270,14.229204,2.635185,4635729425202151400.000000,-0.541203,-0.548486,-0.507280,0.385913,0
-11.117001,-1.581508,0.301242,0.111810,0.218243,0.069921,42.062768,-4.248177,19.468755,4635731894808346600.000000,-0.702938,0.045385,-0.709786,-0.004695,-9.933614,0.653095,-1.672735,-0.004048,-0.447835,-0.170173,41.690531,-20.696367,3.313345,4635727599304179700.000000,0.388932,-0.569470,0.570402,0.446182,-11.094847,0.340124,1.069525,-0.483760,0.423389,-0.404162,42.788503,14.386376,2.893122,4635729425202151400.000000,-0.540752,-0.547226,-0.509930,0.384840,0
-11.104415,-1.405897,0.313450,0.101308,0.148465,0.051450,41.959270,-4.190323,19.655817,4635731894808346600.000000,-0.702519,0.044848,-0.710237,-0.004367,-9.974406,0.550625,-1.588254,-0.022092,-0.454721,-0.188049,41.757986,-20.597431,3.179717,4635727599304179700.000000,0.390437,-0.568943,0.569306,0.446938,-11.514623,0.873946,1.519631,-0.421922,0.419911,-0.400286,42.713703,14.514603,3.002936,4635729411827088400.000000,-0.540168,-0.546104,-0.512458,0.383896,0
-11.005612,-1.227101,0.309127,0.080223,0.087711,0.032913,41.792301,-4.113133,19.648834,4635731894808346600.000000,-0.702276,0.044427,-0.710506,-0.004058,-9.915955,0.467425,-1.505054,-0.042189,-0.467425,-0.204267,41.773735,-20.641425,3.092017,4635727599304179700.000000,0.391955,-0.568461,0.568111,0.447742,-11.505584,1.772860,1.937808,-0.420296,0.430456,-0.408823,42.706100,14.534371,3.221064,4635729317827969000.000000,-0.539539,-0.544979,-0.515022,0.382947,0
-10.871341,-1.097533,0.396092,0.063233,0.067260,0.012241,41.786697,-4.031630,19.485069,4635731894808346600.000000,-0.702090,0.044116,-0.710710,-0.003743,-9.820546,0.372016,-1.469389,-0.061613,-0.476955,-0.217676,41.574590,-20.525481,2.837292,4635727599304179700.000000,0.393472,-0.568023,0.566830,0.448590,-11.247756,2.326965,2.201806,-0.468890,0.447812,-0.432987,42.632902,14.691544,3.587324,4635729317827969000.000000,-0.538940,-0.543712,-0.517755,0.381903,0
-10.794911,-0.938088,0.538632,0.047902,0.060441,-0.004782,41.868203,-3.838753,19.413714,4635731894808346600.000000,-0.701922,0.043900,-0.710892,-0.003425,-9.732861,0.363970,-1.435024,-0.079965,-0.486370,-0.229620,41.728684,-20.217494,2.544371,4635727686865345500.000000,0.394989,-0.567624,0.565468,0.449481,-10.889221,2.400572,2.420050,-0.524181,0.467835,-0.462223,42.484854,14.819788,3.845278,4635729317827969000.000000,-0.538370,-0.542284,-0.520682,0.380757,0
-10.762612,-0.821094,0.602481,0.037665,-0.002328,-0.003829,41.837969,-3.702041,19.475874,4635731894808346600.000000,-0.701937,0.043710,-0.710889,-0.003152,-9.816648,0.356267,-1.388444,-0.100738,-0.495112,-0.237886,42.032577,-20.084735,2.251378,4635727706678362100.000000,0.396491,-0.567261,0.564028,0.450425,-10.510737,1.865020,2.490473,-0.541698,0.491875,-0.490944,42.411612,14.828903,3.967243,4635729317827969000.000000,-0.537734,-0.540786,-0.523748,0.379579,0
-10.672109,-0.876094,0.626893,0.038863,-0.119166,0.012666,41.810356,-3.616599,19.631351,4635731894808346600.000000,-0.702299,0.043467,-0.710548,-0.002945,-9.968577,0.154923,-1.220163,-0.114260,-0.493205,-0.239265,41.901988,-20.138653,2.038059,4635727706678362100.000000,0.397957,-0.566924,0.562560,0.451392,-10.235991,1.291114,2.197500,-0.506100,0.503363,-0.492962,42.347481,14.921892,4.258698,4635729317827969000.000000,-0.536983,-0.539374,-0.526782,0.378453,0
-10.401317,-1.031221,0.659570,0.047819,-0.225629,0.035131,41.868190,-3.646809,19.624447,4635731894808346600.000000,-0.702977,0.043129,-0.709899,-0.002796,-9.997864,-0.138991,-1.004940,-0.122525,-0.493287,-0.238394,41.789506,-20.084743,1.922380,4635727531565541400.000000,0.399401,-0.566596,0.561075,0.452375,-10.104694,0.973750,1.928834,-0.384120,0.502843,-0.471601,42.327749,15.164437,4.527300,4635729317827969000.000000,-0.535985,-0.538273,-0.529569,0.377543,0
-10.034771,-1.185583,0.737490,0.062113,-0.264306,0.061518,41.953630,-3.674428,19.526800,4635731894808346600.000000,-0.703770,0.042671,-0.709140,-0.002689,-9.888366,-0.314770,-0.874796,-0.120421,-0.489129,-0.227745,41.962867,-19.869885,1.904355,4635727579486407700.000000,0.400819,-0.566244,0.559623,0.453358,-10.139517,0.584937,1.850913,-0.195066,0.485741,-0.449173,42.169039,15.471225,4.699795,4635729317827969000.000000,-0.534632,-0.537613,-0.531964,0.377036,0
-9.689435,-1.340307,0.901200,0.079578,-0.225471,0.092176,41.981258,-3.732237,19.569548,4635731894808346600.000000,-0.704450,0.042071,-0.708500,-0.002614,-9.734176,-0.292036,-0.934153,-0.112665,-0.486402,-0.209701,42.005676,-19.824823,1.904355,4635727599304179700.000000,0.402215,-0.565839,0.558231,0.454343,-10.565339,-0.224151,1.789025,0.029097,0.487190,-0.417011,42.039195,15.694033,4.808065,4635729317827969000.000000,-0.532818,-0.537521,-0.533933,0.376950,0
-9.483717,-1.375128,1.063480,0.101348,-0.153782,0.131445,41.923455,-3.925038,19.547284,4635731894808346600.000000,-0.704922,0.041292,-0.708077,-0.002577,-9.665078,-0.390241,-0.922322,-0.104121,-0.482524,-0.193091,41.876299,-19.954198,1.745124,4635727599304179700.000000,0.403588,-0.565387,0.556898,0.455323,-10.730612,-0.359021,0.829501,0.226619,0.513626,-0.368816,42.085136,15.842100,5.004807,4635729317827969000.000000,-0.530575,-0.538012,-0.535539,0.377134,0
-9.411549,-1.309424,1.168679,0.118344,-0.100343,0.169835,41.953613,-4.169187,19.395769,4635731894808346600.000000,-0.705237,0.040351,-0.707817,-0.002594,-9.715764,-0.504614,-0.925507,-0.085127,-0.480864,-0.174457,42.055956,-19.913859,1.320932,4635727599304179700.000000,0.404965,-0.564861,0.555643,0.456285,-10.341458,0.163047,-0.253051,0.334988,0.537532,-0.325254,41.937117,15.904729,5.285671,4635729317827969000.000000,-0.528102,-0.538871,-0.536928,0.377406,0
-9.407957,-1.182694,1.287152,0.117057,-0.076405,0.190255,42.195939,-4.248177,19.270471,4635731894808346600.000000,-0.705481,0.039353,-0.707630,-0.002670,-9.729300,-0.564724,-0.897909,-0.043737,-0.481537,-0.150006,42.292409,-19.758748,1.153337,4635727599304179700.000000,0.406393,-0.564206,0.554521,0.457190,-9.982782,0.492607,-0.587392,0.343566,0.554103,-0.323370,41.798149,15.904651,5.456709,4635729317827969000.000000,-0.525571,-0.539773,-0.538330,0.377652,0
-9.453190,-1.069237,1.512249,0.099843,-0.050615,0.181399,42.405986,-4.140843,19.296663,4635731894808346600.000000,-0.705645,0.038432,-0.707517,-0.002767,-9.739250,-0.603599,-0.861290,0.008283,-0.486088,-0.120890,42.275574,-19.657513,1.135288,4635727599304179700.000000,0.407898,-0.563384,0.553556,0.458033,-9.788823,0.761584,-0.686644,0.314200,0.550642,-0.337394,41.789061,16.008268,5.479428,4635729317827969000.000000,-0.523085,-0.540570,-0.539797,0.377869,0
-9.522484,-0.996347,1.780812,0.070533,-0.013137,0.149168,42.242682,-4.139019,19.390371,4635731894808346600.000000,-0.705694,0.037693,-0.707508,-0.002850,-9.701713,-0.570575,-0.824672,0.050368,-0.488816,-0.088374,42.132696,-19.780995,0.826878,4635727599304179700.000000,0.409443,-0.562409,0.552740,0.458838,-9.790236,0.592312,-0.753428,0.286520,0.537958,-0.341428,41.714310,16.229591,5.651926,4635729317827969000.000000,-0.520680,-0.541273,-0.541283,0.378059,0
-9.678276,-0.877527,1.801689,0.046092,-0.003612,0.104217,41.974848,-4.278301,19.372446,4635731894808346600.000000,-0.705711,0.037158,-0.707519,-0.002871,-9.553383,-0.541641,-0.847745,0.087280,-0.491823,-0.059612,42.172981,-19.812616,0.518067,4635727599304179700.000000,0.411025,-0.561297,0.552052,0.459611,-9.886381,0.351194,-1.131750,0.299981,0.526341,-0.322060,41.639454,16.368512,5.749585,4635729344446047200.000000,-0.518296,-0.542026,-0.542674,0.378261,0
-9.782787,-0.673240,1.646234,0.037354,-0.031347,0.045312,41.895809,-4.333628,19.348734,4635731894808346600.000000,-0.705809,0.036821,-0.707439,-0.002749,-9.472031,-0.517228,-0.874416,0.113148,-0.497639,-0.044900,42.318118,-19.673334,0.384292,4635727599304179700.000000,0.412651,-0.560094,0.551436,0.460361,-9.964265,0.166256,-1.569885,0.330842,0.515793,-0.310566,41.639454,16.452445,5.845723,4635729532576333800.000000,-0.515880,-0.542852,-0.543962,0.378530,0
-9.744750,-0.358726,1.628245,0.026925,-0.061133,-0.020946,42.011398,-4.275833,19.406530,4635731894808346600.000000,-0.705994,0.036711,-0.707261,-0.002468,-9.490583,-0.482866,-0.948572,0.124460,-0.506659,-0.028798,42.208204,-19.442743,0.435861,4635727599304179700.000000,0.414293,-0.558813,0.550861,0.461131,-9.990196,0.222760,-1.800541,0.343944,0.506973,-0.308695,41.630374,16.545369,5.955396,4635729532576333800.000000,-0.513453,-0.543691,-0.545202,0.378842,0
-9.642803,-0.054295,1.804834,0.013042,-0.057151,-0.091118,42.116239,-4.140868,19.359896,4635731894808346600.000000,-0.706166,0.036848,-0.707084,-0.002021,-9.576948,-0.505934,-0.805210,0.144322,-0.513661,-0.009967,42.106938,-19.397564,0.292499,4635727599304179700.000000,0.415958,-0.557439,0.550353,0.461900,-10.029842,0.251713,-1.843318,0.341031,0.502048,-0.309886,41.566208,16.777303,6.213464,4635729505961449500.000000,-0.511039,-0.544507,-0.546435,0.379157,0
-9.615481,0.152185,2.003758,0.010712,-0.028158,-0.161239,42.189483,-4.031699,19.258283,4635731894808346600.000000,-0.706252,0.037199,-0.706981,-0.001369,-9.724334,-0.482869,-0.709383,0.151084,-0.514847,0.009258,42.230389,-19.457247,-0.042062,4635727599304179700.000000,0.417603,-0.556005,0.549896,0.462688,-10.083315,0.345970,-1.831234,0.314893,0.486018,-0.317912,41.555634,16.991071,6.286936,4635729317827969000.000000,-0.508703,-0.545220,-0.547688,0.379465,0
-9.784533,0.215781,1.947482,0.013917,-0.019257,-0.225615,42.270985,-3.954498,19.160621,4635731894808346600.000000,-0.706313,0.037729,-0.706894,-0.000518,-9.803451,-0.336831,-0.616246,0.136881,-0.514847,0.025003,42.331658,-19.540436,-0.259071,4635727599304179700.000000,0.419182,-0.554557,0.549444,0.463534,-10.057617,0.671064,-1.712402,0.264736,0.477869,-0.317484,41.441452,17.064439,6.214965,4635729317827969000.000000,-0.506495,-0.545814,-0.548996,0.379676,0
-10.078185,0.161955,1.495956,-0.019713,-0.100462,-0.280341,42.240874,-3.930784,19.062969,4635731894808346600.000000,-0.706606,0.038520,-0.706558,0.000382,-9.705335,-0.235556,-0.568322,0.115241,-0.517458,0.034735,42.277854,-19.556259,-0.292978,4635727424320213000.000000,0.420697,-0.553117,0.548965,0.464448,-9.853134,0.970053,-1.442358,0.172267,0.473322,-0.338559,41.173937,17.082438,6.356538,4635729317827969000.000000,-0.504472,-0.546152,-0.550485,0.379727,0
-10.469847,-0.030789,0.810981,-0.102036,-0.283296,-0.312833,42.155427,-3.873009,18.833257,4635731894808346600.000000,-0.707422,0.039649,-0.705677,0.001107,-9.670525,-0.199842,-0.472028,0.084980,-0.512830,0.038928,42.202355,-19.486639,-0.302923,4635727384555814900.000000,0.422123,-0.551726,0.548443,0.465425,-9.683616,1.281653,-1.182732,0.045951,0.474125,-0.371022,41.259390,17.324952,6.724271,4635729317827969000.000000,-0.502681,-0.546145,-0.552248,0.379551,0
-10.682506,-0.233654,0.598506,-0.158070,-0.513516,-0.331276,42.127750,-3.738049,18.672344,4635731894808346600.000000,-0.708903,0.040998,-0.704111,0.001683,-9.717991,-0.175427,-0.382055,0.057287,-0.500330,0.054315,42.178840,-19.401190,-0.384749,4635727384555814900.000000,0.423424,-0.550370,0.547922,0.466461,-9.598291,1.347597,-1.090989,-0.073427,0.473586,-0.390920,41.295002,17.621197,7.067961,4635729317827969000.000000,-0.501130,-0.545837,-0.554242,0.379140,0
-10.586083,-0.350735,1.064178,-0.127239,-0.663604,-0.348018,42.177255,-3.628878,18.698462,4635731894808346600.000000,-0.710823,0.042306,-0.702093,0.002373,-9.828756,-0.230577,-0.336386,0.028843,-0.491665,0.069863,42.186524,-19.454975,-0.711156,4635727384555814900.000000,0.424609,-0.549044,0.547392,0.467568,-9.430426,1.197972,-1.109503,-0.181717,0.476790,-0.408800,40.997263,17.758617,7.177678,4635729317827969000.000000,-0.499784,-0.545263,-0.556450,0.378508,0
-10.366002,-0.460945,1.776872,-0.037502,-0.619147,-0.347781,42.308262,-3.601184,18.726156,4635731894808346600.000000,-0.712622,0.043346,-0.700200,0.003332,-9.990578,-0.323693,-0.299770,0.010449,-0.483320,0.083074,42.129125,-19.610012,-1.019909,4635727384555814900.000000,0.425705,-0.547736,0.546868,0.468718,-9.296011,1.130619,-0.989093,-0.276522,0.479335,-0.431374,40.879284,17.824317,7.383532,4635729317827969000.000000,-0.498609,-0.544438,-0.558859,0.377694,0
-10.299093,-0.715057,2.237027,0.044105,-0.416444,-0.320462,42.524729,-3.493907,18.528108,4635731894808346600.000000,-0.713840,0.044062,-0.698907,0.004485,-10.161491,-0.471077,-0.312865,0.012698,-0.476514,0.106334,42.115540,-19.701375,-1.223408,4635727384555814900.000000,0.426743,-0.546381,0.546410,0.469887,-9.244159,1.152431,-0.816387,-0.354985,0.477726,-0.445154,41.009468,17.853123,7.653770,4635729317827969000.000000,-0.497589,-0.543410,-0.561416,0.376727,0
-10.517576,-1.172691,2.112792,0.094728,-0.197473,-0.263211,42.653343,-3.285718,18.226903,4635731894808346600.000000,-0.714428,0.044455,-0.698272,0.005656,-10.272725,-0.530332,-0.287564,0.042596,-0.464016,0.146757,42.045942,-19.655299,-1.257362,4635727472011532300.000000,0.427741,-0.544904,0.546122,0.471029,-9.155828,0.844783,-0.805689,-0.375244,0.479994,-0.441037,40.820600,17.990557,7.826454,4635729317827969000.000000,-0.496611,-0.542347,-0.563994,0.375696,0
-10.867958,-1.615084,1.366719,0.154086,-0.169298,-0.184369,42.619327,-3.095039,17.995985,4635731967379016700.000000,-0.714946,0.044442,-0.697733,0.006769,-10.420095,-0.527183,-0.280770,0.079584,-0.444910,0.188811,41.970433,-19.701367,-1.336903,4635727491929997300.000000,0.428695,-0.543300,0.546033,0.472116,-8.966560,0.162895,-0.807196,-0.323052,0.482803,-0.421957,40.460004,18.053241,7.859764,4635729317827969000.000000,-0.495532,-0.541439,-0.566447,0.374740,0
-11.011412,-1.852903,0.880553,0.272249,-0.364845,-0.102158,42.591629,-3.155138,17.874928,4635732002182529000.000000,-0.716054,0.043843,-0.696622,0.007945,-10.499244,-0.505036,-0.310594,0.115226,-0.423748,0.237423,41.897198,-19.923726,-1.434553,4635727491929997300.000000,0.429585,-0.541561,0.546159,0.473158,-8.845697,-0.556278,-0.819403,-0.181342,0.483067,-0.396849,40.426102,18.062138,8.054935,4635729317827969000.000000,-0.494168,-0.540877,-0.568618,0.374064,0
-10.800586,-1.887859,0.974940,0.409965,-0.617849,-0.022432,42.591629,-3.095073,17.904961,4635732002182529000.000000,-0.717919,0.042610,-0.694760,0.009236,-10.431036,-0.540273,-0.426758,0.167876,-0.403253,0.286760,42.022794,-20.040907,-1.601816,4635727491929997300.000000,0.430448,-0.539654,0.546533,0.474121,-8.945921,-0.931076,-0.822567,0.012636,0.484939,-0.375487,40.554650,18.231384,8.325150,4635729317827969000.000000,-0.492393,-0.540764,-0.570439,0.373796,0
-10.421513,-1.863445,1.251740,0.519635,-0.726714,0.070320,42.641116,-3.047891,17.866695,4635732002182529000.000000,-0.720113,0.040784,-0.692577,0.010548,-10.323442,-0.559275,-0.660443,0.237532,-0.382090,0.339371,42.124095,-20.116412,-1.794854,4635727491929997300.000000,0.431312,-0.537541,0.547196,0.474969,-9.327317,-0.722548,-0.769066,0.215075,0.485730,-0.354653,40.430057,18.481526,8.496353,4635729317827969000.000000,-0.490188,-0.541113,-0.571896,0.373963,0
-10.051631,-1.748293,1.408803,0.595913,-0.624024,0.170387,42.772107,-3.159083,17.645297,4635732002182529000.000000,-0.722018,0.038435,-0.690705,0.011796,-10.143990,-0.591364,-0.807441,0.317993,-0.361597,0.396256,41.951075,-20.338772,-2.139285,4635727491929997300.000000,0.432193,-0.535192,0.548177,0.475689,-9.697022,-0.257035,-0.817216,0.383535,0.491875,-0.340066,40.057344,18.757924,8.520428,4635729317827969000.000000,-0.487608,-0.541845,-0.573064,0.374485,0
