Accelerometer-X,Accelerometer-Y,Accelerometer-Z,Gyroscope-X,Gyroscope-Y,Gyroscope-Z,Magnetometer-X,Magnetometer-Y,Magnetometer-Z,Barometer-pressure,Orientation-S,Orientation-X,Orientation-Y,Orientation-Z,Accelerometer-X,Accelerometer-Y,Accelerometer-Z,Gyroscope-X,Gyroscope-Y,Gyroscope-Z,Magnetometer-X,Magnetometer-Y,Magnetometer-Z,Barometer-pressure,Orientation-S,Orientation-X,Orientation-Y,Orientation-Z,Accelerometer-X,Accelerometer-Y,Accelerometer-Z,Gyroscope-X,Gyroscope-Y,Gyroscope-Z,Magnetometer-X,Magnetometer-Y,Magnetometer-Z,Barometer-pressure,Orientation-S,Orientation-X,Orientation-Y,Orientation-Z,jump
-9.763391,-1.742494,1.001007,0.733165,0.018811,-0.080388,43.399218,3.219091,14.680127,4.63583E+18,0.722721,-0.0789,0.685426,-0.040516,-9.748523,0.408036,-0.627769,0.024504,0.058812,0.089174,40.472369,-19.486748,10.552668,4.63583E+18,0.632523,-0.342074,0.564518,0.40524,-9.82696,0.065146,0.199963,0.053814,-0.023348,0.093695,41.101672,18.041887,-0.145953,4.63583E+18,-0.456218,-0.467018,-0.487215,0.579984,0
-9.667314,-1.622636,1.002272,0.749215,0.00362,-0.090571,43.474675,3.550903,14.477348,4.63583E+18,0.722959,-0.076938,0.685246,-0.042996,-9.740778,0.445388,-0.665121,0.026186,0.054021,0.087134,40.551899,-19.491491,10.316715,4.63583E+18,0.632217,-0.341816,0.564802,0.405539,-9.82696,0.067411,0.210443,0.052746,-0.027876,0.098118,41.04129,17.981504,-0.296542,4.63583E+18,-0.456704,-0.46707,-0.486867,0.579852,0
-9.629447,-1.585081,1.047015,0.765835,0.019089,-0.082549,43.627066,3.959275,14.460777,4.63583E+18,0.723153,-0.074899,0.685105,-0.045504,-9.789602,0.439834,-0.641808,0.030297,0.048163,0.08283,40.548177,-19.326892,10.402584,4.63583E+18,0.631937,-0.341549,0.565071,0.405826,-9.804274,0.018581,0.197047,0.056309,-0.029908,0.105955,41.086661,18.03444,-0.366222,4.63583E+18,-0.457204,-0.467141,-0.486491,0.579716,0
-9.548394,-1.512458,0.941545,0.764601,0.0135,-0.094217,43.541918,4.112005,14.734336,4.63583E+18,0.723353,-0.072897,0.684937,-0.048041,-9.814753,0.421341,-0.57486,0.038874,0.043826,0.079626,40.421307,-19.203357,10.683319,4.63583E+18,0.631683,-0.341262,0.565337,0.406092,-9.767654,-0.037806,0.190672,0.064041,-0.031893,0.115974,41.114532,18.112324,-0.252805,4.63583E+18,-0.457718,-0.467242,-0.486074,0.579578,0
-9.631328,-1.466142,0.998186,0.757673,-0.001397,-0.102597,43.470249,4.040337,14.729634,4.63583E+18,0.723584,-0.070942,0.684716,-0.050578,-9.802916,0.450562,-0.513452,0.038583,0.043762,0.077457,40.29775,-19.207052,10.733273,4.63583E+18,0.631432,-0.340983,0.565598,0.406354,-9.768836,-0.008113,0.218,0.069278,-0.035097,0.125587,41.167457,18.094838,-0.183111,4.63583E+18,-0.458253,-0.467364,-0.485621,0.579437,0
-9.621306,-1.512782,0.888956,0.771094,-0.014787,-0.104815,43.462724,4.030627,14.548416,4.63583E+18,0.723849,-0.068954,0.684443,-0.053155,-9.78442,0.559308,-0.494214,0.029003,0.044862,0.072764,40.30144,-19.369429,10.496542,4.63582E+18,0.631169,-0.340746,0.565836,0.406629,-9.800812,0.069778,0.277304,0.069836,-0.035655,0.135861,41.199986,18.014033,-0.29652,4.63583E+18,-0.458811,-0.467509,-0.485145,0.579278,0
-9.693619,-1.478663,0.807256,0.766903,-0.049766,-0.109909,43.631142,4.120165,14.446061,4.63583E+18,0.724205,-0.066999,0.684056,-0.055724,-9.77813,0.599279,-0.494586,0.015732,0.045898,0.066808,40.309962,-19.572153,10.44656,4.63582E+18,0.630894,-0.340563,0.566045,0.406918,-9.799633,0.0901,0.320304,0.06943,-0.033926,0.147204,41.199986,17.883229,-0.366222,4.63583E+18,-0.459391,-0.467681,-0.48465,0.579093,0
-9.7293,-1.534998,0.866726,0.765862,-0.073922,-0.105582,43.700309,4.362432,14.619453,4.63583E+18,0.724622,-0.06504,0.683591,-0.05827,-9.77813,0.496438,-0.500133,0.004888,0.046481,0.066711,40.272224,-19.618409,10.64189,4.63582E+18,0.630602,-0.340411,0.566236,0.407233,-9.775219,0.093011,0.261568,0.0648,-0.034435,0.15763,41.305815,17.732099,-0.313308,4.63583E+18,-0.460007,-0.467865,-0.484145,0.578878,0
-9.73086,-1.416995,0.868598,0.765917,-0.081811,-0.099065,43.614866,4.528634,14.421663,4.63583E+18,0.725056,-0.063063,0.683096,-0.060793,-9.742624,0.374,-0.548217,0.006796,0.044895,0.070433,40.307729,-19.497827,10.783938,4.63582E+18,0.630309,-0.340244,0.56643,0.407556,-9.743245,-0.038405,0.280206,0.067905,-0.032603,0.166582,41.461601,17.630965,-0.341243,4.63583E+18,-0.460635,-0.468077,-0.48362,0.578646,0
-9.788785,-1.454545,0.940591,0.767998,-0.064777,-0.088629,43.531601,4.518914,14.129029,4.63583E+18,0.725438,-0.061041,0.682648,-0.06329,-9.639807,0.311476,-0.568207,0.018479,0.045347,0.076258,40.345467,-19.492598,10.786553,4.63582E+18,0.63002,-0.340036,0.566652,0.407867,-9.767092,-0.091841,0.294718,0.085454,-0.036267,0.175126,41.472029,17.603075,-0.431337,4.63583E+18,-0.461256,-0.468331,-0.48303,0.578439,0
-9.728365,-1.524053,0.963761,0.768026,-0.049739,-0.08737,43.533473,4.608431,13.857275,4.63583E+18,0.725769,-0.05901,0.682238,-0.065785,-9.570604,0.299269,-0.519752,0.03133,0.048034,0.083217,40.268557,-19.580675,10.736599,4.63582E+18,0.629731,-0.339783,0.566913,0.408163,-9.81301,0.032563,0.258097,0.101933,-0.036876,0.183671,41.436576,17.648421,-0.584804,4.63583E+18,-0.461864,-0.468635,-0.48238,0.578249,0
-9.690504,-1.451439,0.940281,0.768713,-0.032262,-0.079152,43.604843,4.852551,13.930821,4.63583E+18,0.726047,-0.056943,0.681876,-0.068257,-9.588353,0.316643,-0.423218,0.041009,0.050688,0.090144,40.186771,-19.539262,10.730308,4.63582E+18,0.629438,-0.339494,0.567206,0.408447,-9.743816,0.180803,0.274382,0.111444,-0.034588,0.188249,41.431927,17.676319,-0.719668,4.63583E+18,-0.462458,-0.468974,-0.481702,0.578065,0
-9.606295,-1.400746,0.952177,0.754719,-0.040508,-0.083152,43.602669,5.094524,14.011615,4.63583E+18,0.726335,-0.054932,0.681484,-0.070698,-9.601311,0.335892,-0.342184,0.043309,0.055962,0.096067,40.145363,-19.495224,10.730308,4.63582E+18,0.629126,-0.339197,0.567523,0.408733,-9.654892,0.337743,0.323207,0.111647,-0.032197,0.184433,41.484829,17.585632,-0.575483,4.63583E+18,-0.463038,-0.46931,-0.481038,0.577881,0
-9.570295,-1.282086,0.953105,0.73686,-0.037466,-0.07688,43.519394,5.253511,13.913658,4.63583E+18,0.726606,-0.052955,0.681102,-0.073069,-9.60685,0.335515,-0.341431,0.037517,0.062922,0.103446,40.065827,-19.613532,10.736223,4.63582E+18,0.628778,-0.338913,0.567858,0.409041,-9.639196,0.493508,0.319141,0.100764,-0.03296,0.182246,41.472047,17.431613,-0.463881,4.63583E+18,-0.463637,-0.469619,-0.480403,0.577678,0
-9.558087,-1.295221,0.988491,0.730289,-0.041158,-0.075974,43.523412,5.421941,13.8041,4.63583E+18,0.72688,-0.050996,0.680704,-0.075417,-9.601691,0.377292,-0.365843,0.026903,0.070365,0.111538,40.110872,-19.780769,10.831225,4.63582E+18,0.628381,-0.338651,0.568205,0.409385,-9.658958,0.556888,0.29763,0.086472,-0.03352,0.178687,41.497018,17.272924,-0.577202,4.63583E+18,-0.464253,-0.469894,-0.479807,0.577455,0
-9.545571,-1.344978,0.980301,0.717741,-0.063021,-0.080774,43.678089,5.493331,13.708914,4.63583E+18,0.727204,-0.049094,0.680236,-0.077738,-9.588724,0.391402,-0.384342,0.017708,0.078909,0.117913,40.269928,-19.783435,11.020226,4.63582E+18,0.627941,-0.338413,0.568567,0.409755,-9.683371,0.531325,0.285424,0.076553,-0.035756,0.172279,41.476709,17.212439,-0.646992,4.63583E+18,-0.464877,-0.470132,-0.479243,0.577227,0
-9.519302,-1.430739,1.121536,0.715713,-0.06321,-0.064914,43.675926,5.497658,13.708605,4.63583E+18,0.727527,-0.047152,0.679765,-0.080004,-9.630494,0.324834,-0.414287,0.017541,0.08642,0.126942,40.268604,-19.73937,11.073644,4.63582E+18,0.627466,-0.338167,0.568961,0.410137,-9.662465,0.474945,0.273217,0.075685,-0.038046,0.16587,41.398816,17.159566,-0.586566,4.63583E+18,-0.465491,-0.470351,-0.47869,0.577013,0
-9.425962,-1.51977,1.060197,0.717741,-0.070336,-0.055463,43.594791,5.670391,13.701324,4.63583E+18,0.727868,-0.045179,0.679266,-0.082245,-9.674175,0.28077,-0.433555,0.024433,0.093863,0.13814,40.074447,-19.780754,10.928696,4.63582E+18,0.626963,-0.337892,0.569401,0.410523,-9.689168,0.496994,0.268563,0.075585,-0.038453,0.160122,41.41621,17.126987,-0.609759,4.63583E+18,-0.466091,-0.470558,-0.478147,0.576809,0
-9.497987,-1.283032,0.98974,0.715741,-0.064089,-0.052449,43.678089,5.906189,13.882326,4.63583E+18,0.728185,-0.043201,0.678782,-0.084471,-9.67456,0.345784,-0.433169,0.029357,0.100338,0.148337,39.877996,-19.866196,10.827967,4.63582E+18,0.626433,-0.337592,0.569879,0.410916,-9.754859,0.487152,0.313882,0.072127,-0.041758,0.158086,41.489454,17.225179,-0.767845,4.63583E+18,-0.466698,-0.470748,-0.47761,0.576609,0
-9.524923,-1.330922,1.024162,0.718974,-0.064723,-0.056502,43.673996,5.822931,13.972754,4.63583E+18,0.728496,-0.041224,0.678288,-0.086717,-9.674174,0.462334,-0.463108,0.030425,0.102542,0.155331,39.872968,-19.910275,10.875249,4.63582E+18,0.625885,-0.337278,0.570374,0.411321,-9.763025,0.373253,0.31915,0.075124,-0.045116,0.158747,41.562693,17.33855,-0.842311,4.63583E+18,-0.467305,-0.470939,-0.477056,0.576419,0
-9.645721,-1.339382,0.977841,0.723136,-0.088929,-0.052394,43.515025,5.826988,13.786876,4.63583E+18,0.728871,-0.039231,0.677713,-0.088957,-9.686381,0.459518,-0.500117,0.034596,0.107714,0.163257,39.996203,-19.951648,10.972909,4.63582E+18,0.625318,-0.336943,0.5709,0.411728,-9.783922,0.302289,0.274978,0.089208,-0.048573,0.159815,41.545313,17.272962,-0.781896,4.63583E+18,-0.467895,-0.471151,-0.476461,0.57626,0
-9.719915,-1.206652,1.027303,0.722478,-0.098899,-0.05453,43.348488,5.987897,13.498566,4.63583E+18,0.729267,-0.037248,0.677101,-0.091199,-9.692678,0.361482,-0.512711,0.045692,0.114775,0.174972,39.99892,-20.037089,11.070556,4.63582E+18,0.624728,-0.336564,0.57148,0.41213,-9.840299,0.376038,0.218601,0.09283,-0.055489,0.160222,41.479624,17.068971,-0.684244,4.63583E+18,-0.468492,-0.471354,-0.475844,0.576119,0
-9.830094,-1.133721,1.099293,0.696787,-0.081479,-0.056365,43.354443,6.225776,13.391521,4.63583E+18,0.729602,-0.035342,0.676545,-0.093376,-9.674952,0.32921,-0.506802,0.058061,0.119013,0.187789,39.836653,-20.081179,11.168215,4.63582E+18,0.624121,-0.336132,0.572108,0.41253,-9.893783,0.419709,0.187768,0.076258,-0.066676,0.158901,41.456341,16.882344,-0.646992,4.63583E+18,-0.46914,-0.471496,-0.475247,0.575968,0
-9.950897,-1.077357,1.126497,0.668913,-0.05166,-0.0467,43.582603,6.223602,13.389037,4.63583E+18,0.729847,-0.03348,0.676086,-0.095448,-9.644239,0.359534,-0.512321,0.065089,0.124354,0.199573,39.67523,-20.122541,11.265875,4.63582E+18,0.62349,-0.335663,0.572778,0.412936,-9.912412,0.347099,0.220863,0.062008,-0.067602,0.156765,41.599798,16.821802,-0.767798,4.63583E+18,-0.469812,-0.471605,-0.474686,0.575794,0
-10.02352,-1.1985,1.256741,0.637304,-0.024711,-0.035086,43.661844,6.144672,13.291377,4.63583E+18,0.730011,-0.031671,0.675718,-0.097398,-9.649364,0.425689,-0.524918,0.068327,0.132279,0.208703,39.67879,-20.243427,11.363523,4.63582E+18,0.622827,-0.335179,0.573486,0.413347,-9.904862,0.335383,0.266796,0.058088,-0.070442,0.15661,41.786424,16.776506,-0.902706,4.63583E+18,-0.470494,-0.4717,-0.474127,0.575619,0
-10.06986,-1.282401,1.231076,0.622648,0.011064,-0.028895,43.509059,6.319651,13.198075,4.63583E+18,0.73007,-0.029874,0.67546,-0.099291,-9.709615,0.487903,-0.572177,0.072531,0.138308,0.218247,39.758334,-20.366678,11.461181,4.63582E+18,0.622139,-0.334672,0.574229,0.413763,-9.862455,0.406863,0.29587,0.060322,-0.074363,0.153715,41.80168,16.65041,-0.879572,4.63583E+18,-0.471173,-0.471785,-0.473562,0.57546,0
-10.018551,-1.30526,1.159393,0.619336,0.025717,-0.031031,43.58664,6.640827,13.269447,4.63583E+18,0.730081,-0.028086,0.675244,-0.101183,-9.759623,0.470966,-0.658022,0.079974,0.139893,0.228446,39.796135,-20.369426,11.464322,4.63582E+18,0.621437,-0.334125,0.575002,0.414185,-9.808969,0.447016,0.320284,0.065255,-0.076091,0.149035,41.728437,16.544565,-0.834761,4.63583E+18,-0.471835,-0.471866,-0.47299,0.575322,0
-9.87051,-1.267707,1.146564,0.611913,0.028976,-0.033167,43.826441,6.640827,13.269447,4.63583E+18,0.730077,-0.026325,0.675036,-0.10306,-9.736389,0.510347,-0.695822,0.09317,0.144613,0.236991,39.760694,-20.366673,11.366669,4.63582E+18,0.620727,-0.333533,0.57582,0.414591,-9.782789,0.46677,0.314504,0.073898,-0.075586,0.144763,41.791064,16.569452,-0.950871,4.63583E+18,-0.472466,-0.471958,-0.472405,0.575208,0
-9.664227,-1.197878,1.110253,0.606626,0.033637,-0.035629,43.893787,6.64269,13.266963,4.63583E+18,0.730053,-0.024584,0.674839,-0.104929,-9.710792,0.615485,-0.666292,0.106676,0.148989,0.246052,39.681549,-20.452119,11.363511,4.63582E+18,0.620007,-0.332892,0.576685,0.414981,-9.793226,0.55912,0.32783,0.085901,-0.075431,0.135867,41.839429,16.692648,-1.146195,4.63583E+18,-0.47305,-0.472058,-0.471808,0.575136,0
-9.508029,-1.258286,1.087074,0.603261,0.012575,-0.050418,43.739124,6.716225,13.166865,4.63583E+18,0.730077,-0.022904,0.674574,-0.10683,-9.711188,0.635182,-0.575733,0.110054,0.153674,0.254632,39.560671,-20.496229,11.455258,4.63582E+18,0.619264,-0.332231,0.577578,0.415377,-9.787449,0.700946,0.371999,0.094095,-0.07782,0.124117,41.736647,16.793846,-1.160357,4.63583E+18,-0.473595,-0.472146,-0.47121,0.575107,0
-9.447294,-1.294294,1.110874,0.593944,0.003069,-0.058505,43.740979,6.803542,12.976161,4.63583E+18,0.730119,-0.021279,0.674279,-0.108728,-9.681265,0.658009,-0.524521,0.109468,0.160153,0.259525,39.401974,-20.578902,11.546615,4.63582E+18,0.618494,-0.331571,0.578493,0.415778,-9.702656,0.787049,0.375542,0.088209,-0.080364,0.109727,41.585507,16.723685,-1.002323,4.63583E+18,-0.474122,-0.472187,-0.47065,0.575097,0
-9.400936,-1.305883,1.110256,0.596135,-0.002299,-0.049,43.81237,6.962546,12.966425,4.63583E+18,0.730176,-0.019622,0.673963,-0.110601,-9.667865,0.725344,-0.54303,0.112086,0.165975,0.261661,39.28462,-20.743892,11.644269,4.63582E+18,0.617709,-0.330911,0.579428,0.416169,-9.633416,0.767956,0.351129,0.081995,-0.079198,0.097007,41.680517,16.527269,-0.927763,4.63583E+18,-0.47463,-0.472194,-0.470133,0.575096,0
-9.450061,-1.292454,1.087071,0.600272,-0.008438,-0.044196,43.81237,7.12698,13.052164,4.63583E+18,0.730248,-0.017942,0.673622,-0.11247,-9.686374,0.804083,-0.578848,0.111709,0.169836,0.263797,39.288123,-20.908472,11.789141,4.63582E+18,0.616908,-0.330253,0.580375,0.41656,-9.642072,0.744652,0.379537,0.077218,-0.079295,0.083025,41.871832,16.299999,-0.98813,4.63583E+18,-0.475113,-0.472164,-0.469653,0.575113,0
-9.511105,-1.233563,1.10872,0.599419,-0.004461,-0.059709,43.81237,7.039672,13.14522,4.63583E+18,0.730297,-0.016305,0.673289,-0.114383,-9.674972,0.86042,-0.633979,0.107918,0.171901,0.264384,39.290938,-20.914102,11.937229,4.63582E+18,0.616095,-0.329607,0.58132,0.416957,-9.701326,0.759742,0.410389,0.07411,-0.083412,0.069645,41.887159,16.211432,-1.078237,4.63583E+18,-0.475576,-0.472094,-0.469199,0.575158,0
-9.57122,-1.254902,1.027267,0.606331,-0.011777,-0.055598,43.806218,6.892973,13.059153,4.63583E+18,0.730364,-0.014639,0.672925,-0.116302,-9.656056,0.87853,-0.688711,0.108881,0.174625,0.263316,39.205487,-20.790417,12.028986,4.63582E+18,0.615277,-0.328966,0.582271,0.417344,-9.721756,0.670988,0.407507,0.075683,-0.082151,0.059216,41.806375,16.256698,-1.17123,4.63583E+18,-0.476007,-0.472011,-0.468764,0.575225,0
-9.596856,-1.156336,1.101115,0.591325,-0.012336,-0.057385,43.568222,7.212776,12.9493,4.63583E+18,0.730426,-0.013023,0.672563,-0.118182,-9.626549,0.897042,-0.720237,0.113153,0.176209,0.262248,39.202662,-20.829306,12.079023,4.63582E+18,0.61446,-0.328321,0.583231,0.417715,-9.702004,0.617915,0.372666,0.078227,-0.079451,0.051583,41.720923,16.329942,-1.268889,4.63583E+18,-0.476408,-0.471927,-0.468342,0.575305,0
-9.668873,-1.024508,1.195411,0.57405,0.006089,-0.04641,43.572183,7.619248,12.841883,4.63583E+18,0.730437,-0.011419,0.672262,-0.119981,-9.612724,0.903348,-0.73204,0.11536,0.177313,0.260663,39.282211,-20.911282,12.132541,4.63582E+18,0.613645,-0.327676,0.584194,0.418074,-9.722852,0.652752,0.391733,0.079703,-0.079043,0.043194,41.733544,16.35792,-1.306192,4.63583E+18,-0.476784,-0.471832,-0.467934,0.575404,0
-9.692983,-0.989104,1.160617,0.549536,-0.006676,-0.065344,43.728746,7.688836,12.827848,4.63583E+18,0.730469,-0.00995,0.671929,-0.121767,-9.661149,0.885643,-0.756455,0.117426,0.177829,0.261109,39.320045,-20.869971,12.224299,4.63582E+18,0.612829,-0.327026,0.585161,0.418427,-9.703765,0.641213,0.430149,0.080111,-0.077061,0.0382,41.814366,16.312629,-1.36658,4.63583E+18,-0.477142,-0.471734,-0.467539,0.575509,0
-9.706104,-0.997656,1.19663,0.526972,-0.016877,-0.072421,43.796203,7.61742,12.744529,4.63583E+18,0.730522,-0.008573,0.671573,-0.123511,-9.698578,0.872626,-0.786767,0.123763,0.176316,0.263281,39.202043,-20.873031,12.404143,4.63582E+18,0.61202,-0.326353,0.586137,0.418771,-9.665367,0.637681,0.439467,0.076807,-0.075178,0.031438,41.846977,16.239365,-1.403851,4.63583E+18,-0.477487,-0.471621,-0.46717,0.575615,0
-9.753109,-0.873398,1.209443,0.499495,-0.008757,-0.064142,43.639345,7.619239,12.744529,4.63583E+18,0.730551,-0.007252,0.671252,-0.125151,-9.687185,0.902533,-0.829289,0.131792,0.173592,0.263316,38.963796,-21.04149,12.55511,4.63582E+18,0.611226,-0.325655,0.587118,0.419098,-9.708912,0.609238,0.439467,0.073449,-0.07411,0.02579,41.741266,16.302042,-1.517115,4.63583E+18,-0.477822,-0.471494,-0.466823,0.575722,0
-9.728691,-1.133156,1.24485,0.483498,-0.01685,-0.065852,43.554187,7.692797,12.744529,4.63583E+18,0.730599,-0.005989,0.670913,-0.126751,-9.668263,0.939563,-0.907619,0.134622,0.169942,0.260699,38.843956,-21.208938,12.378515,4.63582E+18,0.610448,-0.324951,0.58809,0.419416,-9.749058,0.540653,0.447017,0.073295,-0.073702,0.025228,41.676075,16.410773,-1.52656,4.63583E+18,-0.478156,-0.471366,-0.466481,0.575827,0
-9.705492,-1.04832,1.236587,0.4682,-0.007318,-0.050979,43.480646,7.778239,12.742103,4.63583E+18,0.730624,-0.004725,0.670608,-0.128262,-9.65057,0.993463,-1.00567,0.133518,0.165599,0.255911,38.767283,-21.294375,12.224274,4.63582E+18,0.609685,-0.324255,0.589041,0.41973,-9.776366,0.558013,0.474325,0.064453,-0.075684,0.028278,41.781779,16.39052,-1.436451,4.63583E+18,-0.47852,-0.471221,-0.466152,0.57591,0
-9.725359,-0.988496,1.377921,0.439546,-0.00075,-0.039256,43.403384,7.863387,12.644141,4.63583E+18,0.730636,-0.00351,0.670335,-0.129655,-9.631641,1.0966,-1.049837,0.133518,0.160883,0.247475,38.608599,-21.415203,12.457148,4.63582E+18,0.608947,-0.323572,0.589968,0.420027,-9.775239,0.502912,0.420351,0.059409,-0.075585,0.030569,41.794133,16.312623,-1.577488,4.63583E+18,-0.478898,-0.471071,-0.465832,0.575977,0
-9.568492,-0.976592,1.317796,0.418423,0.011565,-0.028893,43.641468,7.930889,12.537305,4.63583E+18,0.730616,-0.002321,0.670109,-0.130954,-9.643436,1.177395,-1.026248,0.13197,0.155986,0.238305,38.526566,-21.461853,12.65318,4.63582E+18,0.608233,-0.322907,0.590866,0.420311,-9.765923,0.451674,0.401076,0.067082,-0.07411,0.029655,41.61055,16.375263,-1.737464,4.63583E+18,-0.479254,-0.47094,-0.465497,0.576058,0
-9.486058,-0.975989,1.293381,0.406463,0.004167,-0.030897,43.639356,7.774003,12.549211,4.63583E+18,0.730614,-0.001178,0.669864,-0.132224,-9.673746,1.196326,-0.989214,0.129282,0.153334,0.230865,38.561943,-21.423992,12.605595,4.63582E+18,0.607534,-0.322264,0.591741,0.420585,-9.743273,0.504522,0.430151,0.072227,-0.069739,0.02884,41.615526,16.529312,-1.656827,4.63583E+18,-0.479592,-0.470827,-0.465164,0.576139,0
-9.522378,-0.953686,1.271079,0.386168,-0.000343,-0.02793,43.557826,7.6967,12.546495,4.63583E+18,0.730625,-0.00009,0.669615,-0.133429,-9.692678,1.166847,-0.988384,0.127662,0.148582,0.223352,38.564435,-21.541906,12.561418,4.63582E+18,0.606855,-0.321636,0.59259,0.42085,-9.759494,0.635257,0.484758,0.064048,-0.067293,0.027519,41.827046,16.499279,-1.473735,4.63583E+18,-0.47994,-0.4707,-0.464861,0.576197,0
-9.547698,-1.015326,1.332115,0.3659,-0.013622,-0.034049,43.633183,7.938734,12.436931,4.63583E+18,0.730668,0.000912,0.669334,-0.134595,-9.710363,1.147078,-1.006902,0.127625,0.144236,0.213849,38.567829,-21.709406,12.608578,4.63582E+18,0.606201,-0.321026,0.593413,0.421097,-9.755485,0.665629,0.565549,0.050822,-0.067293,0.024062,41.920223,16.299954,-1.517076,4.63583E+18,-0.480306,-0.470539,-0.464597,0.576236,0
-9.607524,-1.099261,1.390752,0.34668,-0.003413,-0.029152,43.78409,8.089643,12.344063,4.63583E+18,0.730684,0.001874,0.669093,-0.135692,-9.699829,1.218646,-1.042686,0.124568,0.140553,0.204642,38.57665,-21.788959,12.753385,4.63583E+18,0.605568,-0.32044,0.594209,0.421332,-9.741508,0.631896,0.605711,0.041968,-0.064652,0.02045,41.8221,16.211432,-1.70773,4.63583E+18,-0.480673,-0.470363,-0.464367,0.57626,0
-9.621218,-1.124866,1.355617,0.327583,-0.01266,-0.042204,43.625394,7.934812,12.437262,4.63583E+18,0.730717,0.002737,0.668833,-0.136775,-9.638792,1.269989,-1.062463,0.110902,0.137275,0.196723,38.497513,-21.832732,12.942809,4.63583E+18,0.604938,-0.319903,0.594962,0.421584,-9.77924,0.645217,0.565091,0.039521,-0.06236,0.014604,41.753982,16.301989,-1.782281,4.63583E+18,-0.481025,-0.470177,-0.464158,0.576287,0
-9.692678,-1.191843,1.380931,0.313513,-0.048377,-0.063226,43.470562,7.94288,12.353295,4.63583E+18,0.730837,0.003479,0.668471,-0.137882,-9.61312,1.280939,-1.067519,0.09628,0.13466,0.186557,38.412061,-21.87441,13.084661,4.63583E+18,0.604311,-0.319424,0.595667,0.42185,-9.779907,0.613924,0.484304,0.038861,-0.060632,0.010429,41.847418,16.267369,-1.842648,4.63583E+18,-0.481364,-0.469987,-0.463962,0.576316,0
-9.691489,-1.013809,1.440771,0.292022,-0.017976,-0.029517,43.474428,8.266196,12.327098,4.63583E+18,0.730891,0.004266,0.668213,-0.138827,-9.613541,1.312085,-1.092352,0.091861,0.129872,0.177976,38.36787,-21.918181,13.182308,4.63583E+18,0.603704,-0.318969,0.596341,0.42211,-9.743285,0.638777,0.45922,0.035812,-0.056515,0.005652,41.80992,16.15861,-1.993129,4.63583E+18,-0.481686,-0.469794,-0.46379,0.576343,0
-9.643551,-1.042387,1.450302,0.2655,-0.01128,-0.056586,43.627179,8.335872,12.231818,4.63583E+18,0.730909,0.004902,0.667989,-0.139779,-9.624902,1.3184,-1.098666,0.089799,0.126594,0.168953,38.255922,-22.001092,13.279961,4.63583E+18,0.603118,-0.318537,0.59699,0.422357,-9.71421,0.633682,0.524242,0.040783,-0.051835,-0.000097,41.70405,16.178795,-2.002691,4.63583E+18,-0.481974,-0.469612,-0.463626,0.576381,0
-9.632236,-1.228785,1.355022,0.246144,-0.035405,-0.055362,43.542024,8.268277,12.231818,4.63583E+18,0.730996,0.005468,0.667702,-0.140674,-9.643848,1.306616,-1.08099,0.085526,0.123464,0.159818,38.059332,-22.124437,13.283348,4.63583E+18,0.602549,-0.318135,0.597611,0.422595,-9.689796,0.700904,0.553996,0.040241,-0.051523,-0.004117,41.774153,16.256698,-1.852225,4.63583E+18,-0.482255,-0.469422,-0.463475,0.576424,0
-9.654281,-1.065299,1.357389,0.221528,-0.042124,-0.048274,43.474409,8.425179,12.233889,4.63583E+18,0.731104,0.005975,0.667409,-0.141479,-9.655633,1.305769,-1.073828,0.0828,0.11967,0.151825,38.012583,-22.168644,13.232825,4.63583E+18,0.601998,-0.317754,0.598206,0.422825,-9.688015,0.756859,0.511611,0.032764,-0.051679,-0.011282,41.887582,16.239409,-1.721925,4.63583E+18,-0.482535,-0.469202,-0.463356,0.576464,0
-9.582811,-1.196915,1.450914,0.195265,-0.06091,-0.056096,43.629261,8.506499,12.315209,4.63583E+18,0.731261,0.00637,0.667073,-0.142235,-9.680048,1.324292,-1.104135,0.080701,0.114956,0.145858,38.091721,-22.1274,13.321206,4.63583E+18,0.601465,-0.317385,0.598777,0.423051,-9.685135,0.764403,0.49584,0.028588,-0.049291,-0.020895,41.822157,16.158627,-1.74497,4.63583E+18,-0.482794,-0.468962,-0.463271,0.576511,0
-9.583403,-1.22222,1.378549,0.186641,-0.062807,-0.035637,43.62719,8.423108,12.227085,4.63583E+18,0.731435,0.006794,0.666735,-0.142904,-9.680896,1.312933,-1.140755,0.074919,0.110572,0.140076,38.212516,-22.124432,13.468958,4.63583E+18,0.600946,-0.317039,0.599318,0.423283,-9.68047,0.746437,0.523133,0.022492,-0.048727,-0.027207,41.708726,16.12598,-1.835082,4.63583E+18,-0.483046,-0.468701,-0.463213,0.576558,0
-9.608691,-1.282656,1.345451,0.174971,-0.097355,-0.051066,43.539706,8.428968,12.034156,4.63583E+18,0.731695,0.007119,0.666299,-0.143589,-9.650592,1.317547,-1.195047,0.070498,0.107958,0.129985,38.335859,-22.168644,13.478678,4.63583E+18,0.600444,-0.316725,0.599831,0.423503,-9.695557,0.687186,0.567298,0.020547,-0.044515,-0.03346,41.721334,16.12598,-1.928077,4.63583E+18,-0.483278,-0.468436,-0.463179,0.576607,0
-9.666798,-1.317814,1.45356,0.166375,-0.103277,-0.04247,43.372906,8.669307,11.938548,4.63583E+18,0.731976,0.007439,0.665849,-0.144223,-9.61986,1.360486,-1.244729,0.069467,0.101108,0.121328,38.338843,-22.12741,13.469377,4.63583E+18,0.599972,-0.316424,0.600314,0.423714,-9.727512,0.704452,0.593497,0.018723,-0.039678,-0.038957,41.749321,16.080727,-2.078524,4.63583E+18,-0.483488,-0.468171,-0.463169,0.576654,0
-9.608105,-1.293399,1.48901,0.155514,-0.089853,-0.032044,43.377008,8.742747,11.931614,4.63583E+18,0.732226,0.007762,0.665446,-0.144795,-9.619006,1.361767,-1.222023,0.067331,0.093041,0.114442,38.212167,-22.047854,13.607833,4.63583E+18,0.599529,-0.316132,0.600763,0.423922,-9.718883,0.702278,0.590621,0.01709,-0.038453,-0.043889,41.651279,16.143234,-2.03538,4.63583E+18,-0.483687,-0.467896,-0.463175,0.576706,0
-9.642969,-1.275137,1.476803,0.137458,-0.095629,-0.031993,43.545859,8.335605,12.132108,4.63583E+18,0.732493,0.008028,0.665036,-0.145317,-9.63753,1.348703,-1.178229,0.067771,0.086117,0.106927,38.047163,-22.086506,13.750138,4.63582E+18,0.599117,-0.315847,0.601185,0.424119,-9.697344,0.585574,0.563331,0.023689,-0.037793,-0.04791,41.598163,16.252015,-1.844727,4.63583E+18,-0.483864,-0.467627,-0.463177,0.576774,0
-9.607226,-1.500046,1.466353,0.123726,-0.118821,-0.029857,43.631019,8.262165,12.045777,4.63583E+18,0.732825,0.008243,0.664563,-0.145795,-9.655625,1.355022,-1.195464,0.067884,0.078641,0.097428,37.929694,-22.209863,13.70604,4.63582E+18,0.598739,-0.315573,0.601576,0.424302,-9.70776,0.585243,0.534252,0.022493,-0.034746,-0.047155,41.798887,16.239432,-1.777614,4.63583E+18,-0.484039,-0.467364,-0.463187,0.576831,0
-9.607518,-1.440474,1.527674,0.116403,-0.12894,-0.027772,43.698714,8.671046,11.926633,4.63583E+18,0.733186,0.008436,0.664063,-0.146246,-9.662376,1.390347,-1.226628,0.062104,0.07271,0.084611,37.850567,-22.212883,13.564154,4.63582E+18,0.59839,-0.315336,0.601924,0.424476,-9.671853,0.539637,0.562619,0.022525,-0.030474,-0.04791,41.912683,16.211432,-1.902922,4.63583E+18,-0.484204,-0.467112,-0.463207,0.576882,0
-9.617693,-1.443084,1.595109,0.115385,-0.116986,-0.02795,43.540037,8.818121,11.926923,4.63583E+18,0.733514,0.008633,0.663599,-0.146695,-9.626622,1.510683,-1.244722,0.050469,0.066892,0.070248,37.806328,-22.209853,13.513596,4.63582E+18,0.598065,-0.315157,0.602217,0.424652,-9.666469,0.525997,0.601036,0.026547,-0.02884,-0.051774,41.757214,16.399934,-2.090701,4.63583E+18,-0.484345,-0.466866,-0.463226,0.576947,0
-9.54851,-1.55005,1.429717,0.116707,-0.140587,-0.035274,43.388884,8.496353,11.93652,4.63583E+18,0.733902,0.008799,0.663063,-0.14717,-9.600905,1.522659,-1.257362,0.029337,0.061991,0.052168,37.806328,-22.254097,13.560679,4.63582E+18,0.597756,-0.315067,0.602436,0.424843,-9.725706,0.647342,0.595292,0.012599,-0.0295,-0.052748,41.663868,16.569391,-2.100397,4.63583E+18,-0.484512,-0.466589,-0.46328,0.576987,0
-9.643265,-1.537841,1.492218,0.12828,-0.167929,-0.036317,43.549346,8.502183,11.836225,4.63583E+18,0.734363,0.008981,0.662435,-0.147681,-9.642539,1.464015,-1.269133,0.007744,0.061399,0.035993,37.771015,-22.218784,13.611255,4.63583E+18,0.597448,-0.315071,0.602595,0.425047,-9.768792,0.534641,0.61611,-0.001413,-0.029908,-0.05168,41.761869,16.504067,-2.12336,4.63583E+18,-0.484709,-0.466285,-0.463365,0.576999,0
-9.619143,-1.529116,1.613697,0.132603,-0.177287,-0.036495,43.775749,8.742531,11.631335,4.63583E+18,0.73485,0.00917,0.661776,-0.148204,-9.70401,1.501073,-1.311201,-0.004634,0.056289,0.027334,37.69189,-22.257353,13.658333,4.63583E+18,0.597152,-0.315119,0.602708,0.425267,-9.800746,0.382027,0.604631,-0.006251,-0.02727,-0.047973,41.822563,16.398141,-2.221019,4.63583E+18,-0.484918,-0.465987,-0.463459,0.576989,0
-9.607226,-1.655877,1.709325,0.139087,-0.176143,-0.043895,43.771997,8.825953,11.538305,4.63583E+18,0.735328,0.009361,0.661115,-0.148767,-9.682235,1.431353,-1.325165,-0.014246,0.048659,0.022508,37.694699,-22.498395,13.75598,4.63583E+18,0.596871,-0.315191,0.602777,0.42551,-9.829828,0.406779,0.533191,-0.006158,-0.029593,-0.045271,41.671809,16.505807,-2.077464,4.63583E+18,-0.485138,-0.465685,-0.463545,0.576978,0
-9.604906,-1.480286,1.718924,0.148473,-0.172226,-0.048067,43.61705,8.823922,11.631625,4.63583E+18,0.735792,0.009573,0.66046,-0.149365,-9.608108,1.354581,-1.288542,-0.019227,0.044939,0.017721,37.815891,-22.551483,13.806573,4.63583E+18,0.5966,-0.315282,0.602822,0.425759,-9.816558,0.416858,0.545721,-0.003362,-0.031385,-0.042884,41.585951,16.589861,-1.852348,4.63583E+18,-0.485365,-0.465392,-0.463616,0.576967,0
-9.510433,-1.61484,1.620122,0.148952,-0.183057,-0.048142,43.622533,8.738481,11.541278,4.63583E+18,0.736286,0.009781,0.659771,-0.149964,-9.623989,1.378994,-1.251922,-0.011506,0.037064,0.011351,37.932957,-22.342645,13.759513,4.63582E+18,0.59637,-0.315356,0.602853,0.425983,-9.772402,0.417916,0.573748,0.000501,-0.027679,-0.03968,41.688588,16.454219,-1.895316,4.63583E+18,-0.485585,-0.465123,-0.463678,0.576949,0
-9.548199,-1.757292,1.475947,0.169194,-0.200849,-0.051271,43.850714,8.658782,11.250632,4.63583E+18,0.736825,0.010034,0.659014,-0.150627,-9.727088,1.403409,-1.185888,0.000913,0.022741,0.009021,37.936054,-22.336451,13.661854,4.63582E+18,0.596196,-0.315381,0.602866,0.426189,-9.74618,0.480003,0.536074,0.001477,-0.026954,-0.037794,41.696577,16.362593,-2.138692,4.63583E+18,-0.485803,-0.464866,-0.463732,0.57693,0
-9.633364,-1.733164,1.431712,0.187127,-0.247044,-0.051372,43.916495,8.817765,11.05761,4.63583E+18,0.737489,0.010313,0.658103,-0.15134,-9.731505,1.374876,-1.135288,0.002767,0.013371,0.009137,37.932962,-22.424999,13.705386,4.63582E+18,0.596047,-0.315386,0.602859,0.426404,-9.703836,0.527779,0.550382,-0.00091,-0.027772,-0.039363,41.603594,16.508604,-2.306436,4.63583E+18,-0.486023,-0.464601,-0.46379,0.576911,0
-9.70345,-1.724689,1.579061,0.195999,-0.258882,-0.055795,43.676367,8.982639,10.962248,4.63583E+18,0.738181,0.010602,0.657149,-0.152089,-9.644733,1.295312,-1.152936,-0.001544,0.012303,0.007992,37.971348,-22.307349,13.894811,4.63582E+18,0.595897,-0.315402,0.602841,0.426628,-9.695539,0.567263,0.618953,-0.004773,-0.026453,-0.03993,41.618948,16.602068,-2.291082,4.63583E+18,-0.486246,-0.464333,-0.463861,0.576882,0
-9.64442,-1.867447,1.755295,0.218577,-0.23022,-0.06625,43.604843,8.901196,10.959963,4.63583E+18,0.738786,0.010951,0.656268,-0.152929,-9.637079,1.298535,-1.189556,-0.00166,0.008147,0.009574,37.894442,-22.298486,13.948512,4.63582E+18,0.595754,-0.315408,0.602814,0.42686,-9.704885,0.570889,0.631926,-0.008386,-0.027613,-0.039521,41.651661,16.602068,-2.25837,4.63583E+18,-0.486481,-0.464056,-0.463937,0.576846,0
-9.665978,-1.856097,1.648285,0.247617,-0.208857,-0.067443,43.606557,8.986362,10.862304,4.63583E+18,0.739329,0.0114,0.655433,-0.153851,-9.632529,1.331051,-1.196769,0.002573,0.002214,0.012225,37.7009,-22.507344,13.857178,4.63582E+18,0.595627,-0.315387,0.602783,0.427098,-9.659689,0.508811,0.599979,-0.003022,-0.026863,-0.039521,41.606463,16.602068,-2.25837,4.63583E+18,-0.486703,-0.463793,-0.464,0.576819,0
-9.569183,-1.878519,1.659354,0.284724,-0.187571,-0.073628,43.679794,9.057893,10.762382,4.63583E+18,0.739807,0.011961,0.654639,-0.154892,-9.601345,1.283113,-1.184118,0.007399,0,0.013371,37.492052,-22.478282,13.800692,4.63582E+18,0.595508,-0.315349,0.602756,0.42733,-9.631641,0.528818,0.601021,0.006341,-0.023658,-0.040181,41.623612,16.602068,-2.25837,4.63583E+18,-0.4869,-0.463557,-0.464048,0.576804,0
-9.510136,-1.818619,1.623869,0.310285,-0.169487,-0.070622,43.753324,9.059598,10.569338,4.63583E+18,0.740234,0.01262,0.653882,-0.155991,-9.612658,1.227516,-1.184118,0.015787,-0.001029,0.014876,37.521076,-22.310598,13.753209,4.63582E+18,0.5954,-0.315285,0.602743,0.427546,-9.669301,0.629327,0.602838,0.003682,-0.022431,-0.041249,41.802298,16.556877,-2.25837,4.63583E+18,-0.487098,-0.463318,-0.464106,0.576782,0
-9.531993,-1.807548,1.636076,0.332965,-0.154409,-0.075988,43.836784,9.135117,10.473668,4.63583E+18,0.740613,0.013345,0.653156,-0.157168,-9.619882,1.196774,-1.148841,0.029634,-0.006766,0.023778,37.765223,-22.342738,13.75595,4.63582E+18,0.595308,-0.315156,0.602751,0.427757,-9.70021,0.626219,0.628288,0.003295,-0.023749,-0.042317,41.843089,16.574011,-2.25837,4.63583E+18,-0.487296,-0.463074,-0.464163,0.576764,0
-9.44711,-1.840761,1.644306,0.366127,-0.134736,-0.082223,43.838489,9.30403,10.463733,4.63583E+18,0.740931,0.014168,0.652467,-0.158452,-9.601348,1.137087,-1.081479,0.042529,-0.013293,0.036635,37.856507,-22.466152,13.853604,4.63582E+18,0.595226,-0.314952,0.602783,0.427976,-9.719948,0.568038,0.639461,0.006659,-0.025226,-0.041408,41.71245,16.745163,-2.25837,4.63583E+18,-0.487494,-0.462837,-0.464207,0.576753,0
-9.386931,-1.732045,1.489866,0.401072,-0.141069,-0.081204,43.91003,9.387493,10.547196,4.63583E+18,0.741263,0.015098,0.651733,-0.159828,-9.57151,1.115846,-1.008695,0.049609,-0.009811,0.049411,37.777393,-22.46931,13.810194,4.63582E+18,0.595122,-0.314706,0.602853,0.428204,-9.759422,0.458968,0.589603,0.016043,-0.024977,-0.038613,41.704372,16.736114,-2.145414,4.63583E+18,-0.48768,-0.462625,-0.464224,0.576751,0
-9.362234,-1.674383,1.513156,0.423626,-0.14452,-0.082444,43.908062,9.392837,10.540447,4.63583E+18,0.741599,0.016092,0.650972,-0.161269,-9.540312,1.135741,-0.958507,0.050757,-0.000158,0.059183,37.815366,-22.424999,13.614876,4.63582E+18,0.594976,-0.314452,0.60296,0.428441,-9.7706,0.380255,0.561541,0.037834,-0.021932,-0.034091,41.985596,16.441887,-2.195736,4.63583E+18,-0.48783,-0.462475,-0.464185,0.576777,0
-9.328135,-1.754229,1.489303,0.451028,-0.158478,-0.090915,43.826536,9.621392,10.251981,4.63583E+18,0.741962,0.017138,0.650147,-0.16281,-9.539859,1.070191,-0.981561,0.052774,0.006329,0.067609,37.903988,-22.460259,13.560609,4.63582E+18,0.594802,-0.314183,0.603099,0.428686,-9.788515,0.426468,0.569071,0.055974,-0.020954,-0.026773,42.079711,16.439967,-2.383538,4.63583E+18,-0.487958,-0.462381,-0.464088,0.576822,0
-9.401099,-1.59861,1.492102,0.462679,-0.174687,-0.096403,43.911709,9.702927,10.158799,4.63583E+18,0.742362,0.018195,0.649262,-0.164399,-9.51681,1.036718,-1.024966,0.065312,0.01163,0.082957,37.862856,-22.498243,13.658262,4.63582E+18,0.594602,-0.313856,0.603292,0.428931,-9.787485,0.441293,0.603866,0.067473,-0.023339,-0.019546,41.69594,16.958004,-2.393452,4.63583E+18,-0.488086,-0.46232,-0.463944,0.576878,0
-9.461581,-1.577005,1.609971,0.47028,-0.153715,-0.108449,43.979617,9.619433,10.249719,4.63583E+18,0.742692,0.019258,0.648434,-0.166044,-9.491029,1.056167,-1.067012,0.082009,0.017525,0.097557,37.818535,-22.462984,13.661901,4.63582E+18,0.594382,-0.313462,0.603549,0.429163,-9.740488,0.291749,0.577407,0.088034,-0.027202,-0.011162,41.285019,17.171948,-2.288274,4.63583E+18,-0.488202,-0.462309,-0.463727,0.576963,0
-9.498759,-1.670176,1.5509,0.483121,-0.149614,-0.132671,43.824298,9.625029,10.052185,4.63583E+18,0.74299,0.020298,0.647609,-0.167798,-9.491484,1.032209,-1.057535,0.096368,0.024408,0.109226,37.894922,-22.383868,13.70527,4.63582E+18,0.594142,-0.313017,0.603864,0.429377,-9.754739,0.260231,0.489099,0.108811,-0.029499,-0.004183,41.223599,16.943434,-2.185928,4.63583E+18,-0.488301,-0.462349,-0.463442,0.577077,0
-9.558118,-1.573363,1.577539,0.49647,-0.152623,-0.142112,43.815989,9.867201,9.76119,4.63583E+18,0.743284,0.021352,0.646763,-0.169615,-9.479277,1.001464,-0.966213,0.109819,0.033467,0.124139,37.936105,-22.415924,13.853574,4.63582E+18,0.593869,-0.312517,0.604245,0.429581,-9.81577,0.36073,0.474258,0.119971,-0.029908,-0.00016,41.358888,16.776634,-2.208727,4.63583E+18,-0.488388,-0.462418,-0.463121,0.577204,0
-9.543671,-1.514837,1.697948,0.486929,-0.14689,-0.144322,43.967429,10.024236,9.556438,4.63583E+18,0.743559,0.022375,0.645939,-0.171412,-9.502325,0.95942,-0.933183,0.116902,0.044623,0.143247,37.739007,-22.545251,13.904232,4.63582E+18,0.593542,-0.311973,0.604691,0.429801,-9.846694,0.417898,0.495823,0.110324,-0.036494,0.004361,41.412193,16.846407,-2.366593,4.63583E+18,-0.488515,-0.462464,-0.462801,0.577318,0
-9.436323,-1.561991,1.74538,0.480569,-0.124876,-0.149516,43.806803,10.109678,9.472667,4.63583E+18,0.743768,0.02338,0.645185,-0.173205,-9.55748,0.945386,-1.010922,0.123705,0.053841,0.16362,37.574387,-22.554782,13.992349,4.63582E+18,0.593164,-0.311378,0.605199,0.430041,-9.81374,0.314356,0.553192,0.100566,-0.041907,0.009043,41.354824,16.907253,-2.501696,4.63583E+18,-0.48868,-0.462487,-0.462482,0.577415,0
-9.436045,-1.538133,1.734565,0.476418,-0.120408,-0.148473,43.568222,10.191234,9.456562,4.63583E+18,0.743962,0.024378,0.644444,-0.174982,-9.565182,1.02315,-1.097757,0.13593,0.059183,0.179724,37.650781,-22.510452,14.181367,4.63582E+18,0.592759,-0.310721,0.605762,0.430282,-9.78281,0.221567,0.62359,0.111193,-0.04536,0.010681,41.2769,16.854565,-2.531613,4.63583E+18,-0.488834,-0.462528,-0.462128,0.577535,0
-9.42328,-1.536741,1.782003,0.477535,-0.107883,-0.148302,43.57184,10.1094,9.2754,4.63583E+18,0.744119,0.02539,0.643738,-0.17676,-9.546189,1.133501,-1.158363,0.147763,0.061953,0.190528,37.615478,-22.551614,14.141534,4.63582E+18,0.592341,-0.310014,0.606366,0.430516,-9.860916,0.335468,0.601836,0.118564,-0.050291,0.012657,41.248817,16.776646,-2.526932,4.63583E+18,-0.488987,-0.462577,-0.461742,0.577675,0
-9.386663,-1.475988,1.77035,0.480642,-0.107883,-0.140899,43.724979,10.18485,9.17969,4.63583E+18,0.744277,0.026432,0.643027,-0.178521,-9.516791,1.266432,-1.208085,0.152745,0.066068,0.19749,37.412501,-22.595903,13.895611,4.63582E+18,0.591856,-0.309356,0.606962,0.430817,-9.874784,0.369899,0.596324,0.123174,-0.049047,0.017178,41.346647,16.650727,-2.587136,4.63583E+18,-0.489139,-0.462648,-0.461338,0.577812,0
-9.351973,-1.427991,1.784484,0.479478,-0.107738,-0.136747,43.645049,10.353531,9.169963,4.63583E+18,0.744435,0.027481,0.642313,-0.180266,-9.514546,1.355022,-1.214861,0.15326,0.073584,0.202355,37.447815,-22.595903,13.847275,4.63582E+18,0.591347,-0.308692,0.607586,0.431112,-9.783654,0.29666,0.595321,0.138551,-0.04634,0.01791,41.505331,16.544714,-2.684788,4.63583E+18,-0.489256,-0.46276,-0.460901,0.577973,0
-9.400808,-1.417166,1.87911,0.474258,-0.101232,-0.137912,43.8057,10.425122,9.262927,4.63583E+18,0.744571,0.028517,0.641621,-0.181998,-9.563826,1.360901,-1.202654,0.158443,0.076907,0.20916,37.656691,-22.672329,13.998294,4.63582E+18,0.590868,-0.30794,0.608269,0.431343,-9.756556,0.366374,0.55586,0.150286,-0.047905,0.017749,41.460873,16.659573,-2.722251,4.63583E+18,-0.489352,-0.462892,-0.460432,0.578159,0
-9.448806,-1.462961,1.842492,0.473993,-0.0906,-0.143325,44.042384,10.428978,9.15335,4.63583E+18,0.744672,0.029545,0.640959,-0.183744,-9.582811,1.349595,-1.190447,0.169599,0.077421,0.216755,37.668876,-22.836894,14.187723,4.63582E+18,0.590387,-0.307144,0.608982,0.431563,-9.773446,0.510023,0.58227,0.152087,-0.047818,0.014208,41.244826,16.891513,-2.722251,4.63583E+18,-0.489435,-0.463022,-0.459966,0.578356,0
-9.462665,-1.376683,1.808899,0.462291,-0.082103,-0.151147,43.956931,10.597679,9.051283,4.63583E+18,0.744742,0.030523,0.640331,-0.185481,-9.571058,1.336484,-1.166488,0.17933,0.077975,0.21897,37.46906,-22.925503,14.282661,4.63582E+18,0.589912,-0.30632,0.609715,0.431763,-9.770607,0.591633,0.663032,0.149702,-0.047657,0.01175,41.256479,16.83756,-2.722251,4.63583E+18,-0.489516,-0.463143,-0.459511,0.578552,0
-9.54674,-1.257638,1.905181,0.452413,-0.075405,-0.128178,43.871482,10.669271,8.762988,4.63583E+18,0.74481,0.031537,0.639727,-0.187118,-9.55252,1.389827,-1.165126,0.184196,0.077975,0.219485,37.260174,-22.884367,14.323798,4.63582E+18,0.589441,-0.305483,0.610457,0.431951,-9.720782,0.595323,0.665728,0.148473,-0.046092,0.010433,41.525192,16.515333,-2.669587,4.63583E+18,-0.489593,-0.463264,-0.459065,0.578744,0
-9.570604,-1.272035,1.941251,0.431172,-0.056492,-0.127938,43.780834,10.667353,8.679463,4.63583E+18,0.744828,0.0325,0.639194,-0.188695,-9.552066,1.49924,-1.207625,0.182258,0.079517,0.21901,37.171543,-22.845928,14.46214,4.63582E+18,0.588963,-0.304656,0.611198,0.432139,-9.692678,0.593478,0.639469,0.145839,-0.044204,0.006322,41.651661,16.415267,-2.576615,4.63583E+18,-0.489662,-0.463375,-0.458639,0.578935,0
-9.570604,-1.378341,1.953184,0.415126,-0.051175,-0.1174,43.468918,10.585736,8.683847,4.63583E+18,0.744839,0.033446,0.638688,-0.190194,-9.552521,1.586048,-1.262324,0.174782,0.08375,0.214304,37.171543,-22.928637,14.51643,4.63582E+18,0.588472,-0.303867,0.61193,0.432329,-9.7002,0.522947,0.61222,0.144858,-0.043794,0.00164,41.546357,16.541153,-2.651964,4.63583E+18,-0.489719,-0.463478,-0.458224,0.579132,0
-9.569235,-1.32869,1.953184,0.397844,-0.046951,-0.113104,43.406359,10.674749,8.876426,4.63583E+18,0.744842,0.034354,0.638206,-0.191633,-9.540314,1.599627,-1.329236,0.170904,0.085492,0.209911,37.136292,-23.093207,14.471648,4.63582E+18,0.587978,-0.303103,0.612652,0.432514,-9.712406,0.498649,0.605683,0.147242,-0.04182,-0.001974,41.480755,16.549427,-2.842573,4.63583E+18,-0.489757,-0.463586,-0.457813,0.579339,0
-9.507932,-1.241885,1.953184,0.372164,-0.04491,-0.107835,43.801798,10.915326,8.943667,4.63583E+18,0.744846,0.035198,0.637748,-0.192986,-9.522232,1.616338,-1.355479,0.168333,0.085412,0.204216,36.98667,-23.258236,14.519107,4.63582E+18,0.58749,-0.30236,0.613361,0.432692,-9.702054,0.52023,0.640448,0.149788,-0.039932,-0.003204,41.578511,16.524136,-2.977726,4.63583E+18,-0.48978,-0.463704,-0.457401,0.57955,0
-9.435506,-1.095942,1.95264,0.344273,-0.047308,-0.105556,43.86796,11.000505,8.748349,4.63583E+18,0.74486,0.035959,0.637303,-0.194258,-9.509567,1.671497,-1.342814,0.165563,0.084464,0.195591,36.825238,-23.264187,14.610428,4.63582E+18,0.587015,-0.301646,0.614051,0.432857,-9.700198,0.637712,0.681759,0.140081,-0.037548,-0.005836,41.639454,16.476187,-2.955072,4.63583E+18,-0.489811,-0.463803,-0.457023,0.579743,0
-9.399428,-0.97741,1.929042,0.311351,-0.061004,-0.096915,43.627354,11.072115,8.555482,4.63583E+18,0.74492,0.036631,0.636839,-0.195416,-9.515442,1.667457,-1.33694,0.165563,0.082247,0.189183,36.816152,-23.105491,14.708087,4.63582E+18,0.586502,-0.301021,0.614689,0.433082,-9.719923,0.715548,0.673266,0.118387,-0.037633,-0.011424,41.48908,16.488485,-2.910051,4.63583E+18,-0.48987,-0.463848,-0.456708,0.579905,0
-9.389932,-1.012673,1.940706,0.286692,-0.066249,-0.084218,43.545434,11.074012,8.471667,4.63583E+18,0.745007,0.037255,0.636377,-0.19647,-9.533522,1.629918,-1.336481,0.165049,0.080192,0.183802,36.971624,-23.099521,14.805741,4.63583E+18,0.586007,-0.300402,0.615315,0.433291,-9.676674,0.660092,0.681754,0.104346,-0.034506,-0.015859,41.395306,16.516617,-2.905362,4.63583E+18,-0.489939,-0.463865,-0.456442,0.580043,0
-9.498708,-0.990148,1.92877,0.257784,-0.06734,-0.076789,43.618937,11.157567,8.461887,4.63583E+18,0.745107,0.037809,0.635932,-0.197424,-9.540317,1.605966,-1.342814,0.165523,0.074891,0.180557,37.098297,-23.222969,14.903394,4.63583E+18,0.585584,-0.299708,0.61596,0.433428,-9.681434,0.547406,0.733408,0.100159,-0.031387,-0.017748,41.54565,16.471514,-2.973017,4.63583E+18,-0.490004,-0.463877,-0.456196,0.580172,0
-9.558667,-1.052546,1.929041,0.225831,-0.069287,-0.071542,43.7044,11.161361,8.559286,4.63583E+18,0.745219,0.038276,0.635507,-0.198278,-9.528109,1.592835,-1.372179,0.165603,0.067455,0.174824,36.980838,-23.2262,14.907085,4.63583E+18,0.585189,-0.299016,0.616579,0.433559,-9.704885,0.50802,0.771892,0.09013,-0.029661,-0.018816,41.73717,16.443373,-3.015229,4.63583E+18,-0.490081,-0.463873,-0.45598,0.58028,0
-9.570874,-1.17245,1.940708,0.198345,-0.063233,-0.070309,43.786069,11.331974,8.640685,4.63583E+18,0.745321,0.038666,0.635122,-0.199053,-9.527647,1.646148,-1.444957,0.165009,0.059424,0.166753,36.77781,-23.181858,14.897516,4.63582E+18,0.584828,-0.298332,0.617165,0.433683,-9.727435,0.512711,0.766241,0.077149,-0.027525,-0.019884,41.700433,16.541088,-2.955095,4.63583E+18,-0.490177,-0.463845,-0.455802,0.58036,0
-9.582003,-1.19363,1.930387,0.183273,-0.072658,-0.061528,43.702503,11.48528,8.540869,4.63583E+18,0.745456,0.039025,0.634719,-0.199762,-9.498757,1.737925,-1.501045,0.170186,0.049893,0.159317,36.73655,-23.222954,14.988828,4.63582E+18,0.584511,-0.297638,0.617727,0.433787,-9.756539,0.392459,0.726796,0.075265,-0.026704,-0.019637,41.541748,16.602068,-2.917569,4.63583E+18,-0.490275,-0.463817,-0.455631,0.580435,0
-9.545381,-1.073982,2.002284,0.162861,-0.073631,-0.042749,43.70412,11.399828,8.347977,4.63583E+18,0.745612,0.03937,0.634326,-0.200359,-9.454867,1.799893,-1.455011,0.17569,0.040712,0.148717,36.81613,-23.226215,15.039521,4.63582E+18,0.584243,-0.296941,0.618263,0.433862,-9.765923,0.392544,0.677969,0.078879,-0.025389,-0.020542,41.525847,16.549462,-2.917569,4.63583E+18,-0.49036,-0.463799,-0.455455,0.580516,0
-9.510371,-1.063921,2.015026,0.137111,-0.070568,-0.0437,43.774141,11.31814,8.266288,4.63583E+18,0.745763,0.039634,0.633964,-0.200889,-9.495491,1.818903,-1.356423,0.175731,0.037385,0.138468,36.777838,-23.181858,15.086482,4.63582E+18,0.584002,-0.296265,0.618778,0.433915,-9.750892,0.522133,0.644169,0.076823,-0.024567,-0.024651,41.606608,16.471526,-2.977691,4.63583E+18,-0.490436,-0.463771,-0.455294,0.5806,0
-9.546989,-1.149629,2.052177,0.106325,-0.073469,-0.039475,43.697171,11.401714,8.350131,4.63583E+18,0.74593,0.039812,0.633618,-0.201326,-9.604882,1.795426,-1.341877,0.1685,0.035331,0.12791,36.578068,-23.264028,15.13718,4.63582E+18,0.583775,-0.295631,0.619262,0.433963,-9.718965,0.581262,0.679871,0.070168,-0.024567,-0.029991,41.586853,16.488458,-3.067828,4.63583E+18,-0.490511,-0.463722,-0.455157,0.580683,0
-9.583077,-1.247011,2.112411,0.084036,-0.062858,-0.037316,43.459946,11.40357,8.359685,4.63583E+18,0.746074,0.039936,0.633323,-0.201695,-9.680004,1.775944,-1.408319,0.14845,0.030544,0.110942,36.533487,-23.393853,15.09022,4.63582E+18,0.583566,-0.295082,0.619676,0.434027,-9.689858,0.585955,0.738084,0.064664,-0.022595,-0.035332,41.554001,16.569212,-3.16079,4.63583E+18,-0.490578,-0.463658,-0.455048,0.580763,0
-9.594224,-1.331933,2.137356,0.06799,-0.055428,-0.034042,43.536904,11.488757,8.250084,4.63583E+18,0.746203,0.040024,0.633064,-0.202011,-9.651593,1.817497,-1.528982,0.130992,0.025718,0.092189,36.698512,-23.438215,15.086476,4.63582E+18,0.58338,-0.294616,0.620023,0.434096,-9.718039,0.555901,0.741832,0.061048,-0.018076,-0.040015,41.501404,16.64715,-3.258449,4.63583E+18,-0.49063,-0.463591,-0.454964,0.580838,0
-9.55654,-1.390318,2.185655,0.051085,-0.0496,-0.027679,43.773893,11.562267,8.152425,4.63583E+18,0.746322,0.040083,0.63284,-0.20226,-9.577883,1.843788,-1.634852,0.112732,0.020418,0.067911,36.698745,-23.438215,15.278026,4.63582E+18,0.58323,-0.294248,0.620295,0.434159,-9.771559,0.537126,0.687367,0.060474,-0.019309,-0.045602,41.461035,16.727902,-3.295999,4.63583E+18,-0.490671,-0.46351,-0.45489,0.580926,0
-9.472945,-1.328221,2.208745,0.042355,-0.022014,-0.023383,43.68685,11.644007,8.059006,4.63583E+18,0.746371,0.04015,0.632713,-0.202469,-9.499241,1.889796,-1.624995,0.086418,0.021198,0.03792,36.498499,-23.397135,15.336261,4.63582E+18,0.5831,-0.294023,0.620485,0.434217,-9.790338,0.55215,0.651688,0.054969,-0.02202,-0.048724,41.456341,16.903498,-3.295999,4.63583E+18,-0.49072,-0.463406,-0.45483,0.581015,0
-9.471896,-1.223363,2.172656,0.025383,-0.003181,-0.018113,43.53501,11.56041,8.152448,4.63583E+18,0.746377,0.040194,0.632657,-0.202613,-9.472002,2.023599,-1.534152,0.063475,0.024609,0.015284,36.378063,-23.393838,15.187897,4.63582E+18,0.582909,-0.294011,0.620569,0.43436,-9.767801,0.49393,0.654505,0.053243,-0.022431,-0.053079,41.456341,17.090365,-3.303511,4.63583E+18,-0.490761,-0.46329,-0.454781,0.58111,0
-9.422804,-1.344388,2.160186,0.013863,-0.002136,-0.015953,43.692132,11.56041,8.054788,4.63583E+18,0.746383,0.04021,0.632614,-0.202719,-9.526695,1.952996,-1.436026,0.043571,0.021959,0.000248,36.454335,-23.438215,15.231054,4.63582E+18,0.582724,-0.294086,0.620591,0.434526,-9.72367,0.399095,0.6592,0.060391,-0.021774,-0.054229,41.456341,17.001174,-3.300695,4.63583E+18,-0.490784,-0.463189,-0.454719,0.581221,0
-9.362023,-1.413686,2.134977,0.012841,-0.002413,-0.012725,43.775749,11.556983,7.9616,4.63583E+18,0.746394,0.04023,0.63257,-0.202813,-9.564264,1.765153,-1.391644,0.039356,0.019781,-0.009489,36.57196,-23.438215,15.379435,4.63582E+18,0.582624,-0.294098,0.620633,0.434591,-9.712398,0.343687,0.621641,0.078549,-0.02202,-0.054065,41.411272,16.764531,-3.295999,4.63583E+18,-0.490772,-0.463126,-0.454612,0.581366,0
-9.314249,-1.30357,2.074734,0.013725,-0.015642,-0.008545,43.779158,11.398043,8.071192,4.63583E+18,0.746442,0.040253,0.632484,-0.202899,-9.541272,1.715852,-1.379911,0.047901,0.017687,-0.016411,36.574803,-23.39715,15.336295,4.63582E+18,0.582552,-0.294104,0.620677,0.434621,-9.724605,0.359645,0.665765,0.098104,-0.02506,-0.053161,41.435676,16.630244,-3.235908,4.63583E+18,-0.490729,-0.463097,-0.45445,0.581551,0
-9.314249,-1.183332,2.053203,0.005973,-0.046861,-0.008545,43.932871,11.234482,8.166753,4.63583E+18,0.746574,0.040226,0.632308,-0.202969,-9.53303,1.702695,-1.361364,0.053366,0.012943,-0.023374,36.571951,-23.311703,15.275899,4.63582E+18,0.582511,-0.294107,0.620711,0.434626,-9.76685,0.468548,0.850717,0.10205,-0.037875,-0.052339,41.468548,16.699697,-3.145771,4.63583E+18,-0.490705,-0.463046,-0.454251,0.581766,0
-9.316335,-1.148017,2.161493,-0.014274,-0.040111,-0.008431,43.857548,11.406668,8.160235,4.63583E+18,0.746691,0.040141,0.63217,-0.202984,-9.599451,1.691442,-1.396076,0.054989,0.006021,-0.027217,36.610001,-23.232122,15.367211,4.63582E+18,0.582498,-0.294103,0.620726,0.434625,-9.827884,0.697633,1.007554,0.081351,-0.060632,-0.052339,41.461039,16.805821,-3.225528,4.63583E+18,-0.490763,-0.462899,-0.454056,0.581987,0
-9.414761,-1.172948,2.195777,-0.032317,-0.018136,-0.002864,43.693667,11.635471,7.859493,4.63583E+18,0.746759,0.040034,0.632114,-0.20293,-9.602804,1.672414,-1.475654,0.057596,0.00111,-0.029311,36.527913,-23.111978,15.371043,4.63582E+18,0.582504,-0.29409,0.620732,0.434618,-9.753754,0.805689,0.922178,0.049061,-0.072469,-0.056282,41.501398,16.834009,-3.416148,4.63583E+18,-0.490894,-0.462652,-0.453921,0.582179,0
-9.546971,-1.221001,2.124088,-0.044999,-0.017136,0.013137,43.848991,11.715718,7.76808,4.63583E+18,0.746839,0.039931,0.63207,-0.202793,-9.529083,1.660689,-1.466816,0.061355,-0.003078,-0.032515,36.515313,-23.023163,15.414095,4.63582E+18,0.58253,-0.29407,0.62073,0.434599,-9.670153,0.542894,0.714668,0.03566,-0.067132,-0.06269,41.529587,16.886568,-3.551385,4.63583E+18,-0.491022,-0.462381,-0.45384,0.582349,0
-9.582034,-1.231911,2.123829,-0.051702,-0.019181,0.027999,43.847436,11.56041,7.963375,4.63583E+18,0.746938,0.039844,0.632023,-0.202593,-9.520811,1.636274,-1.351569,0.058404,-0.009487,-0.036746,36.603656,-23.140417,15.562511,4.63582E+18,0.582576,-0.294057,0.620702,0.434585,-9.648548,0.333382,0.649801,0.03722,-0.058422,-0.063186,41.529587,16.91946,-3.528914,4.63583E+18,-0.49113,-0.462133,-0.453773,0.582506,0
-9.5449,-1.182829,2.110334,-0.072265,-0.017339,0.038656,43.777554,11.558605,8.156609,4.63583E+18,0.747044,0.039723,0.631997,-0.202304,-9.522742,1.670481,-1.240743,0.055972,-0.015382,-0.039521,36.369658,-23.073864,15.513614,4.63582E+18,0.58264,-0.294047,0.620651,0.434579,-9.591293,0.342724,0.681723,0.041081,-0.052259,-0.060639,41.484539,16.821859,-3.431255,4.63583E+18,-0.491227,-0.461914,-0.453705,0.582652,0
-9.484634,-1.121266,2.039933,-0.105813,-0.029521,0.048362,43.864569,11.471589,8.25039,4.63583E+18,0.747196,0.039512,0.63196,-0.2019,-9.49736,1.697799,-1.219771,0.062338,-0.022774,-0.040034,35.746099,-22.278341,15.341269,4.63582E+18,0.582731,-0.29401,0.620594,0.434564,-9.588424,0.358715,0.710836,0.050608,-0.044948,-0.060473,41.463848,16.708216,-3.333602,4.63583E+18,-0.491292,-0.461732,-0.453629,0.582801,0
-9.459448,-1.038403,2.103025,-0.158966,-0.061223,0.062314,44.016546,11.316263,8.168815,4.63583E+18,0.747451,0.039147,0.631867,-0.201316,-9.520805,1.643108,-1.239294,0.081611,-0.031362,-0.038538,34.98338,-21.174826,15.259739,4.63582E+18,0.582866,-0.293907,0.620553,0.434512,-9.644758,0.399053,0.720237,0.060141,-0.041658,-0.060884,41.461042,16.727858,-3.35605,4.63583E+18,-0.491332,-0.461579,-0.453536,0.582961,0
-9.398411,-1.071931,2.260174,-0.200623,-0.076907,0.079314,43.859394,11.314458,8.262349,4.63583E+18,0.747769,0.038683,0.631756,-0.200573,-9.581352,1.593796,-1.232948,0.112115,-0.0373,-0.035804,34.513246,-20.942579,15.293931,4.63582E+18,0.583048,-0.293712,0.620555,0.434396,-9.67577,0.479804,0.757769,0.060393,-0.038374,-0.060228,41.411304,16.805803,-3.453709,4.63583E+18,-0.491366,-0.461437,-0.453446,0.583115,0
-9.338405,-0.963611,2.343822,-0.242033,-0.076726,0.092154,43.777554,11.229006,8.162885,4.63583E+18,0.748102,0.038124,0.631679,-0.19968,-9.595995,1.574755,-1.256387,0.142492,-0.045162,-0.033711,34.683195,-21.55145,15.403304,4.63582E+18,0.583283,-0.293425,0.620596,0.434216,-9.657954,0.475183,0.758757,0.054808,-0.03763,-0.059816,41.375593,17.029152,-3.551361,4.63583E+18,-0.491409,-0.461288,-0.453369,0.583256,0
-9.326456,-0.926216,2.339182,-0.271716,-0.068474,0.106333,43.861198,11.143812,7.981579,4.63583E+18,0.748429,0.037516,0.631648,-0.198664,-9.529586,1.633353,-1.229039,0.170434,-0.057937,-0.034095,35.184186,-21.928893,15.46678,4.63582E+18,0.583585,-0.293049,0.620655,0.433979,-9.621336,0.376634,0.677115,0.056279,-0.038453,-0.061129,41.513466,17.248954,-3.476416,4.63583E+18,-0.491449,-0.461138,-0.45329,0.583403,0
-9.32875,-0.851205,2.122559,-0.291272,-0.074014,0.134098,43.8561,11.075429,7.890061,4.63583E+18,0.748795,0.036916,0.631612,-0.19751,-9.479293,1.720265,-1.148474,0.190856,-0.069771,-0.04452,35.397077,-22.00848,15.425766,4.63582E+18,0.583962,-0.292629,0.62071,0.433678,-9.629737,0.35211,0.574757,0.056778,-0.038453,-0.061953,41.55781,17.160029,-3.345838,4.63583E+18,-0.491487,-0.460987,-0.453211,0.58355,0
-9.437598,-0.693018,2.050334,-0.326677,-0.088589,0.161603,43.61705,11.230811,8.083085,4.63583E+18,0.749226,0.036265,0.631553,-0.196178,-9.508095,1.769092,-1.134798,0.202819,-0.082972,-0.063147,35.364356,-22.286761,15.387187,4.63582E+18,0.584419,-0.292206,0.62073,0.433318,-9.666356,0.456253,0.514618,0.04504,-0.041079,-0.063266,41.48457,16.975919,-3.420745,4.63583E+18,-0.491549,-0.460806,-0.453157,0.583684,0
-9.49838,-0.561541,2.026174,-0.369648,-0.085586,0.176423,43.622148,11.225714,8.167008,4.63583E+18,0.749666,0.035522,0.631535,-0.194687,-9.540331,1.841355,-1.165071,0.202052,-0.091861,-0.084979,35.84572,-22.69939,15.44626,4.63582E+18,0.584937,-0.291826,0.6207,0.432919,-9.71798,0.557723,0.530512,0.024012,-0.044039,-0.068684,41.448839,17.061999,-3.611349,4.63583E+18,-0.491641,-0.460567,-0.453155,0.583796,0
-9.546189,-0.562554,2.015489,-0.424184,-0.091927,0.184856,43.864493,10.981594,8.177186,4.63583E+18,0.750134,0.034625,0.631539,-0.193026,-9.516409,1.915578,-1.219264,0.182744,-0.085198,-0.110015,36.664101,-22.899612,15.50926,4.63582E+18,0.585459,-0.291569,0.62062,0.4325,-9.756512,0.593457,0.594345,0.001826,-0.046175,-0.074848,41.391619,17.241425,-3.686636,4.63583E+18,-0.491764,-0.460267,-0.453214,0.583883,0
-9.545429,-0.60961,2.076019,-0.48162,-0.094777,0.187994,44.019897,10.74581,8.089453,4.63583E+18,0.750618,0.033554,0.631576,-0.191203,-9.468079,1.946833,-1.327636,0.151259,-0.072851,-0.135691,36.965503,-22.937712,15.468761,4.63582E+18,0.585956,-0.291479,0.620482,0.432084,-9.825931,0.583161,0.660083,-0.018879,-0.052249,-0.078876,41.268668,17.200376,-3.566618,4.63583E+18,-0.49193,-0.459903,-0.453318,0.58395,0
-9.509058,-0.572983,2.110861,-0.527757,-0.081045,0.188039,44.016584,10.901211,7.89819,4.63583E+18,0.751067,0.032349,0.631691,-0.189257,-9.436323,1.941472,-1.444844,0.113065,-0.060632,-0.161795,36.84541,-22.779596,15.412094,4.63582E+18,0.586422,-0.291573,0.620273,0.43169,-9.863582,0.558747,0.668614,-0.04508,-0.059481,-0.080767,41.212193,17.094192,-3.491317,4.63583E+18,-0.492155,-0.459465,-0.453474,0.583984,0
-9.484899,-0.537126,2.063812,-0.583161,-0.074549,0.190308,43.862973,10.892847,7.906553,4.63583E+18,0.751505,0.030982,0.631865,-0.187155,-9.442178,1.911203,-1.553713,0.06923,-0.046234,-0.189566,36.750637,-22.567123,15.452586,4.63582E+18,0.586847,-0.291871,0.619986,0.431323,-9.856081,0.429325,0.674201,-0.065144,-0.063921,-0.080523,41.15969,17.163457,-3.543821,4.63583E+18,-0.492427,-0.458977,-0.453668,0.583987,0
-9.473199,-0.539406,2.099927,-0.632295,-0.064244,0.198942,43.95172,10.495072,8.305088,4.63583E+18,0.751923,0.029491,0.632104,-0.184895,-9.454385,1.892148,-1.647003,0.027532,-0.036916,-0.216823,36.791121,-22.645606,15.503402,4.63582E+18,0.587245,-0.292359,0.619612,0.430987,-9.836375,0.219021,0.691114,-0.067873,-0.063845,-0.074861,41.074245,17.314642,-3.636766,4.63583E+18,-0.492716,-0.458496,-0.453857,0.583975,0
-9.483136,-0.648252,2.111377,-0.681314,-0.071588,0.211736,44.1908,10.341182,8.494337,4.63583E+18,0.75237,0.027875,0.632352,-0.182465,-9.484159,1.874581,-1.660703,-0.009474,-0.036274,-0.240967,36.918063,-22.773159,15.462414,4.63582E+18,0.587639,-0.293003,0.619143,0.430687,-9.849457,0.089287,0.748315,-0.064913,-0.063021,-0.067629,41.04129,17.273647,-3.674428,4.63583E+18,-0.493015,-0.458039,-0.454025,0.583951,0
-9.387493,-0.710045,2.086962,-0.72524,-0.072788,0.223596,44.187524,10.40964,8.398945,4.63583E+18,0.752827,0.02615,0.632622,-0.17988,-9.503713,1.767705,-1.554324,-0.032851,-0.047119,-0.257206,37.000641,-22.690696,15.324275,4.63582E+18,0.588061,-0.293726,0.618585,0.430422,-9.848583,0.128529,0.758777,-0.060152,-0.062365,-0.062532,41.093784,17.167444,-3.674428,4.63583E+18,-0.493315,-0.457603,-0.454172,0.583924,0
-9.386989,-0.8072,2.062043,-0.775399,-0.080199,0.24051,44.032104,10.24918,8.409137,4.63583E+18,0.75331,0.024307,0.632902,-0.177109,-9.503214,1.514358,-1.34731,-0.043107,-0.070485,-0.267887,36.959663,-22.60811,15.1758,4.63582E+18,0.588548,-0.29446,0.617936,0.430185,-9.809174,0.215893,0.737153,-0.052431,-0.058672,-0.058916,41.224219,17.23667,-3.621941,4.63583E+18,-0.493604,-0.4572,-0.4543,0.583896,0
-9.363078,-0.879684,2.01347,-0.82335,-0.084121,0.249032,44.033858,10.005061,8.323696,4.63583E+18,0.753802,0.022334,0.633201,-0.174184,-9.527129,1.348668,-1.238802,-0.049047,-0.086945,-0.278056,36.991288,-22.60811,15.171804,4.63582E+18,0.589088,-0.295206,0.617222,0.42996,-9.81283,0.251646,0.709951,-0.040606,-0.056612,-0.058992,41.375409,17.447842,-3.596474,4.63583E+18,-0.493866,-0.456827,-0.454404,0.583885,0
-9.364323,-0.9168,1.977848,-0.866158,-0.071479,0.256443,44.119297,9.762685,8.247965,4.63583E+18,0.754257,0.020255,0.633565,-0.171119,-9.516923,1.46038,-1.338807,-0.058441,-0.084091,-0.28562,37.190948,-22.485193,15.269458,4.63582E+18,0.589622,-0.295999,0.616488,0.429736,-9.804467,0.301341,0.695822,-0.037217,-0.0553,-0.060472,41.38694,17.489555,-3.653667,4.63583E+18,-0.494115,-0.456462,-0.454504,0.583882,0
-9.423372,-0.978573,1.99055,-0.912848,-0.067098,0.260715,44.203007,9.605493,8.636329,4.63583E+18,0.754693,0.018044,0.63397,-0.167914,-9.4793,1.592312,-1.528261,-0.075955,-0.076951,-0.298642,37.388261,-22.275674,15.320292,4.63582E+18,0.590138,-0.29688,0.615723,0.429516,-9.775344,0.404567,0.740802,-0.048949,-0.05054,-0.062196,41.358681,17.314149,-3.686636,4.63583E+18,-0.494373,-0.456084,-0.454644,0.583851,0
-9.386497,-1.075496,2.027923,-0.944896,-0.057375,0.264922,44.203256,9.520031,8.911654,4.63583E+18,0.755093,0.01575,0.634421,-0.164608,-9.496355,1.658197,-1.652847,-0.094201,-0.076863,-0.318468,37.429406,-22.152092,15.226652,4.63582E+18,0.590666,-0.297857,0.6149,0.429294,-9.773418,0.45917,0.851524,-0.06735,-0.044131,-0.063021,41.358681,17.367073,-3.746605,4.63583E+18,-0.49465,-0.455683,-0.454843,0.583775,0
-9.33694,-1.13455,2.099919,-0.976976,-0.04208,0.265969,44.214968,9.434846,8.921643,4.63583E+18,0.755443,0.013367,0.634932,-0.16121,-9.539329,1.738295,-1.667066,-0.112783,-0.078999,-0.337138,37.350314,-22.066645,15.124972,4.63582E+18,0.591208,-0.298923,0.614012,0.429077,-9.800618,0.433897,0.963317,-0.090512,-0.035755,-0.063021,41.253736,17.651486,-3.724326,4.63583E+18,-0.494954,-0.455256,-0.455115,0.583638,0
-9.253212,-1.098914,2.109157,-1.011204,-0.010465,0.266099,44.20474,9.359612,8.8262,4.63583E+18,0.755698,0.010898,0.635553,-0.157717,-9.546695,1.734968,-1.59534,-0.136704,-0.083695,-0.353804,37.340931,-21.946092,15.078164,4.63582E+18,0.59176,-0.300083,0.613048,0.428886,-9.777276,0.347595,0.971026,-0.114834,-0.033356,-0.059086,41.045369,17.669046,-3.626674,4.63583E+18,-0.495311,-0.454793,-0.455442,0.583441,0
-9.253212,-1.111616,1.977104,-1.047565,0.000412,0.272399,44.290193,9.187224,8.838407,4.63583E+18,0.755914,0.008338,0.63622,-0.154105,-9.493025,1.632468,-1.397709,-0.163408,-0.089124,-0.36513,37.455133,-21.822502,15.027313,4.63582E+18,0.592311,-0.301327,0.612005,0.428741,-9.693758,0.155292,0.907209,-0.120626,-0.028934,-0.048742,41.053267,17.558107,-3.701397,4.63583E+18,-0.495693,-0.45435,-0.455772,0.583204,0
-9.254196,-1.146758,1.951216,-1.086186,0.020273,0.273446,44.375635,8.943105,8.848645,4.63583E+18,0.756064,0.00567,0.636961,-0.150383,-9.466081,1.41629,-1.15155,-0.192158,-0.096423,-0.370603,37.537766,-21.813109,15.074116,4.63582E+18,0.592853,-0.302641,0.610885,0.428665,-9.67854,-0.01391,0.751524,-0.080529,-0.014487,-0.045761,41.309395,17.537325,-3.779582,4.63583E+18,-0.495978,-0.454032,-0.456027,0.58301,0
-9.30253,-1.112831,1.854791,-1.133286,0.018841,0.27336,44.461075,8.698985,8.76883,4.63583E+18,0.756202,0.002853,0.637713,-0.146534,-9.467606,1.128688,-1.026441,-0.214942,-0.103566,-0.369668,37.496823,-21.816159,15.119124,4.63582E+18,0.593381,-0.303996,0.609704,0.428657,-9.767616,0.006407,0.65642,-0.015958,0.01285,-0.049621,41.431927,17.587,-3.611938,4.63583E+18,-0.496081,-0.453906,-0.45619,0.582893,0
-9.325226,-1.210748,1.821118,-1.185416,0.000086,0.269152,44.543339,8.456531,8.968108,4.63583E+18,0.756369,-0.000152,0.638423,-0.142556,-9.430986,1.041432,-1.036096,-0.231385,-0.100585,-0.364884,37.49325,-21.62011,14.972412,4.63582E+18,0.593834,-0.305433,0.60848,0.428748,-9.897178,0.1912,0.714431,0.004368,0.03547,-0.046682,41.386967,17.570323,-3.443579,4.63583E+18,-0.496112,-0.453882,-0.456345,0.582764,0
-9.264685,-1.3184,1.929014,-1.227026,0.004551,0.268255,44.468389,8.299322,9.351116,4.63583E+18,0.756503,-0.003288,0.639154,-0.138467,-9.446992,1.151293,-1.167809,-0.255216,-0.094598,-0.36159,37.689796,-21.442561,14.778856,4.63582E+18,0.594235,-0.306928,0.60723,0.428897,-9.904075,0.408155,0.794325,-0.027125,0.046903,-0.043794,41.403641,17.489586,-3.578209,4.63583E+18,-0.496185,-0.453828,-0.456593,0.582549,0
-9.229283,-1.318886,1.940247,-1.266841,0.018563,0.275689,44.312874,8.210719,9.361376,4.63583E+18,0.756583,-0.006522,0.639935,-0.134246,-9.508539,1.261152,-1.322189,-0.281496,-0.094975,-0.360011,38.013015,-21.512206,14.69341,4.63582E+18,0.594597,-0.308483,0.60593,0.429117,-9.838328,0.570711,0.945265,-0.093375,0.050203,-0.042483,41.289573,17.359186,-3.739082,4.63583E+18,-0.496377,-0.453652,-0.457003,0.582202,0
-9.25468,-1.344527,1.902887,-1.32113,0.038239,0.280987,44.312874,7.966542,9.285454,4.63583E+18,0.756589,-0.009903,0.64079,-0.129859,-9.539829,1.295013,-1.414516,-0.303972,-0.098736,-0.357363,38.184757,-21.559817,14.555338,4.63582E+18,0.594967,-0.31003,0.604606,0.429357,-9.822244,0.697495,1.122814,-0.175692,0.045614,-0.03838,41.102594,17.342841,-3.65222,4.63583E+18,-0.496742,-0.453302,-0.457595,0.581697,0
-9.326699,-1.430698,1.829652,-1.366114,0.027368,0.284234,44.311658,7.722666,9.679935,4.63583E+18,0.756599,-0.013422,0.641614,-0.125338,-9.55788,1.187737,-1.4293,-0.321241,-0.103475,-0.355693,38.178912,-21.363832,14.406804,4.63582E+18,0.595317,-0.311609,0.603241,0.429649,-9.804484,0.632276,1.229069,-0.244998,0.041415,-0.031728,41.086239,17.520969,-3.584261,4.63583E+18,-0.497262,-0.452811,-0.458333,0.581054,0
-9.338905,-1.554692,1.755932,-1.417041,0.007096,0.289595,44.251839,7.488818,10.250835,4.63583E+18,0.756637,-0.017099,0.642378,-0.120659,-9.599826,1.051911,-1.339563,-0.329967,-0.109372,-0.350579,38.248527,-21.110231,14.443572,4.63582E+18,0.595656,-0.313186,0.601851,0.429982,-9.775356,0.351797,1.212417,-0.285802,0.044522,-0.018353,41.122025,17.660228,-3.476614,4.63583E+18,-0.497885,-0.452267,-0.45915,0.580298,0
-9.352816,-1.772262,1.66045,-1.451396,-0.012239,0.296196,44.253298,7.16064,10.075777,4.63583E+18,0.756699,-0.020876,0.643076,-0.115862,-9.643332,0.907485,-1.234499,-0.333217,-0.114201,-0.339897,38.331245,-20.980233,14.492257,4.63582E+18,0.595981,-0.314734,0.600455,0.430353,-9.765923,0.062438,1.146667,-0.298911,0.058796,0.002669,41.081801,17.688528,-3.345943,4.63583E+18,-0.498554,-0.45177,-0.459988,0.579446,0
-9.449014,-1.880182,1.675556,-1.494222,-0.036782,0.312068,44.328223,6.90794,9.706819,4.63583E+18,0.756801,-0.024757,0.643694,-0.110894,-9.667745,0.723867,-1.219703,-0.336376,-0.119496,-0.330239,38.33709,-21.052585,14.353692,4.63582E+18,0.596295,-0.316254,0.599049,0.430763,-9.893257,-0.051603,1.055669,-0.327676,0.066225,0.030101,41.09844,17.643585,-3.308206,4.63583E+18,-0.499328,-0.451283,-0.460858,0.578468,0
-9.472465,-1.892868,1.833513,-1.542031,-0.059648,0.320528,44.48714,6.831341,9.808551,4.63583E+18,0.756932,-0.028777,0.644236,-0.105764,-9.68047,0.664003,-1.315279,-0.334001,-0.126416,-0.320672,38.384359,-21.261656,14.217342,4.63582E+18,0.596609,-0.317731,0.597639,0.431199,-10.145704,0.043814,1.088108,-0.402025,0.057706,0.060662,41.179167,17.615282,-3.308206,4.63583E+18,-0.500328,-0.450679,-0.46183,0.577298,0
-9.44805,-1.92925,1.951983,-1.577385,-0.051586,0.325095,44.653241,6.585511,10.10797,4.63583E+18,0.757006,-0.032891,0.644791,-0.100522,-9.668785,0.777624,-1.426702,-0.317231,-0.138494,-0.308457,38.382161,-21.152088,14.120208,4.63582E+18,0.59695,-0.319112,0.596243,0.431639,-10.321618,0.21471,1.382419,-0.499536,0.051029,0.092947,41.212193,17.615282,-3.248296,4.63583E+18,-0.501598,-0.449917,-0.462959,0.575885,0
-9.422674,-1.953665,1.892388,-1.617891,-0.067525,0.344112,44.576631,6.255911,10.116573,4.63583E+18,0.75709,-0.037088,0.645286,-0.095105,-9.702794,0.87841,-1.423993,-0.291131,-0.161718,-0.301729,38.407195,-20.777957,14.016191,4.63582E+18,0.597369,-0.320368,0.594842,0.432061,-10.394051,0.340702,1.702946,-0.592098,0.04627,0.133933,41.264634,17.660232,-3.038242,4.63583E+18,-0.503146,-0.449024,-0.464221,0.574212,0
-9.34991,-1.977599,1.904835,-1.65406,-0.078623,0.352489,44.337288,5.929675,9.952878,4.63583E+18,0.757165,-0.04138,0.645731,-0.089558,-9.788769,1.025511,-1.262592,-0.271538,-0.179357,-0.302797,38.682737,-20.682045,13.924374,4.63582E+18,0.59783,-0.321584,0.593408,0.432494,-10.405423,0.198614,1.75425,-0.652813,0.05625,0.181834,41.245199,17.688528,-2.989715,4.63583E+18,-0.504898,-0.448118,-0.465555,0.5723,0
-9.30108,-1.980962,1.925647,-1.682837,-0.058163,0.352489,44.342332,5.767857,10.15396,4.63583E+18,0.757141,-0.045754,0.646219,-0.083934,-9.815275,1.358861,-1.234606,-0.269547,-0.184141,-0.302843,38.857734,-20.764793,13.83308,4.63582E+18,0.598331,-0.322745,0.591984,0.432888,-10.295823,-0.371544,1.743719,-0.665796,0.081133,0.230311,41.219684,17.546185,-3.019944,4.63583E+18,-0.506734,-0.447336,-0.466875,0.570211,0
-9.252975,-2.150165,1.769361,-1.708384,-0.0826,0.352364,44.595305,5.450301,10.633123,4.63583E+18,0.75714,-0.050215,0.646605,-0.078232,-9.837594,1.317204,-1.284399,-0.289291,-0.19766,-0.301264,38.661822,-20.723902,13.735426,4.63582E+18,0.598833,-0.323925,0.590489,0.433352,-10.184854,-0.928902,1.682949,-0.642343,0.106282,0.275755,41.231891,17.359194,-2.782985,4.63583E+18,-0.50858,-0.446745,-0.468103,0.568018,0
-9.240049,-2.235865,1.729153,-1.729687,-0.100469,0.34608,44.677425,5.123767,10.655392,4.63583E+18,0.757139,-0.054765,0.646906,-0.072486,-9.829063,0.769481,-1.133129,-0.319335,-0.206802,-0.291972,38.606758,-20.67934,13.596888,4.63582E+18,0.599266,-0.325182,0.588904,0.433968,-10.24645,-0.769069,1.635792,-0.634383,0.109461,0.321512,41.296534,17.342836,-2.352147,4.63583E+18,-0.510511,-0.446261,-0.469232,0.565731,0
-9.194801,-2.334479,1.510615,-1.748096,-0.104237,0.345746,44.592211,4.953102,10.571611,4.63583E+18,0.757103,-0.059372,0.647166,-0.066686,-9.649633,0.317863,-1.008426,-0.315886,-0.20606,-0.268749,38.81586,-20.720226,13.407936,4.63582E+18,0.599688,-0.326332,0.587379,0.43459,-10.505286,-0.216988,1.733166,-0.661279,0.099193,0.364576,41.379209,17.378626,-2.22535,4.63583E+18,-0.512607,-0.445775,-0.470317,0.563312,0
-9.32905,-2.482348,1.356201,-1.778879,-0.136068,0.328969,44.522052,4.789726,10.57397,4.63583E+18,0.757098,-0.064128,0.647293,-0.060846,-9.497888,0.082785,-0.865645,-0.277018,-0.207267,-0.241399,38.864119,-20.723917,13.306069,4.63582E+18,0.600113,-0.327313,0.585955,0.435185,-10.894808,-0.00749,2.296337,-0.638124,0.123247,0.416963,41.557318,17.285969,-2.26586,4.63583E+18,-0.514727,-0.445494,-0.471295,0.560778,0
-9.461445,-2.697129,1.419125,-1.799994,-0.157575,0.327488,44.60585,4.384995,10.695808,4.63583E+18,0.757101,-0.068957,0.647321,-0.054945,-9.543537,0.087578,-0.79136,-0.226679,-0.204109,-0.221431,38.854574,-20.597602,13.259361,4.63582E+18,0.600562,-0.328124,0.584657,0.435703,-11.359482,-0.154506,2.844555,-0.581419,0.179004,0.447941,41.704085,17.082348,-2.210662,4.63583E+18,-0.516697,-0.445521,-0.472196,0.558181,2
-9.499011,-2.662157,1.576878,-1.808168,-0.186312,0.304768,44.606086,3.889445,10.805674,4.63583E+18,0.757129,-0.073876,0.647216,-0.049082,-9.776565,0.486754,-0.988293,-0.181165,-0.204435,-0.211075,38.968698,-20.391652,13.114982,4.63582E+18,0.601052,-0.328794,0.583452,0.436136,-11.757915,-0.581185,2.83353,-0.518835,0.223264,0.468623,41.692173,16.797973,-2.10551,4.63583E+18,-0.518504,-0.445823,-0.473003,0.555575,2
-9.585169,-2.711222,1.686036,-1.797321,-0.209605,0.2673,44.616407,3.651664,10.909646,4.63583E+18,0.757172,-0.078863,0.646986,-0.043357,-10.083851,1.144856,-1.287622,-0.189574,-0.203134,-0.2088,38.975582,-20.26429,12.966383,4.63582E+18,0.601522,-0.329482,0.582237,0.436594,-11.493074,-0.920801,3.004076,-0.359386,0.304214,0.50802,41.573996,16.577951,-2.003136,4.63583E+18,-0.51994,-0.44673,-0.473537,0.553043,2
-9.703721,-2.770848,1.755304,-1.778058,-0.222216,0.225795,44.534006,3.733835,10.714606,4.63583E+18,0.757205,-0.0839,0.646662,-0.037809,-10.194246,1.431457,-1.42296,-0.265825,-0.205827,-0.199652,38.933651,-20.305154,12.827866,4.63582E+18,0.601874,-0.330333,0.580886,0.437263,-11.265482,-0.933616,3.114022,-0.086887,0.404805,0.536425,41.62221,16.426762,-1.733267,4.63583E+18,-0.52073,-0.448511,-0.473606,0.550795,2
-9.645489,-2.766138,1.622413,-1.756755,-0.224557,0.191774,44.607491,3.640639,10.537333,4.63583E+18,0.757203,-0.088958,0.646281,-0.032424,-10.052011,0.683673,-1.275419,-0.336279,-0.224357,-0.175781,39.094994,-20.384768,12.691457,4.63582E+18,0.602093,-0.331314,0.579365,0.438236,-11.362001,-0.659033,3.113702,0.277723,0.5119,0.551791,41.897928,16.227869,-1.362342,4.63583E+18,-0.520659,-0.451353,-0.473041,0.549024,2
-9.730232,-3.142893,1.563479,-1.738476,-0.23721,0.166407,44.693167,3.153798,10.65916,4.63583E+18,0.757198,-0.094023,0.645812,-0.027162,-9.860411,-0.305663,-0.977686,-0.318315,-0.245765,-0.139328,39.257409,-20.306243,12.594336,4.63582E+18,0.602327,-0.33211,0.577877,0.439275,-11.518745,-0.497736,3.48172,0.657314,0.635777,0.5674,42.127425,15.995928,-1.22074,4.63583E+18,-0.519656,-0.455325,-0.47184,0.547725,2
-9.776732,-3.42865,1.609048,-1.713909,-0.241524,0.154657,44.790361,2.745268,10.765066,4.63583E+18,0.757172,-0.099039,0.645289,-0.022001,-9.848701,-0.305811,-0.729816,-0.252789,-0.25993,-0.090847,39.336486,-20.178837,12.496149,4.63582E+18,0.602599,-0.332592,0.576542,0.440291,-11.442583,-0.188838,4.02076,0.939158,0.727675,0.584076,42.143866,15.764004,-1.273145,4.63583E+18,-0.517959,-0.460142,-0.470153,0.546758,2
-9.705817,-3.349719,1.488605,-1.689423,-0.248972,0.143193,44.860575,2.673421,10.66764,4.63583E+18,0.757137,-0.104005,0.644702,-0.016937,-9.941593,0.0642,-0.792901,-0.196177,-0.275067,-0.049279,39.538665,-20.25471,12.410697,4.63582E+18,0.602931,-0.332772,0.575347,0.441263,-11.218139,0.85339,4.42588,1.015113,0.726602,0.637192,42.11554,15.674306,-1.306192,4.63583E+18,-0.516218,-0.465212,-0.468174,0.54581,2
-9.750955,-3.606934,1.454751,-1.668851,-0.30958,0.146558,44.776986,2.668591,10.584048,4.63583E+18,0.757234,-0.108896,0.643891,-0.011892,-10.060973,0.128446,-0.923003,-0.130381,-0.301117,-0.029539,39.669839,-20.29669,12.406944,4.63582E+18,0.603379,-0.332689,0.574234,0.442162,-10.99839,1.968126,4.71807,0.987611,0.6706,0.727448,42.175434,15.576978,-1.074102,4.63583E+18,-0.514827,-0.470256,-0.465951,0.544703,2
-9.601903,-3.912387,1.564631,-1.63297,-0.356301,0.158268,44.790352,2.411048,10.596258,4.63583E+18,0.757437,-0.113641,0.642906,-0.006886,-10.144892,0.425448,-0.914477,-0.065268,-0.337102,-0.013384,39.50855,-20.252083,12.451551,4.63582E+18,0.603972,-0.332336,0.573172,0.442994,-10.890962,2.571152,5.128832,1.006003,0.610205,0.816951,42.22817,15.17876,-0.800508,4.63583E+18,-0.513702,-0.47536,-0.463368,0.543537,2
-9.319744,-4.23001,1.676117,-1.564021,-0.388163,0.168307,44.865446,2.096433,10.604762,4.63583E+18,0.757722,-0.118136,0.641792,-0.002017,-10.067961,0.645996,-0.986649,-0.064444,-0.365071,-0.007148,39.427762,-20.409624,12.229826,4.63582E+18,0.60462,-0.331913,0.572049,0.44388,-10.562413,3.148914,5.532017,1.033936,0.578967,0.847868,42.245101,14.629437,-0.660354,4.63583E+18,-0.512632,-0.480496,-0.46058,0.5424,2
-8.964162,-4.560491,1.871643,-1.46385,-0.409927,0.200468,45.034492,1.92716,10.421442,4.63583E+18,0.758082,-0.122226,0.640597,0.002696,-10.079542,0.839964,-1.043463,-0.104717,-0.378815,-0.032311,39.56042,-20.616687,11.80681,4.63582E+18,0.605261,-0.33166,0.57076,0.444852,-10.221871,3.822262,5.694175,0.965955,0.562461,0.788752,42.399522,14.282214,-0.622578,4.63583E+18,-0.511575,-0.485322,-0.458015,0.541272,2
-8.526306,-4.93524,2.075488,-1.319308,-0.39717,0.238579,45.106354,1.837109,10.226584,4.63583E+18,0.758453,-0.125753,0.639441,0.007137,-10.197934,1.534123,-1.224839,-0.135314,-0.415811,-0.075771,39.643814,-20.462424,11.55674,4.63582E+18,0.606052,-0.331485,0.569279,0.445804,-9.787903,4.346679,5.114384,0.807048,0.547579,0.736915,42.59874,14.099925,-0.510325,4.63583E+18,-0.510734,-0.489663,-0.455871,0.539966,2
-8.172789,-5.119701,2.085409,-1.157129,-0.387758,0.258632,45.106354,1.507548,10.0573,4.63583E+18,0.75886,-0.128711,0.63831,0.011203,-10.20064,1.735748,-1.52688,-0.174323,-0.463838,-0.133674,39.59661,-20.170425,11.452712,4.63582E+18,0.607007,-0.331453,0.567522,0.446767,-8.799861,3.723547,4.040558,0.67768,0.55375,0.705147,42.619976,13.896338,-0.37212,4.63583E+18,-0.510059,-0.493672,-0.454086,0.538455,2
-7.842962,-5.376285,1.976914,-1.002856,-0.388786,0.265749,45.106354,1.181147,9.973677,4.63583E+18,0.759334,-0.13116,0.637171,0.014881,-10.267887,1.555624,-1.916205,-0.163282,-0.517495,-0.189126,39.627783,-20.156975,11.314256,4.63582E+18,0.608204,-0.331422,0.56557,0.447635,-8.088753,2.317318,3.099826,0.660531,0.603992,0.68127,42.64401,13.612016,-0.269736,4.63583E+18,-0.509258,-0.497702,-0.452487,0.536847,2
-7.503669,-5.640963,1.941434,-0.825095,-0.388198,0.253479,45.106354,1.023822,9.982228,4.63583E+18,0.75989,-0.133076,0.636028,0.018048,-10.492887,1.318247,-2.279497,-0.116493,-0.596245,-0.243167,39.792299,-20.239874,11.131158,4.63582E+18,0.609727,-0.331276,0.563413,0.448392,-7.834789,2.321777,2.050047,0.547889,0.650916,0.676379,42.826723,13.444288,-0.179566,4.63583E+18,-0.508576,-0.50158,-0.451242,0.534928,2
-7.296849,-5.703128,1.968116,-0.679984,-0.412722,0.214022,45.107716,0.936792,9.797323,4.63583E+18,0.760585,-0.134635,0.634788,0.020719,-10.760373,1.206713,-2.262741,-0.090808,-0.679151,-0.314403,39.91657,-20.158248,10.895561,4.63582E+18,0.611628,-0.331047,0.561005,0.44899,-8.018248,4.062057,1.923589,0.142296,0.601137,0.658224,43.078323,13.326169,-0.041761,4.63583E+18,-0.508784,-0.504445,-0.450826,0.532381,2
-7.123484,-5.819096,2.114814,-0.542367,-0.434894,0.177295,45.1796,0.765908,9.520195,4.63583E+18,0.76141,-0.135851,0.633462,0.022922,-10.965887,1.817219,-2.248157,-0.082056,-0.779662,-0.38732,39.995639,-19.952376,10.6026,4.63582E+18,0.613905,-0.330772,0.558251,0.449517,-8.680122,6.270714,3.400419,-0.461371,0.427018,0.576198,43.087826,13.074967,0.151575,4.63583E+18,-0.510397,-0.505484,-0.451547,0.529232,2
-6.817395,-5.606606,2.270351,-0.413437,-0.442847,0.118665,45.1796,0.598163,9.434518,4.63583E+18,0.762329,-0.136812,0.632085,0.024602,-10.889217,2.644184,-2.168951,-0.099271,-0.88566,-0.468842,40.156864,-19.824823,10.31547,4.63582E+18,0.616547,-0.330527,0.555073,0.450017,-8.637859,5.950173,5.037008,-0.988621,0.224011,0.473694,42.986222,12.854826,0.291774,4.63583E+18,-0.513265,-0.504752,-0.453205,0.525728,2
-6.464475,-5.125921,2.258143,-0.301983,-0.419325,0.066201,45.1796,0.601341,9.338436,4.63583E+18,0.76325,-0.137558,0.630762,0.025809,-10.620105,3.266975,-1.919309,-0.146376,-0.977328,-0.55181,40.401012,-19.818995,10.034699,4.63582E+18,0.619479,-0.330415,0.551445,0.450533,-8.171587,3.986078,6.239646,-1.350364,0.020629,0.40808,42.912981,12.793359,0.449257,4.63583E+18,-0.517119,-0.502662,-0.455344,0.522093,2
-6.173111,-4.408928,2.244583,-0.229099,-0.394247,0.007598,45.184112,0.765908,9.321267,4.63583E+18,0.764151,-0.138229,0.62949,0.026624,-10.247198,2.484119,-1.669019,-0.213762,-1.041328,-0.597633,40.563549,-19.73102,9.707319,4.63582E+18,0.622536,-0.330453,0.547448,0.451165,-7.8333,2.649655,7.405619,-1.59238,-0.198957,0.382021,42.936958,12.651266,0.577268,4.63583E+18,-0.521816,-0.499501,-0.45757,0.518494,2
-5.966262,-3.85779,2.15304,-0.198855,-0.341987,-0.043634,45.425102,0.598163,9.042076,4.63583E+18,0.764934,-0.138943,0.628357,0.027166,-9.886587,0.480888,-1.196821,-0.178972,-1.078324,-0.616031,40.718373,-19.484368,9.369706,4.63582E+18,0.625725,-0.330383,0.54337,0.451735,-7.64778,1.898676,8.501898,-1.735358,-0.420394,0.372476,43.119612,12.419342,0.61037,4.63583E+18,-0.527184,-0.495505,-0.459617,0.515077,2
-5.798742,-3.208094,1.745208,-0.151499,-0.295894,-0.092275,45.492479,0.602674,8.846759,4.63583E+18,0.765629,-0.139638,0.627346,0.027402,-9.894681,-0.446951,-0.524557,-0.015906,-1.129864,-0.592645,40.915901,-19.195562,9.035935,4.63582E+18,0.629199,-0.329721,0.539484,0.452051,-7.537918,1.573229,9.288006,-1.816893,-0.635429,0.353877,43.311411,12.232275,0.550553,4.63583E+18,-0.533058,-0.490801,-0.461372,0.511956,2
-5.812951,-2.421479,1.727925,-0.142512,-0.353401,-0.114233,45.251287,0.842311,8.651709,4.63583E+18,0.766479,-0.140355,0.626139,0.027579,-10.039758,-0.257726,-0.162308,0.137214,-1.176834,-0.553591,41.033247,-18.904812,8.558471,4.63582E+18,0.632898,-0.328468,0.535804,0.452176,-7.25605,1.481057,9.69102,-1.873963,-0.8395,0.312536,43.328037,12.081045,0.460365,4.63583E+18,-0.539313,-0.485421,-0.462844,0.509199,2
-5.932126,-1.999325,2.088138,-0.167376,-0.343364,-0.110636,45.170306,0.839173,8.471938,4.63583E+18,0.767286,-0.141143,0.624962,0.027825,-10.187074,0.409766,-0.312951,0.222684,-1.196787,-0.554029,41.15365,-18.685374,8.071596,4.63582E+18,0.636744,-0.326937,0.532218,0.452121,-7.000034,1.280716,9.880059,-1.904948,-1.023108,0.252111,43.247322,11.971955,0.374922,4.63583E+18,-0.545815,-0.479425,-0.464051,0.506848,2
-5.890573,-1.855525,2.111538,-0.207142,-0.253464,-0.085716,45.327657,0.674545,8.473507,4.63583E+18,0.76783,-0.142003,0.624081,0.028202,-10.327463,1.260923,-0.578163,0.259534,-1.222929,-0.580196,41.353115,-18.640705,7.786394,4.63582E+18,0.640722,-0.325311,0.528577,0.451945,-7.001086,1.029874,9.891973,-1.896286,-1.191313,0.183276,43.311392,11.938841,0.334332,4.63583E+18,-0.552433,-0.472917,-0.464953,0.504961,2
-5.588764,-1.855748,1.435129,-0.203045,-0.157197,-0.041382,45.414436,0.842088,8.553827,4.63583E+18,0.76812,-0.142746,0.623534,0.028654,-10.304164,1.721487,-0.675314,0.287158,-1.282861,-0.616608,41.556476,-18.55916,7.416907,4.63582E+18,0.644928,-0.323552,0.52477,0.451662,-7.230562,1.05958,9.766399,-1.871304,-1.357116,0.12259,43.470088,11.849133,0.105331,4.63583E+18,-0.559145,-0.465958,-0.465494,0.503543,2
-5.470698,-1.86751,1.153731,-0.210023,-0.226045,0.031541,45.573131,0.828545,8.358731,4.63583E+18,0.768575,-0.143313,0.622808,0.029398,-10.243685,1.418678,-0.585955,0.307941,-1.336491,-0.646202,41.715174,-18.312536,6.936353,4.63582E+18,0.649311,-0.321686,0.520798,0.451312,-7.438554,1.284783,9.734785,-1.811421,-1.504114,0.080545,43.471803,11.792352,-0.328137,4.63583E+18,-0.565883,-0.458704,-0.4656,0.502577,2
-5.566353,-1.855525,1.490862,-0.303861,-0.318538,0.062342,45.726037,0.743316,8.17896,4.63583E+18,0.769208,-0.144088,0.621792,0.030539,-10.257811,0.39828,-0.323847,0.32367,-1.374846,-0.661086,41.908817,-17.901392,6.552099,4.63582E+18,0.653794,-0.31973,0.516709,0.45093,-7.614932,1.371962,9.671499,-1.67882,-1.629538,0.058137,43.471311,11.889516,-0.74441,4.63583E+18,-0.572509,-0.451414,-0.465125,0.502114,2
-5.556359,-1.855968,1.570553,-0.330971,-0.273388,0.084361,45.565813,0.669859,8.18095,4.63583E+18,0.769702,-0.144899,0.620928,0.031794,-10.187129,0.392899,0.178863,0.349157,-1.412886,-0.660262,42.065033,-17.476627,6.120716,4.63582E+18,0.65837,-0.317609,0.512547,0.450522,-7.907415,1.292488,9.335416,-1.484242,-1.738053,0.055609,43.487502,11.995893,-1.182633,4.63583E+18,-0.578919,-0.444315,-0.46394,0.502191,2
-5.665334,-1.879281,1.343913,-0.323446,-0.271241,0.142015,45.327626,0.58156,8.287289,4.63583E+18,0.770185,-0.145537,0.620105,0.033212,-9.749711,1.00269,0.449991,0.318891,-1.426732,-0.670159,42.184858,-17.222189,5.598072,4.63582E+18,0.662923,-0.315551,0.508255,0.450152,-7.955,1.155476,8.512852,-1.229432,-1.787207,0.068143,43.422985,11.8823,-1.710999,4.63583E+18,-0.584928,-0.437715,-0.462037,0.502779,2
-5.723945,-1.844203,1.39987,-0.37028,-0.325785,0.198246,45.414416,0.340259,8.201605,4.63583E+18,0.77077,-0.146171,0.619133,0.034966,-9.563855,0.376316,0.249575,0.262041,-1.415082,-0.695382,42.425622,-17.092614,5.117517,4.63582E+18,0.667395,-0.31371,0.503834,0.449801,-7.412465,0.829649,7.194047,-0.90929,-1.746342,0.093078,43.332803,11.747516,-2.160423,4.63583E+18,-0.590282,-0.431997,-0.459479,0.50381,2
-5.652028,-1.895004,1.175111,-0.349814,-0.325343,0.233337,45.573092,0.259211,8.102201,4.63583E+18,0.771356,-0.146649,0.618184,0.036779,-9.798597,-0.338423,-0.099533,0.306178,-1.408838,-0.714755,42.708063,-16.960031,4.739111,4.63582E+18,0.671902,-0.311801,0.499454,0.449303,-7.194381,0.442492,5.682326,-0.553817,-1.670743,0.103371,43.337022,11.771416,-2.598634,4.63583E+18,-0.594837,-0.427308,-0.456311,0.505329,2
-5.654629,-2.054313,0.687951,-0.320387,-0.301483,0.260508,45.727414,0.412233,7.907145,4.63583E+18,0.771892,-0.146965,0.617329,0.038589,-9.690059,-0.595524,0.014263,0.380999,-1.402314,-0.724155,42.835777,-16.79495,4.267534,4.63582E+18,0.676492,-0.309685,0.495207,0.448579,-7.961018,1.186857,4.567461,-0.327074,-1.613631,0.102542,43.345752,11.804559,-3.306314,4.63583E+18,-0.598845,-0.423281,-0.452782,0.507156,2
-5.800251,-2.246162,0.932965,-0.317866,-0.315622,0.313726,45.641965,0.254838,7.723818,4.63583E+18,0.772453,-0.147133,0.61646,0.040572,-9.368155,-0.752729,0.290722,0.434176,-1.391386,-0.718141,42.952211,-16.548928,3.647213,4.63582E+18,0.681098,-0.3074,0.491085,0.447713,-8.859175,3.075538,4.235969,-0.339712,-1.567702,0.115617,43.366167,11.856858,-4.108494,4.63583E+18,-0.602785,-0.419329,-0.449345,0.508825,2
-5.893376,-2.245947,1.212557,-0.353148,-0.282671,0.356334,45.556737,0.166812,7.530676,4.63583E+18,0.772896,-0.14731,0.615713,0.042762,-8.65947,-0.620714,0.394196,0.497029,-1.369237,-0.710318,43.149777,-16.212961,3.202863,4.63582E+18,0.68569,-0.30495,0.487128,0.446701,-9.404838,4.232368,4.631944,-0.473266,-1.533539,0.123251,43.332813,11.792885,-4.63101,4.63583E+18,-0.606881,-0.415113,-0.44624,0.510144,2
-5.739418,-2.233955,0.746736,-0.389045,-0.14001,0.392481,45.483276,-0.066852,7.457216,4.63583E+18,0.77294,-0.147535,0.615439,0.045074,-7.792708,-0.973076,0.864911,0.524001,-1.33578,-0.705226,43.302078,-15.883381,3.054119,4.63582E+18,0.690207,-0.302462,0.483301,0.445591,-9.839536,4.139944,5.166834,-0.617152,-1.533637,0.133295,43.29966,11.6342,-4.944912,4.63583E+18,-0.61122,-0.410532,-0.443402,0.511144,2
-5.85515,-2.233088,0.18116,-0.342781,-0.025218,0.419814,45.402369,-0.394972,7.373488,4.63583E+18,0.772709,-0.147561,0.615557,0.047284,-7.527281,-1.377585,1.655973,0.557464,-1.322367,-0.674683,43.495696,-15.588703,2.816774,4.63582E+18,0.694654,-0.299826,0.479595,0.444465,-9.980191,3.223162,5.391661,-0.698663,-1.542884,0.173915,43.239901,11.572618,-5.457232,4.63583E+18,-0.61577,-0.405781,-0.440619,0.511882,2
-6.29708,-2.186195,0.075597,-0.337647,-0.001706,0.481864,45.573017,-0.636282,7.385479,4.63583E+18,0.772405,-0.147416,0.615786,0.049666,-7.303301,-0.903508,2.061346,0.577695,-1.319821,-0.633549,43.692705,-15.332363,2.298129,4.63582E+18,0.699016,-0.29704,0.475964,0.443399,-9.707269,2.086594,5.397678,-0.688861,-1.54062,0.249067,43.179591,11.669725,-6.123902,4.63583E+18,-0.620425,-0.401182,-0.437668,0.512418,2
-6.878798,-2.250038,0.205157,-0.344113,0.022431,0.549895,45.726132,-0.723252,7.385694,4.63583E+18,0.772015,-0.147122,0.61613,0.052269,-7.150689,-0.709409,2.041486,0.532625,-1.303789,-0.616421,43.740836,-15.122573,1.720434,4.63582E+18,0.703223,-0.294374,0.472296,0.442446,-9.538721,1.77224,5.390934,-0.679054,-1.542054,0.346451,43.15791,11.731315,-6.616007,4.63583E+18,-0.625241,-0.396764,-0.434503,0.512698,2
-7.214145,-2.471494,0.070876,-0.353632,0.021282,0.598916,45.56593,-0.895447,7.396395,4.63583E+18,0.771605,-0.14673,0.616494,0.055055,-7.232032,-1.173291,1.814674,0.534255,-1.263288,-0.600947,43.696685,-14.917327,1.325238,4.63582E+18,0.707302,-0.291729,0.468754,0.441462,-9.556387,2.657363,5.380736,-0.752883,-1.556958,0.441562,43.108361,11.537139,-6.934672,4.63583E+18,-0.630375,-0.392273,-0.431275,0.512592,2
-7.190589,-2.78778,-0.057401,-0.357979,-0.042408,0.641675,45.330366,-1.138069,7.324442,4.63583E+18,0.77134,-0.146228,0.616672,0.058028,-7.198835,-1.311334,1.839425,0.569173,-1.212379,-0.573686,43.765931,-14.666804,1.038095,4.63582E+18,0.711247,-0.289009,0.465442,0.440414,-9.570604,3.748915,4.915746,-0.919024,-1.580518,0.497956,43.072458,11.272041,-7.387172,4.63583E+18,-0.635905,-0.387375,-0.42822,0.512048,2
-7.219067,-3.042424,0.153761,-0.36673,-0.022471,0.686481,45.573231,-1.29976,7.326367,4.63583E+18,0.771,-0.145641,0.616934,0.061154,-7.327484,-0.800749,2.144494,0.559293,-1.184726,-0.547493,43.889713,-14.457575,0.617727,4.63582E+18,0.715055,-0.286307,0.462211,0.439415,-9.719923,4.158691,3.850148,-1.147487,-1.591779,0.517522,43.097581,11.286505,-8.015839,4.63583E+18,-0.64182,-0.38186,-0.425557,0.51103,2
-7.478843,-3.199195,0.562182,-0.386482,0.096618,0.727914,45.738358,-1.632139,7.436447,4.63583E+18,0.770322,-0.145041,0.617593,0.064392,-7.11879,-0.29057,2.455092,0.4974,-1.174243,-0.519307,43.969362,-14.286642,0.142811,4.63582E+18,0.718699,-0.283737,0.458921,0.438584,-10.001409,4.418594,2.655207,-1.424288,-1.584116,0.50819,43.064284,11.300621,-8.500607,4.63583E+18,-0.648089,-0.375577,-0.423482,0.509496,2
-7.935987,-3.248019,0.5988,-0.376007,0.184614,0.75649,45.579682,-2.116129,7.554896,4.63583E+18,0.769407,-0.144356,0.618546,0.067641,-6.787468,-0.742994,2.977211,0.426065,-1.167436,-0.453698,44.00769,-14.121546,-0.101212,4.63582E+18,0.722114,-0.281248,0.455591,0.43805,-10.015414,4.797013,1.537605,-1.72277,-1.549979,0.49924,42.889244,11.028523,-8.814558,4.63583E+18,-0.654687,-0.36851,-0.422104,0.50736,2
-8.711001,-3.304283,0.636909,-0.377874,0.236015,0.770358,45.423748,-2.361764,7.471355,4.63583E+18,0.768344,-0.143653,0.619664,0.070908,-7.136918,-1.40626,3.062652,0.394644,-1.175173,-0.340929,44.00769,-13.997778,-0.3391,4.63582E+18,0.725272,-0.278623,0.452296,0.437925,-10.105788,4.876818,0.528645,-1.924912,-1.491882,0.528216,42.694654,10.869332,-9.207262,4.63583E+18,-0.661484,-0.361029,-0.42122,0.504649,2
-9.823571,-3.785256,0.758346,-0.42517,0.294726,0.783621,45.42396,-2.694124,7.498956,4.63583E+18,0.767086,-0.143084,0.620955,0.074303,-7.268507,-1.029505,2.674404,0.314204,-1.191607,-0.234381,43.972768,-13.91232,-0.810677,4.63582E+18,0.728143,-0.276013,0.44891,0.438299,-10.481554,4.550503,-0.371241,-1.91854,-1.375787,0.598486,42.859635,10.9243,-9.68605,4.63583E+18,-0.668143,-0.353897,-0.420487,0.50153,2
-11.033436,-4.543711,0.835561,-0.489122,0.352106,0.822365,45.434689,-3.17962,7.706457,4.63583E+18,0.765617,-0.142634,0.622423,0.077953,-6.862561,-0.996301,2.869717,0.188804,-1.208286,-0.117214,43.969362,-13.826873,-1.337836,4.63582E+18,0.730667,-0.273523,0.445368,0.439271,-11.201928,4.10155,-1.4171,-1.719933,-1.205763,0.688094,43.447052,10.492022,-10.054923,4.63583E+18,-0.674337,-0.347794,-0.419638,0.49821,2
-12.325385,-5.399597,0.453979,-0.547615,0.458939,0.878471,45.361452,-3.504782,7.915426,4.63583E+18,0.763802,-0.142257,0.624233,0.081868,-6.327899,-2.153706,3.742277,0.141714,-1.214025,0.064331,44.048416,-13.741432,-1.720778,4.63582E+18,0.732801,-0.270815,0.441923,0.44087,-11.891502,4.386027,-3.196148,-1.468704,-0.995934,0.806484,43.928419,9.820031,-10.221008,4.63583E+18,-0.679996,-0.343011,-0.418653,0.49465,2
-13.524827,-6.344528,0.566972,-0.715151,0.872192,0.967894,45.288201,-3.58373,8.210335,4.63583E+18,0.760759,-0.142318,0.627336,0.086257,-5.887888,-2.932157,5.168456,0.147505,-1.184352,0.283747,44.133861,-13.73161,-2.141146,4.63582E+18,0.734461,-0.267733,0.438816,0.443088,-11.997807,5.070945,-5.533138,-1.245004,-0.708119,0.936494,43.959507,9.530575,-10.313919,4.63583E+18,-0.68506,-0.339661,-0.41781,0.490671,2
-15.608368,-7.562817,-0.535123,-0.93169,1.209876,1.100439,45.214964,-3.987992,8.616483,4.63583E+18,0.75662,-0.142834,0.631479,0.091427,-5.995821,-3.346815,6.873877,0.154939,-1.114406,0.52216,44.18441,-13.886297,-2.802154,4.63582E+18,0.73607,-0.263793,0.436506,0.445057,-11.986332,5.613463,-8.579077,-1.097264,-0.319887,1.051197,43.897823,9.258562,-10.463815,4.63583E+18,-0.689439,-0.337711,-0.417587,0.486052,2
-18.89268,-8.642909,-1.818071,-1.073294,1.250395,1.239919,45.139234,-4.478936,9.21312,4.63583E+18,0.752185,-0.143435,0.635737,0.097379,-8.151572,-3.344604,6.968256,0.211369,-1.023511,0.762264,44.155899,-14.095531,-3.332122,4.63582E+18,0.737108,-0.259415,0.434821,0.447557,-11.569138,6.164132,-12.053875,-1.048801,0.134109,1.14821,44.054516,8.823184,-10.534989,4.63583E+18,-0.693123,-0.336975,-0.418414,0.48058,2
-22.914521,-9.355898,-1.791227,-1.313026,1.163792,1.414552,44.919265,-5.126002,9.722748,4.63583E+18,0.747705,-0.144279,0.639679,0.104558,-12.306955,-2.197467,5.270715,0.261696,-0.921579,0.940618,43.972141,-14.342049,-3.386045,4.63582E+18,0.737674,-0.254734,0.43372,0.450372,-10.570848,6.896565,-15.012585,-1.051177,0.629295,1.267071,44.258631,8.545849,-10.244011,4.63583E+18,-0.69615,-0.337414,-0.420488,0.474043,2
-25.816531,-9.641576,-3.023884,-1.579256,1.072659,1.49423,44.688618,-5.772842,10.050411,4.63583E+18,0.743202,-0.145687,0.643208,0.112739,-15.75691,-1.705167,3.823564,0.275438,-0.818985,1.078617,43.661138,-14.753084,-3.417574,4.63582E+18,0.737251,-0.250463,0.432786,0.454341,-9.627454,6.640011,-17.677394,-0.890143,1.195405,1.416209,44.444472,8.297598,-9.648497,4.63583E+18,-0.698207,-0.339675,-0.423649,0.466529,2
-27.833273,-9.508121,-4.247123,-1.927633,0.956762,1.48784,44.530129,-6.424172,10.267252,4.63583E+18,0.738718,-0.148121,0.64614,0.121892,-16.74443,-3.214449,3.700129,0.338366,-0.70175,1.285436,43.314707,-15.329124,-3.832058,4.63582E+18,0.736261,-0.245838,0.432534,0.458692,-8.821846,5.588225,-19.837793,-0.629721,1.774517,1.537959,44.63231,7.798467,-9.096528,4.63583E+18,-0.699044,-0.344004,-0.427778,0.458262,2
-28.557268,-9.410071,-4.913757,-2.345806,0.627007,1.483204,44.382196,-7.326072,10.317528,4.63583E+18,0.734772,-0.15167,0.647759,0.132344,-15.902608,-4.555704,3.955171,0.423503,-0.570224,1.610808,42.977002,-16.028982,-4.166803,4.63582E+18,0.73446,-0.240605,0.433163,0.463732,-7.188227,4.234004,-22.133935,-0.168617,2.339514,1.674492,44.882538,7.175948,-8.329563,4.63583E+18,-0.698385,-0.350954,-0.432425,0.449553,2
-28.079595,-8.584167,-6.018244,-2.66887,0.497534,1.519732,44.154179,-8.141207,10.448512,4.63583E+18,0.730837,-0.156015,0.648727,0.143841,-14.551664,-4.150406,4.134893,0.401814,-0.461888,2.026733,42.672397,-16.692233,-4.118524,4.63582E+18,0.731587,-0.234879,0.434475,0.46994,-7.55629,7.20074,-21.071493,-0.207615,2.558629,1.512277,45.212813,6.598127,-7.325169,4.63583E+18,-0.69698,-0.357852,-0.437958,0.440856,2
-27.494625,-8.014047,-7.468618,-2.893161,0.152036,1.568818,44.156864,-8.80317,10.382717,4.63583E+18,0.72753,-0.160676,0.648425,0.156292,-13.925754,-3.595948,4.747578,0.171222,-0.432858,2.540729,42.325934,-17.347382,-4.097637,4.63582E+18,0.727354,-0.228959,0.435888,0.478054,-7.154447,9.035596,-23.809066,-2.253542,2.699834,0.652779,45.283374,6.332262,-6.10115,4.63583E+18,-0.696657,-0.357427,-0.44886,0.430628,2
-26.274485,-8.401519,-8.732881,-2.866204,-1.027917,1.61614,44.312874,-9.624162,10.034507,4.63583E+18,0.727256,-0.16433,0.644468,0.169573,-15.088601,-3.344194,3.483405,-0.26567,-0.530633,3.123277,41.912618,-18.249022,-4.361571,4.63582E+18,0.721608,-0.223074,0.436631,0.488746,-4.932194,2.798479,-25.012668,-4.398373,3.122165,0.355768,44.778236,6.619716,-4.706192,4.63583E+18,-0.69795,-0.350844,-0.46511,0.41647,2
-25.801323,-10.735314,-7.523379,-2.826166,-2.304248,1.740965,44.308567,-10.623614,9.303283,4.63583E+18,0.73017,-0.166587,0.636601,0.183956,-18.220979,-2.762946,-0.746947,-0.846834,-0.707469,3.64345,41.466807,-19.445224,-4.727751,4.63582E+18,0.714423,-0.217579,0.436054,0.502113,-6.490266,-6.840656,-12.387616,-5.118474,3.066785,0.55897,44.461403,6.771732,-3.389796,4.63583E+18,-0.700359,-0.342262,-0.481884,0.400177,2
-25.477847,-13.224324,-4.094102,-2.87447,-3.136887,1.668177,44.056315,-11.536413,7.922177,4.63583E+18,0.735079,-0.168493,0.625908,0.198765,-23.237445,-3.067363,-7.095582,-1.349634,-0.861827,4.042182,40.951847,-20.810531,-5.134607,4.63582E+18,0.706011,-0.212463,0.434204,0.517566,-8.89413,-5.36177,0.252972,-5.176843,2.775452,0.535711,45.118299,6.231401,-2.04779,4.63583E+18,-0.702972,-0.332756,-0.497641,0.384002,2
-24.027375,-16.326999,0.066206,-2.560704,-3.420091,1.454401,44.049402,-12.289199,6.435727,4.63583E+18,0.740861,-0.169703,0.614235,0.212229,-28.707388,-4.430026,-13.988061,-1.478529,-0.833932,4.28189,40.237409,-22.214463,-5.632804,4.63582E+18,0.69666,-0.207273,0.432224,0.533746,-10.157566,-4.265448,7.216241,-4.681623,2.662257,0.514831,45.560735,6.094798,-0.755853,4.63583E+18,-0.70471,-0.324281,-0.512024,0.368859,2
-19.822872,-16.645923,6.952657,-2.338014,-2.438333,0.917188,44.350708,-12.799019,5.125369,4.63583E+18,0.744555,-0.172421,0.605235,0.22271,-33.510154,-6.208181,-20.712556,-1.197628,-0.543664,4.246157,39.354408,-23.618323,-6.187952,4.63582E+18,0.686849,-0.201899,0.43153,0.548869,-11.475242,-6.70545,18.2304,-2.999825,2.399291,0.613615,45.197407,6.534201,0.360496,4.63583E+18,-0.704614,-0.320423,-0.522716,0.357233,2
-15.319981,-15.631899,13.095186,-2.827801,-0.633581,0.378321,44.420132,-13.136571,4.293995,4.63583E+18,0.74371,-0.179663,0.600884,0.231418,-35.954905,-8.054301,-26.006999,-0.524429,-0.044468,3.891257,38.577836,-24.905791,-6.563481,4.63582E+18,0.677982,-0.195783,0.433617,0.560345,-12.817299,-0.747871,31.748101,-0.475112,2.153678,0.823388,45.235727,6.074931,1.410255,4.63583E+18,-0.70187,-0.324005,-0.528557,0.350751,2
-13.065073,-15.999944,9.907964,-2.325623,0.182063,-0.254378,44.262631,-13.219203,4.11531,4.63583E+18,0.74172,-0.187698,0.598998,0.236269,-31.896659,-8.300647,-27.567246,0.830559,0.571388,3.514861,38.037197,-26.030623,-6.374122,4.63582E+18,0.66983,-0.187899,0.440179,0.567684,-11.556167,6.374398,34.255016,1.314577,1.698678,0.835411,45.784297,4.988522,2.221479,4.63583E+18,-0.697668,-0.332142,-0.530393,0.348747,2
-10.294898,-15.02956,6.072242,-1.370536,-0.113579,-0.580218,44.178593,-13.131182,4.196159,4.63583E+18,0.741484,-0.193291,0.596844,0.237944,-23.117867,0.026781,-24.586634,2.496663,0.956319,2.772369,37.422278,-27.117026,-5.567415,4.63582E+18,0.663896,-0.177558,0.451056,0.569442,-6.936547,7.378009,23.854718,2.230358,1.260382,0.70456,46.118816,4.520844,2.589916,4.63583E+18,-0.692902,-0.341979,-0.529753,0.349713,2
-6.798201,-14.377749,9.395789,-0.208523,-0.514876,-0.528419,44.179788,-12.887033,4.000641,4.63583E+18,0.743113,-0.194762,0.594629,0.237206,-19.575158,7.648288,-16.623228,3.594305,1.159305,1.706896,36.745623,-27.965233,-4.471177,4.63582E+18,0.660726,-0.1666,0.464161,0.565898,-1.604258,4.816449,5.336498,2.461599,1.122287,0.455823,46.232777,4.492324,2.780458,4.63583E+18,-0.687659,-0.351692,-0.528669,0.352062,2
-2.994224,-11.237607,13.576426,0.365738,-0.120291,-0.510762,44.253233,-12.640097,3.800885,4.63583E+18,0.744206,-0.1948,0.594213,0.234778,-23.559805,-15.106262,-10.895718,4.805706,1.27824,1.611524,36.33512,-28.475672,-3.143587,4.63582E+18,0.657446,-0.153268,0.479994,0.56025,-4.935616,1.903168,-17.115686,1.91401,1.525874,0.123384,46.079732,4.581761,3.147202,4.63583E+18,-0.681758,-0.359658,-0.529973,0.353526,2
-0.252598,-8.702099,13.675401,0.917898,0.477797,-0.587624,44.338475,-12.226478,4.067834,4.63583E+18,0.74433,-0.193897,0.59612,0.230256,-18.417449,-43.990377,-10.740955,5.972594,0.994644,1.25712,36.282651,-28.897047,-1.385647,4.63582E+18,0.65657,-0.13614,0.497437,0.550398,-18.155634,-3.515495,-29.884146,0.793226,2.11995,-0.245083,45.439179,5.100884,3.981011,4.63583E+18,-0.675615,-0.364468,-0.535118,0.352641,2
-0.041227,-8.579969,13.141748,1.592905,0.099796,-0.658034,44.413105,-11.899647,4.235771,4.63583E+18,0.745977,-0.190704,0.597422,0.224136,-13.668312,-37.04804,-5.71833,4.775874,0.050663,-0.628534,36.394883,-29.079823,0.204514,4.63582E+18,0.660934,-0.123928,0.508194,0.538095,-30.030384,-9.247036,-23.742586,-0.088213,2.511535,-0.212186,44.882815,5.44038,4.975866,4.63583E+18,-0.669918,-0.367409,-0.542559,0.34907,2
-1.07818,-7.663539,14.266725,1.873848,-0.455576,-0.466362,44.570624,-11.742127,4.223762,4.63583E+18,0.749006,-0.18563,0.597377,0.21834,-22.543659,-9.359515,4.472999,0.033798,-0.939602,-2.363908,36.61267,-28.681466,0.607703,4.63582E+18,0.668658,-0.126191,0.504557,0.531409,-35.030068,-7.417936,-3.163791,-0.140815,2.589179,0.238491,44.91895,5.036775,5.927999,4.63583E+18,-0.664706,-0.371289,-0.549545,0.343962,2
-2.06093,-3.741414,13.261572,2.09125,-0.424781,-0.443308,44.654484,-11.654115,4.223564,4.63583E+18,0.752048,-0.179834,0.597599,0.212036,-19.438497,-8.272787,1.390831,-4.846082,-1.030965,-3.34466,37.27031,-27.727284,-0.276328,4.63582E+18,0.675983,-0.143828,0.489194,0.532024,-31.95246,-0.97087,11.789107,0.122063,2.565927,0.679589,45.346042,4.433056,6.880176,4.63583E+18,-0.659693,-0.376825,-0.555346,0.338228,2
-2.69023,1.157054,10.512934,2.405335,-0.469765,-0.575736,44.642475,-11.408583,4.211159,4.63583E+18,0.755482,-0.173325,0.597801,0.204549,-17.618412,-30.04424,-13.645353,-5.376197,-0.992063,-3.883042,38.181799,-26.520622,-1.704504,4.63582E+18,0.683634,-0.164071,0.472142,0.531796,-27.232024,1.121692,14.49103,0.548074,2.535466,1.004309,45.523471,4.082198,7.832354,4.63583E+18,-0.654455,-0.384189,-0.559885,0.332591,2
-3.75011,5.511826,7.651212,2.459092,-0.522819,-0.643293,44.645027,-11.079022,4.185373,4.63583E+18,0.759058,-0.166749,0.597764,0.196731,-27.451511,-25.693534,-17.043481,-3.470082,-1.191918,-4.417187,39.077598,-25.112861,-3.051584,4.63582E+18,0.693678,-0.179431,0.458089,0.526089,-25.582329,1.225571,14.226825,0.983222,2.471162,1.196574,45.382553,3.790676,8.672714,4.63583E+18,-0.648842,-0.393043,-0.563262,0.327501,2
-6.200918,9.688339,5.225091,2.268466,-0.61382,-0.79776,44.803703,-10.748293,4.076883,4.63583E+18,0.76277,-0.161066,0.59711,0.188942,-26.457866,-12.089958,-9.480363,-2.289493,-1.158776,-5.043373,40.005313,-23.450526,-4.088323,4.63582E+18,0.705488,-0.192592,0.446013,0.51601,-26.197986,2.641247,14.987026,1.180815,2.392013,1.306495,45.23463,3.327004,9.620527,4.63583E+18,-0.643143,-0.40252,-0.565895,0.322657,2
-10.004638,13.220045,4.479658,1.78065,-0.320112,-1.258906,44.958502,-10.341356,4.055391,4.63583E+18,0.765714,-0.158295,0.596638,0.180686,-22.143733,-11.382561,-5.844938,-1.924855,-1.081598,-5.118559,40.857526,-21.705087,-4.783059,4.63582E+18,0.717203,-0.204908,0.434667,0.504675,-27.718016,3.994906,17.401903,1.071936,2.253958,1.286794,45.162014,2.91923,10.555871,4.63583E+18,-0.637831,-0.411413,-0.568261,0.317791,2
-14.239561,15.452177,3.670779,1.183429,0.161359,-1.829909,44.876968,-9.678156,4.212339,4.63583E+18,0.767432,-0.159198,0.596827,0.17176,-17.765479,-13.530374,-8.002792,-1.840964,-0.886866,-4.92012,41.504765,-19.965131,-5.334228,4.63582E+18,0.727836,-0.216938,0.424049,0.493331,-28.801977,2.361418,19.839182,0.899986,2.105038,1.209329,45.113186,2.646539,11.298632,4.63583E+18,-0.63298,-0.419415,-0.570523,0.31294,2
-17.572473,16.056408,1.91741,0.711338,0.165783,-2.166713,45.038139,-8.776374,4.262704,4.63583E+18,0.769,-0.162436,0.596416,0.162913,-12.731865,-14.06122,-11.505417,-1.31094,-0.465445,-4.698253,42.063872,-18.266585,-5.701844,4.63582E+18,0.736868,-0.228214,0.415577,0.481913,-28.489659,-1.797907,20.991311,1.043379,1.946104,1.231732,45.064356,2.357705,11.970039,4.63583E+18,-0.628212,-0.427593,-0.572077,0.308613,2
-17.11376,16.2576,-0.335548,0.104522,0.176555,-2.125187,45.351662,-7.959637,4.409387,4.63583E+18,0.770037,-0.167507,0.595606,0.155686,-11.096921,-10.005798,-13.333474,-0.244017,0.016452,-4.471802,42.784386,-16.652997,-5.775917,4.63582E+18,0.745348,-0.236706,0.410778,0.468708,-26.333842,-5.807539,22.102036,1.518048,1.840662,1.430013,44.725102,2.085017,12.656291,4.63583E+18,-0.623026,-0.437298,-0.572325,0.305048,2
-12.426944,14.525189,-2.234798,-0.310308,-0.016124,-1.692054,45.428813,-7.216459,4.563426,4.63583E+18,0.770931,-0.172697,0.594171,0.151002,-9.353361,-3.540074,-13.649585,0.928411,0.496549,-4.201679,43.586087,-15.200672,-5.517034,4.63582E+18,0.753843,-0.241549,0.410125,0.452959,-23.520658,-6.770481,22.62984,2.064016,1.679442,1.561172,43.75343,2.20575,13.232939,4.63583E+18,-0.6173,-0.448463,-0.571139,0.302692,2
-7.865562,11.350777,-3.021986,-0.73941,-0.816891,-1.163949,45.745937,-6.5748,4.420347,4.63583E+18,0.773129,-0.177446,0.590247,0.149646,-6.662342,1.909734,-12.159997,1.836817,0.916692,-3.872299,44.122486,-13.916545,-5.05898,4.63582E+18,0.761632,-0.2437,0.412703,0.436123,-20.416567,-6.576248,22.471392,2.823635,1.660605,1.626756,42.831151,2.67146,13.666426,4.63583E+18,-0.610155,-0.461628,-0.568713,0.301953,2
-5.813649,7.34857,-1.873247,-0.75623,-1.057101,-0.666525,46.043618,-6.263751,3.731018,4.63583E+18,0.775563,-0.180869,0.585882,0.150104,-3.963796,6.598233,-9.488838,2.256448,1.236941,-3.522771,44.32845,-12.683675,-4.473941,4.63582E+18,0.768371,-0.244433,0.417271,0.419217,-15.729121,-7.507181,21.720972,4.104789,1.746458,1.813233,42.808152,2.739484,14.101707,4.63583E+18,-0.60038,-0.478457,-0.564359,0.303516,2
-5.219383,4.261627,0.815769,-0.825584,-0.295203,-0.131595,45.869237,-6.350363,3.456435,4.63583E+18,0.775731,-0.183681,0.584324,0.151882,-1.423904,11.109764,-6.870567,2.19436,1.473009,-3.223979,44.519529,-11.49126,-3.648648,4.63582E+18,0.77346,-0.245586,0.422421,0.403741,-11.470419,-8.061648,21.294473,5.1713,1.36403,1.889185,43.47631,1.993859,14.573011,4.63583E+18,-0.589184,-0.497418,-0.557286,0.308009,2
-4.085343,2.028958,0.644379,-1.084972,0.271969,0.122634,45.484783,-6.505213,3.567609,4.63583E+18,0.774145,-0.187069,0.584619,0.154676,0.923105,15.434544,-4.490853,1.742295,1.6983,-3.015204,44.881481,-10.41922,-2.668735,4.63582E+18,0.777134,-0.24814,0.427633,0.389382,-7.265873,-4.89282,20.82813,5.750462,0.550571,1.829,43.96395,1.195067,14.877869,4.63583E+18,-0.578245,-0.51632,-0.547276,0.315491,2
-1.474382,-0.15527,-1.847229,-1.060861,-0.098633,0.244925,45.487278,-6.422437,3.755275,4.63583E+18,0.773385,-0.189838,0.583818,0.158092,2.769914,18.515653,-2.092568,1.037598,1.958806,-2.836513,45.29253,-9.430489,-1.816744,4.63582E+18,0.779566,-0.252541,0.432907,0.375621,-0.638379,0.577817,21.478236,5.98903,-0.491518,1.672165,43.949623,1.235048,14.65631,4.63583E+18,-0.568581,-0.533735,-0.534428,0.325928,2
1.006318,-2.268802,-2.830064,-0.59794,-0.5928,0.265134,45.642149,-6.510545,3.458334,4.63583E+18,0.774167,-0.190738,0.581736,0.160834,3.303605,19.657281,0.115138,0.194604,2.25263,-2.626886,45.583367,-8.441683,-1.123355,4.63582E+18,0.78006,-0.259703,0.437951,0.363674,4.900481,8.291401,19.939495,5.35779,-1.092061,1.535112,44.05205,1.61703,14.115933,4.63583E+18,-0.561115,-0.548212,-0.520995,0.336419,2
2.122843,-4.491724,-1.135322,-0.17543,-0.79155,0.278614,45.55784,-6.760444,2.914356,4.63583E+18,0.775747,-0.190107,0.579299,0.162752,2.220867,19.390254,1.867091,-0.733558,2.539222,-2.391321,45.82567,-7.452946,-0.204803,4.63582E+18,0.778479,-0.269832,0.442694,0.353814,4.107688,16.215813,11.399471,3.20445,-1.233267,1.470371,44.35247,1.604234,13.542186,4.63583E+18,-0.558554,-0.557104,-0.510192,0.342575,2
2.8241,-6.020326,0.406101,0.087826,-0.656814,0.19886,45.547155,-6.602872,2.706996,4.63583E+18,0.777257,-0.188907,0.577407,0.163669,0.728199,18.851596,3.153455,-1.624742,2.778916,-2.119265,46.03686,-6.585909,0.964054,4.63582E+18,0.77481,-0.282684,0.447088,0.346224,-0.300068,18.800596,5.367712,0.085933,-1.85161,1.114241,44.51623,1.230869,12.856786,4.63583E+18,-0.563944,-0.557012,-0.503145,0.344311,2
3.077048,-6.910553,-0.166123,0.581428,-0.515949,0.142832,45.632418,-6.521419,2.510345,4.63583E+18,0.778846,-0.186337,0.576258,0.163104,-0.304822,18.026775,4.203844,-2.41863,2.934435,-1.796251,46.095766,-5.928875,2.098373,4.63582E+18,0.769224,-0.297635,0.451118,0.340883,-0.83878,6.188216,11.795805,-2.09847,-2.476841,0.676924,44.626673,0.863796,12.159571,4.63583E+18,-0.57501,-0.549899,-0.498708,0.343897,2
2.325981,-6.177662,-0.626848,1.012449,-0.517523,0.122301,45.704517,-6.692303,2.232632,4.63583E+18,0.780775,-0.182413,0.575372,0.161437,-0.92187,16.441913,4.934155,-3.157324,3.009817,-1.48211,46.071355,-5.436342,3.042526,4.63582E+18,0.761862,-0.314371,0.454599,0.337754,2.247021,-7.367397,19.026728,-2.840057,-2.753844,0.337877,44.865107,0.513997,11.373945,4.63583E+18,-0.587731,-0.53978,-0.495328,0.343307,2
0.393511,-3.860339,-0.141159,1.277177,-0.486235,0.017236,45.703195,-6.86056,2.148503,4.63583E+18,0.782879,-0.177896,0.57467,0.158766,-1.241455,14.573683,4.83796,-3.94093,3.057028,-1.252076,46.087508,-4.992955,3.891195,4.63582E+18,0.752788,-0.333026,0.457315,0.336551,4.512428,-12.351353,21.766094,-2.689005,-3.048013,-0.050845,45.014039,0.22487,10.232019,4.63583E+18,-0.599997,-0.52866,-0.491741,0.344546,2
-0.974717,-1.672096,-1.37171,1.459912,-0.640012,-0.182448,45.617752,-6.85681,2.147003,4.63583E+18,0.785589,-0.173151,0.573418,0.155114,-1.422715,12.382028,4.249537,-4.772639,3.132715,-1.140178,46.067411,-4.579999,4.872594,4.63582E+18,0.741857,-0.354012,0.45905,0.33704,6.21702,-12.252975,20.834578,-2.172774,-3.389787,-0.534012,45.204208,0.007818,9.017827,4.63583E+18,-0.610962,-0.5172,-0.487477,0.348706,2
-0.83988,0.731104,-2.439979,1.442445,-0.858511,-0.517522,45.534741,-6.611346,2.046152,4.63583E+18,0.788986,-0.169114,0.571169,0.150558,-1.706177,9.783851,4.326673,-5.366246,3.239286,-1.09711,45.928579,-4.45323,6.007818,4.63582E+18,0.729307,-0.376669,0.460088,0.338453,6.040552,-12.301067,17.023563,-1.514143,-3.705708,-1.067268,45.477539,0.023463,7.751307,4.63583E+18,-0.620197,-0.505726,-0.482455,0.356138,2
0.104383,3.015139,-2.332549,1.32941,-0.908509,-0.900373,45.608044,-6.281671,1.739132,4.63583E+18,0.792617,-0.166318,0.568384,0.145039,-2.488844,6.643363,5.210891,-5.389154,3.201296,-1.035923,45.722935,-4.504532,7.056072,4.63582E+18,0.716197,-0.398957,0.460795,0.339947,3.860185,-12.66271,12.016239,-0.862268,-3.941537,-1.601153,45.679138,0.516862,6.059,4.63583E+18,-0.627546,-0.494361,-0.476824,0.36665,2
0.504209,4.509131,-1.631984,1.036522,-0.877754,-1.289307,45.682476,-5.958941,1.33451,4.63583E+18,0.79616,-0.165419,0.565219,0.1389,-3.543441,2.197233,6.543341,-4.850892,2.957382,-0.937728,45.507755,-4.429222,8.002451,4.63582E+18,0.703858,-0.418842,0.461449,0.340909,1.059102,-11.717636,7.348253,-0.419661,-4.108658,-2.08197,45.994047,1.135649,4.432486,4.63583E+18,-0.633362,-0.482776,-0.470899,0.379517,2
-0.024482,5.528784,-0.666798,0.601894,-0.79735,-1.551746,45.827761,-5.31327,0.828155,4.63583E+18,0.799318,-0.166615,0.561855,0.13285,-4.390879,-2.160886,7.740687,-3.960492,2.630276,-0.812924,45.370993,-4.311081,8.948166,4.63582E+18,0.69319,-0.435192,0.462448,0.340936,-1.833407,-9.836252,3.873752,-0.238052,-4.229091,-2.466332,46.215698,1.883127,3.163127,4.63583E+18,-0.638196,-0.470538,-0.464957,0.393845,2
-0.789263,5.443069,-1.150877,0.232752,-0.832412,-1.531314,45.901007,-4.738158,0.707445,4.63583E+18,0.802245,-0.168962,0.558153,0.127749,-5.292241,-4.671398,7.902408,-2.99641,2.206783,-0.625984,45.285551,-4.313128,9.807568,4.63582E+18,0.684602,-0.44764,0.463822,0.340306,-4.679493,-7.799557,1.69866,-0.164741,-4.28784,-2.715698,45.763033,3.262877,1.72097,4.63583E+18,-0.642317,-0.457718,-0.459024,0.408925,2
-1.264309,4.592377,-2.117965,-0.171429,-1.054266,-1.304686,45.972883,-4.081629,0.66336,4.63583E+18,0.805241,-0.172007,0.553625,0.124495,-5.438853,-5.100173,8.22343,-2.163505,1.74084,-0.378462,45.2001,-4.439116,10.523891,4.63582E+18,0.677986,-0.45648,0.465446,0.339589,-7.147273,-5.640752,0.677988,-0.028885,-4.238543,-2.830998,44.897827,4.971959,-0.006775,4.63583E+18,-0.645599,-0.444928,-0.452998,0.424304,2
-0.18168,3.975649,-2.485244,-0.333972,-1.315924,-1.069318,45.959509,-3.597482,0.158824,4.63583E+18,0.808562,-0.174909,0.548276,0.122587,-3.97096,-3.857662,9.085919,-1.639231,1.427535,-0.165888,45.114649,-4.569483,11.148971,4.63582E+18,0.672537,-0.463016,0.46721,0.339153,-9.35886,-3.023379,0.372537,0.140565,-4.08957,-2.804588,44.455576,6.264498,-1.645046,4.63583E+18,-0.648048,-0.43272,-0.446821,0.439476,2
0.665629,2.978801,-2.169995,-0.314115,-1.315833,-0.871914,45.875229,-3.36671,-0.595308,4.63583E+18,0.811757,-0.177285,0.543055,0.121292,-0.866091,1.196157,9.80439,-1.266251,1.163157,-0.056873,45.110265,-4.65493,11.58951,4.63582E+18,0.668181,-0.467806,0.469031,0.338676,-11.489012,-0.132119,0.218072,0.397889,-3.844435,-2.645864,44.108354,7.326973,-3.17556,4.63583E+18,-0.649605,-0.421783,-0.440364,0.454084,2
1.077433,2.977763,-1.996624,-0.454184,-1.43037,-0.487797,45.865745,-3.209378,-1.176586,4.63583E+18,0.814878,-0.179199,0.537637,0.121692,2.576733,4.016616,10.532742,-1.060937,0.897371,0.183825,45.079921,-4.69985,11.737732,4.63582E+18,0.664373,-0.471161,0.470854,0.338988,-12.602447,2.180448,-0.240111,0.781885,-3.509628,-2.371183,43.535638,8.510031,-4.753456,4.63583E+18,-0.650162,-0.412883,-0.433445,0.467913,2
2.0057,2.138562,-2.413419,-0.669117,-0.820335,-0.000017,46.023063,-3.137303,-1.464888,4.63583E+18,0.816199,-0.181054,0.534528,0.12377,6.304692,8.729201,11.968356,-0.951221,0.647967,0.28419,44.921233,-4.856147,11.783413,4.63582E+18,0.661104,-0.473653,0.472323,0.339861,-12.726447,3.360984,-1.469664,1.252312,-3.106591,-2.010824,43.302321,9.428063,-6.089752,4.63583E+18,-0.649692,-0.406579,-0.425952,0.48079,2
0.652531,-0.039666,-2.188993,-0.898972,0.723903,0.337847,46.092833,-3.14233,-1.45696,4.63583E+18,0.813715,-0.183731,0.536795,0.126342,4.367393,-7.883029,17.62066,-1.128614,1.015553,0.003135,44.80306,-5.110492,12.020631,4.63582E+18,0.657133,-0.477697,0.473982,0.339592,-13.248522,4.767866,-4.196232,1.625585,-2.72617,-1.602687,43.088828,9.942793,-7.17511,4.63583E+18,-0.648574,-0.402678,-0.417947,0.492466,2
-2.851953,-1.761707,-2.4285,-0.94266,1.082452,0.625369,45.948666,-3.458562,-0.961291,4.63583E+18,0.810216,-0.186095,0.540457,0.129707,-7.252735,-66.964726,29.594653,-1.821704,1.173576,-1.27837,44.828226,-4.853027,12.439584,4.63582E+18,0.653169,-0.486447,0.472429,0.336974,-13.365913,6.972818,-7.898931,1.740013,-2.406392,-1.10856,42.536742,10.132696,-8.3763,4.63583E+18,-0.64759,-0.40053,-0.409658,0.502378,2
-6.352572,-2.781902,-2.366626,-1.110595,-0.228374,0.791595,45.952504,-3.70153,-0.775016,4.63583E+18,0.809419,-0.187937,0.539712,0.135024,-34.125084,-120.883163,58.189513,-0.718151,-1.142142,-2.576333,45.003001,-4.109096,12.538809,4.63582E+18,0.657749,-0.491421,0.463464,0.333274,-13.104339,9.074831,-12.459731,1.658056,-2.195376,-0.553156,42.653358,9.784874,-9.414783,4.63583E+18,-0.647443,-0.399491,-0.40112,0.510222,2
-5.845203,-4.254275,-1.453726,-1.161621,-0.814278,0.933121,46.188784,-3.872434,-1.154788,4.63583E+18,0.809786,-0.189296,0.53705,0.141385,-48.189918,-48.229474,68.325149,4.774904,-3.60739,0.509882,45.164859,-3.751561,11.706988,4.63582E+18,0.673806,-0.471765,0.461516,0.332304,-12.153069,10.56541,-17.50876,1.658753,-2.011016,0.048895,43.469098,9.182009,-10.110463,4.63583E+18,-0.648188,-0.399802,-0.39203,0.516065,2
-3.38066,-6.19889,1.596651,-1.26287,-0.629336,1.035682,45.932813,-4.047174,-1.615406,4.63583E+18,0.809558,-0.190866,0.535007,0.148166,-18.566288,100.329984,39.662604,7.368782,-3.805394,3.065791,45.308819,-4.022207,10.337218,4.63582E+18,0.6912,-0.439083,0.467211,0.333411,-11.049745,12.46715,-23.716415,1.486878,-1.717272,0.692357,43.732742,8.613601,-10.904478,4.63583E+18,-0.650051,-0.40129,-0.38299,0.519344,2
-1.011547,-8.417225,5.293899,-1.278017,-0.234281,0.805628,45.706974,-4.463262,-1.866032,4.63583E+18,0.808541,-0.193236,0.534079,0.153883,-3.531695,114.528297,28.113685,2.906221,-3.702669,2.341705,45.498328,-4.619742,9.065264,4.63582E+18,0.700612,-0.420394,0.465195,0.340596,-10.720758,14.87326,-27.276341,1.432453,-1.477686,1.529928,43.569259,7.878414,-11.832309,4.63583E+18,-0.653359,-0.404449,-0.373273,0.519817,2
0.653848,-13.606078,7.352114,-0.959966,0.155607,0.619306,45.864546,-4.946474,-1.759199,4.63583E+18,0.807007,-0.195194,0.534502,0.157947,-22.885618,49.679596,27.092598,-2.100003,-3.540105,1.589941,45.727708,-5.35214,7.711544,4.63582E+18,0.701742,-0.417843,0.455022,0.354852,-14.988986,24.766565,-25.107901,2.669426,-1.578574,2.354112,43.365974,7.016486,-12.589105,4.63583E+18,-0.656396,-0.411966,-0.359142,0.520043,2
1.056789,-21.745845,6.764639,-0.257727,0.470474,0.74145,45.946209,-5.104017,-1.841617,4.63583E+18,0.805247,-0.194721,0.536535,0.160598,-35.380544,7.327766,10.011779,-4.616546,-2.704502,0.127556,45.967995,-5.92841,6.296734,4.63582E+18,0.698793,-0.426514,0.440834,0.368022,-23.840685,39.059133,-31.61314,2.658228,-1.435863,3.198281,42.599044,6.469388,-12.990804,4.63583E+18,-0.660863,-0.420906,-0.343868,0.517545,2
-0.955963,-21.159924,5.384413,0.341358,0.439224,0.814656,45.788837,-5.19306,-1.722868,4.63583E+18,0.803981,-0.192051,0.538915,0.162178,-38.947162,-11.79669,-18.465548,-3.333311,-2.393614,-0.268367,46.105456,-6.059322,5.151902,4.63582E+18,0.697897,-0.432513,0.428649,0.377004,-19.084883,27.368881,-62.25525,0.783044,0.241598,3.316815,41.837404,5.949225,-13.123492,4.63583E+18,-0.666244,-0.428386,-0.336919,0.509008,2
-9.076266,-15.158114,9.338173,0.791071,0.79073,0.508623,45.71937,-5.506673,-1.042466,4.63583E+18,0.802475,-0.188795,0.54252,0.161439,-47.196661,-18.417866,-36.610392,-0.579636,-2.646537,-0.487424,46.18448,-5.847934,4.194,4.63582E+18,0.702546,-0.430511,0.419485,0.380948,-16.086991,-16.786304,-74.158797,0.514418,2.093626,2.715274,42.09533,4.853849,-12.798168,4.63583E+18,-0.668091,-0.438114,-0.336685,0.498351,2
-16.496389,-10.219875,10.062343,0.967163,0.673009,-0.304248,45.890087,-5.572549,-0.571103,4.63583E+18,0.801899,-0.186704,0.545196,0.157673,-50.554156,-12.064204,-15.55699,1.451682,-3.086258,-0.334787,46.19473,-5.632083,3.102413,4.63582E+18,0.711249,-0.42154,0.412453,0.382506,-16.791256,-46.231653,-49.402977,1.437643,2.379995,2.635487,42.81975,3.506909,-12.053614,4.63583E+18,-0.667528,-0.450791,-0.335397,0.488572,2
-19.104287,-6.432264,8.712477,0.93135,0.619616,-0.909801,46.045209,-5.16831,-0.397448,4.63583E+18,0.801789,-0.186066,0.547183,0.152002,-31.592848,4.844757,15.23099,2.316593,-3.202178,0.022207,46.161976,-5.542161,1.910094,4.63582E+18,0.721029,-0.409019,0.407067,0.383558,-15.691593,-23.117532,-44.651134,0.788896,2.797296,2.501058,43.12187,2.470427,-11.072341,4.63583E+18,-0.667156,-0.462208,-0.336757,0.477348,2
-19.964597,-3.154856,7.684476,0.985669,1.253059,-1.245646,45.97308,-4.667748,-0.040579,4.63583E+18,0.800446,-0.186403,0.551031,0.144586,-10.953949,8.412399,21.236903,2.387762,-2.906216,0.092468,46.174181,-5.61732,0.947742,4.63582E+18,0.730131,-0.396545,0.402673,0.384078,-32.15096,6.753281,-34.002643,-0.817274,3.070557,2.442436,43.17071,1.846266,-10.017512,4.63583E+18,-0.669199,-0.469495,-0.342094,0.463378,2
-25.898488,0.448988,7.286695,0.348407,1.684005,-1.740024,45.974392,-4.165932,0.499546,4.63583E+18,0.797846,-0.190242,0.5555,0.136637,-2.736445,3.349373,15.728682,2.151124,-2.708453,0.29203,46.186388,-5.776015,0.289171,4.63582E+18,0.738029,-0.384689,0.398716,0.385166,-33.874197,9.482183,4.152705,-1.456547,3.010838,1.807574,43.405439,1.422253,-9.086702,4.63583E+18,-0.671176,-0.473853,-0.349648,0.450259,2
-32.64928,2.684499,7.216808,-0.052417,2.499409,-1.940956,46.057602,-3.580046,1.240647,4.63583E+18,0.793044,-0.196316,0.562214,0.128282,4.776371,-4.641995,10.554098,1.773147,-2.400326,0.561093,46.233285,-5.853772,-0.450953,4.63582E+18,0.744157,-0.374069,0.395351,0.387298,-24.150783,1.993967,34.501125,0.02734,2.534731,1.371562,43.967663,0.659812,-8.120642,4.63583E+18,-0.669967,-0.480736,-0.353878,0.44137,2
-37.135009,6.622725,7.244226,-0.20182,4.002004,-1.58917,45.995261,-2.996324,2.551491,4.63583E+18,0.784214,-0.202813,0.573962,0.120178,6.923361,-9.648135,7.402855,1.68333,-2.111142,0.902187,46.249363,-6.003425,-1.403071,4.63582E+18,0.749006,-0.363587,0.393188,0.390126,-22.345296,7.316743,40.069998,1.924034,1.850869,1.290869,44.574212,-0.66827,-7.068218,4.63583E+18,-0.665741,-0.491446,-0.352845,0.436772,2
-44.363521,10.88721,-0.404895,-0.6064,3.163202,-0.595145,45.852308,-2.561136,4.1411,4.63583E+18,0.77635,-0.207782,0.58346,0.116968,1.338213,-7.724899,7.849192,1.791492,-1.864295,1.290552,46.159421,-6.604717,-2.256976,4.63582E+18,0.752868,-0.352494,0.392476,0.393574,-9.911822,11.974084,21.126467,2.680995,1.703792,0.903058,44.714617,-1.470304,-6.184655,4.63583E+18,-0.659369,-0.503325,-0.350774,0.434572,2
-52.315682,5.154503,-6.767146,-0.228708,-0.596319,0.234736,45.939965,-2.410026,4.304256,4.63583E+18,0.777472,-0.20766,0.581643,0.118768,-7.825488,-3.933151,7.159389,1.899141,-1.658473,1.590017,46.025803,-7.392376,-2.86862,4.63582E+18,0.755946,-0.340865,0.392944,0.397432,-2.468468,9.322044,-5.288237,2.434958,1.8097,0.309649,44.622281,-1.457912,-5.601453,4.63583E+18,-0.652165,-0.513765,-0.350625,0.433346,2
-48.584212,-0.9949,-1.162644,0.589557,-4.389128,1.124674,46.168217,-2.75802,3.169466,4.63583E+18,0.78791,-0.200815,0.568608,0.124727,-14.343588,-3.993087,4.384022,1.884316,-1.518732,1.75185,45.844653,-8.011081,-3.378696,4.63582E+18,0.758392,-0.329198,0.393978,0.401561,-11.12807,7.482448,-19.191214,1.590722,1.836098,-0.346996,44.995065,-1.597674,-5.018666,4.63583E+18,-0.645455,-0.520931,-0.353433,0.432556,2
-34.813802,0.187593,19.460683,0.015976,-0.817322,1.252854,46.155085,-3.508323,2.082641,4.63583E+18,0.789181,-0.197366,0.566993,0.129453,-14.321407,-4.337328,4.061066,1.748205,-1.287558,1.807521,45.624919,-8.665731,-3.801556,4.63582E+18,0.76017,-0.318111,0.395594,0.405527,-19.348702,7.127493,-20.494189,0.540585,1.890595,-0.653907,45.275145,-1.84229,-4.240567,4.63583E+18,-0.640333,-0.52487,-0.358918,0.430886,2
-30.920323,-1.098605,17.799912,-0.537118,3.885424,0.821347,46.080932,-3.820551,2.585163,4.63583E+18,0.778996,-0.19926,0.580099,0.130179,-13.125388,-2.829484,6.929947,1.77277,-0.937982,1.875457,45.445646,-9.410336,-4.02388,4.63582E+18,0.761206,-0.307367,0.398382,0.409124,-21.270071,4.550911,-11.024042,0.086415,2.131815,-0.544894,44.709681,-1.346869,-3.378616,4.63583E+18,-0.635989,-0.528151,-0.365596,0.427685,2
-43.76214,-0.208743,4.268929,-0.107349,2.79373,0.257765,45.946468,-3.7987,4.022706,4.63583E+18,0.771948,-0.200487,0.589306,0.128916,-12.711686,-0.929441,8.922753,1.776534,-0.528139,1.931268,45.346034,-10.114506,-4.200551,4.63582E+18,0.761266,-0.297283,0.402395,0.412524,-21.785554,6.53176,4.871999,0.388182,2.366806,-0.454566,44.248101,-0.565161,-2.586276,4.63583E+18,-0.630723,-0.532738,-0.372125,0.424149,2
-49.21281,5.400061,3.983767,-0.214468,2.325604,0.358203,45.79998,-3.94647,5.260901,4.63583E+18,0.765816,-0.201538,0.596965,0.128616,-12.013395,-2.90643,8.446379,1.54355,-0.088767,2.056499,45.175251,-10.88919,-4.24502,4.63582E+18,0.760112,-0.288329,0.407572,0.41591,-20.247032,11.402088,14.481596,0.831843,2.489164,-0.454845,44.354296,-0.240956,-1.663299,4.63583E+18,-0.624185,-0.538667,-0.378119,0.421019,2
-44.678483,10.488195,1.029131,-0.34374,1.565998,0.879498,45.654781,-4.182197,6.039357,4.63583E+18,0.761125,-0.201281,0.602522,0.130929,-10.578425,-6.07784,7.184907,1.349587,0.42114,2.28663,44.916943,-11.757833,-4.04275,4.63582E+18,0.757371,-0.280441,0.414238,0.419701,-16.457326,12.172776,12.205733,1.031466,2.532254,-0.62582,44.385045,-0.118346,-0.506763,4.63583E+18,-0.616772,-0.544831,-0.38424,0.418463,2
