Accelerometer-X,Accelerometer-Y,Accelerometer-Z,Gyroscope-X,Gyroscope-Y,Gyroscope-Z,Magnetometer-X,Magnetometer-Y,Magnetometer-Z,Barometer-pressure,Orientation-S,Orientation-X,Orientation-Y,Orientation-Z,Accelerometer-X,Accelerometer-Y,Accelerometer-Z,Gyroscope-X,Gyroscope-Y,Gyroscope-Z,Magnetometer-X,Magnetometer-Y,Magnetometer-Z,Barometer-pressure,Orientation-S,Orientation-X,Orientation-Y,Orientation-Z,Accelerometer-X,Accelerometer-Y,Accelerometer-Z,Gyroscope-X,Gyroscope-Y,Gyroscope-Z,Magnetometer-X,Magnetometer-Y,Magnetometer-Z,Barometer-pressure,Orientation-S,Orientation-X,Orientation-Y,Orientation-Z,jump
-9.963569,-1.424008,0.411759,-0.09593,-0.181739,0.177924,41.761528,2.693181,16.334074,4.63583E+18,0.752327,-0.070129,0.649426,-0.085625,-9.661825,1.561324,1.225956,0.069983,-0.149842,-0.10229,39.875263,-22.05467,6.244422,4.63583E+18,0.645646,-0.271224,0.626839,0.341543,-9.789898,-0.703814,-0.756859,0.070809,0.041696,-0.039521,39.738654,20.850245,3.405865,4.63583E+18,-0.581895,-0.404263,-0.605558,0.362309,0
-9.973449,-1.467213,0.450704,-0.087266,-0.185366,0.185196,41.761528,2.486246,16.364894,4.63583E+18,0.752861,-0.069682,0.648951,-0.084892,-9.582811,1.424702,1.17301,0.060992,-0.14186,-0.105543,40.003662,-21.969212,6.339756,4.63583E+18,0.646237,-0.271054,0.626465,0.341246,-9.827182,-0.684283,-0.780828,0.075489,0.03389,-0.043017,39.744201,20.850245,3.437825,4.63583E+18,-0.581565,-0.404403,-0.605697,0.362452,0
-9.911067,-1.503831,0.535175,-0.080485,-0.176212,0.188485,41.823908,2.417066,16.394543,4.63583E+18,0.753372,-0.069203,0.648503,-0.08417,-9.575807,1.289848,1.043899,0.074175,-0.139974,-0.106109,40.003662,-21.900082,6.373864,4.63583E+18,0.646838,-0.270852,0.626115,0.34091,-9.79855,-0.546452,-0.814124,0.069527,0.02146,-0.05265,39.585505,20.850245,3.503525,4.63583E+18,-0.581262,-0.404485,-0.60583,0.362624,0
-9.879086,-1.549363,0.588274,-0.079823,-0.166022,0.188282,41.900446,2.417066,16.109382,4.63583E+18,0.753856,-0.068718,0.648086,-0.083453,-9.536855,1.199737,0.892219,0.088499,-0.132388,-0.111951,40.050335,-21.883746,6.207106,4.63583E+18,0.647444,-0.270638,0.625798,0.340513,-9.778354,-0.379102,-0.769291,0.048612,0.008235,-0.058729,39.474746,20.874211,3.411653,4.63583E+18,-0.581019,-0.404481,-0.605973,0.36278,0
-9.831239,-1.580368,0.607073,-0.08167,-0.150173,0.191113,41.920223,2.238862,15.941535,4.63583E+18,0.754296,-0.068225,0.647719,-0.082727,-9.509027,1.092207,0.800481,0.083928,-0.116727,-0.110271,40.278144,-21.798297,6.109449,4.63583E+18,0.648,-0.270453,0.625519,0.340114,-9.757709,-0.341126,-0.724684,0.020783,0.003554,-0.062632,39.466534,20.923489,3.222754,4.63583E+18,-0.559781,-0.437428,-0.582762,0.394577,0
-9.725654,-1.586962,0.592551,-0.078349,-0.127337,0.195385,41.929133,2.05709,16.069921,4.63583E+18,0.754676,-0.067704,0.647423,-0.082003,-9.563061,1.024875,0.830103,0.088153,-0.107523,-0.106407,40.39018,-21.729177,6.030457,4.63583E+18,0.648532,-0.27026,0.625274,0.339703,-9.769916,-0.486934,-0.679621,0.006409,0.002875,-0.065876,39.470527,20.923489,3.254702,4.63583E+18,-0.559531,-0.437419,-0.582889,0.394753,0
-9.603591,-1.60478,0.577047,-0.067552,-0.126157,0.201216,41.870068,1.95186,16.26852,4.63583E+18,0.755057,-0.067132,0.647127,-0.08129,-9.580479,1.078916,0.851093,0.094453,-0.099842,-0.104474,40.321053,-21.745503,6.030457,4.63582E+18,0.649047,-0.270056,0.625061,0.339273,-9.770144,-0.698672,-0.695365,0.014095,0,-0.067253,39.506692,20.899531,3.352357,4.63583E+18,-0.559273,-0.437419,-0.583001,0.394953,0
-9.517148,-1.655924,0.609386,-0.059411,-0.112586,0.205287,41.731156,1.92877,16.250023,4.63583E+18,0.755405,-0.066519,0.646872,-0.08059,-9.568272,1.103331,0.928309,0.09431,-0.092113,-0.10361,40.304727,-21.798305,6.049115,4.63582E+18,0.649541,-0.26986,0.62487,0.338837,-9.753716,-0.818127,-0.724692,0.042134,0.001048,-0.073662,39.560202,20.874196,3.354201,4.63583E+18,-0.558951,-0.43747,-0.583081,0.395235,0
-9.417181,-1.690232,0.649304,-0.048326,-0.099799,0.209271,41.741736,1.866409,15.947468,4.63583E+18,0.755722,-0.065856,0.646654,-0.079911,-9.560728,1.095101,0.87427,0.103046,-0.086616,-0.101978,40.2356,-21.698866,6.14677,4.63582E+18,0.650027,-0.269645,0.624707,0.338376,-9.753716,-0.741585,-0.675631,0.075676,0.004602,-0.077625,39.524042,20.975385,3.25469,4.63583E+18,-0.558552,-0.437597,-0.58312,0.395602,0
-9.342951,-1.652287,0.668108,-0.037847,-0.09876,0.214323,41.877336,1.843318,15.702676,4.63583E+18,0.75604,-0.065146,0.646436,-0.079245,-9.558957,0.98824,0.868496,0.094706,-0.076344,-0.095473,40.251907,-21.570482,6.242082,4.63582E+18,0.650468,-0.269449,0.624567,0.337943,-9.7138,-0.642768,-0.679157,0.100612,0.004334,-0.079002,39.446577,21.030296,3.384278,4.63583E+18,-0.558106,-0.437776,-0.58312,0.396031,0
-9.344271,-1.653607,0.698129,-0.031352,-0.082971,0.215766,41.982575,1.780967,15.792407,4.63583E+18,0.756317,-0.064407,0.646265,-0.078597,-9.509567,1.060937,0.930093,0.088248,-0.069022,-0.097201,40.335037,-21.584467,6.294912,4.63582E+18,0.650884,-0.269285,0.624436,0.337513,-9.667552,-0.69112,-0.800038,0.142613,0.003799,-0.089949,39.429438,20.847678,3.483812,4.63583E+18,-0.557643,-0.437913,-0.583153,0.396483,0
-9.341964,-1.624579,0.654588,-0.019777,-0.076907,0.215766,42.068023,1.757866,16.050068,4.63583E+18,0.75658,-0.063629,0.646109,-0.077981,-9.52122,1.162034,0.960944,0.083665,-0.066274,-0.097201,40.394299,-21.627413,6.169845,4.63582E+18,0.651288,-0.269138,0.624305,0.337092,-9.753475,-0.756859,-0.936461,0.220274,0.023701,-0.108148,39.530599,20.743407,3.38616,4.63583E+18,-0.556959,-0.43822,-0.583137,0.397129,0
-9.463345,-1.58466,0.652597,-0.012905,-0.070673,0.212649,42.269242,1.757866,16.12598,4.63583E+18,0.756827,-0.062836,0.645968,-0.077396,-9.572933,1.204517,1.06614,0.068917,-0.061545,-0.099036,40.377995,-21.527997,5.914166,4.63582E+18,0.651666,-0.269042,0.624165,0.3367,-9.734255,-0.748882,-0.815116,0.275804,0.045454,-0.117845,39.581599,21.001811,3.348334,4.63583E+18,-0.556104,-0.438667,-0.583095,0.397893,0
-9.598632,-1.592568,0.641387,-0.005515,-0.068361,0.213831,42.335274,1.704427,16.12598,4.63583E+18,0.757068,-0.062016,0.645832,-0.076827,-9.587467,1.361437,1.1446,0.054828,-0.058594,-0.107222,40.308846,-21.366989,5.853761,4.63582E+18,0.652031,-0.269009,0.624003,0.336318,-9.643848,-0.75637,-0.663677,0.288072,0.060122,-0.11682,39.438621,21.34204,3.346052,4.63583E+18,-0.555054,-0.439371,-0.582912,0.39885,0
-9.693982,-1.643699,0.643691,0.010043,-0.058231,0.210022,42.157157,1.55994,16.134886,4.63583E+18,0.757285,-0.061155,0.645721,-0.076314,-9.618864,1.454439,1.198083,0.041504,-0.054222,-0.109766,40.308846,-21.214709,5.949091,4.63582E+18,0.652373,-0.269025,0.623832,0.335959,-9.651824,-0.809676,-0.646503,0.282055,0.061668,-0.112875,39.408997,21.295901,3.158953,4.63583E+18,-0.554079,-0.439981,-0.582803,0.399693,0
-9.734904,-1.686923,0.673709,0.035993,-0.054476,0.209068,42.091125,1.45138,16.004606,4.63583E+18,0.757497,-0.060213,0.645612,-0.075875,-9.686876,1.525351,1.252709,0.034485,-0.058087,-0.11302,40.292559,-21.185676,6.055476,4.63582E+18,0.652722,-0.269064,0.623636,0.335614,-9.67225,-0.809922,-0.707783,0.269651,0.050987,-0.109016,39.490457,21.110095,3.059333,4.63583E+18,-0.553234,-0.440441,-0.582765,0.40041,0
-9.732602,-1.71464,0.701425,0.057041,-0.056813,0.207019,42.153464,1.428266,15.883833,4.63583E+18,0.757719,-0.059211,0.645488,-0.0755,-9.784543,1.56079,1.22131,0.025074,-0.059002,-0.11297,40.22572,-21.346712,6.232188,4.63582E+18,0.653062,-0.269126,0.623425,0.335294,-9.692431,-0.765575,-0.732444,0.251494,0.04205,-0.102542,39.53978,21.243382,3.184894,4.63583E+18,-0.552454,-0.44086,-0.582725,0.401084,0
-9.7293,-1.747957,0.699125,0.078314,-0.049889,0.202257,42.114247,1.37484,15.928652,4.63583E+18,0.757926,-0.058152,0.645378,-0.075198,-9.861255,1.487553,1.162605,0.018566,-0.054933,-0.117242,40.265842,-21.468745,6.276332,4.63582E+18,0.653391,-0.269223,0.623211,0.334975,-9.713106,-0.644236,-0.716496,0.224961,0.034267,-0.101844,39.460037,21.423501,3.2484,4.63583E+18,-0.551627,-0.441374,-0.582581,0.401865,0
-9.7293,-1.81129,0.740342,0.105419,-0.043103,0.200812,42.153454,1.230367,15.892748,4.63583E+18,0.758119,-0.05701,0.645278,-0.074975,-9.867657,1.421288,1.125407,0.01887,-0.051322,-0.121718,40.438494,-21.367013,6.109508,4.63582E+18,0.653716,-0.269335,0.623001,0.334639,-9.708871,-0.488797,-0.675643,0.180126,0.020404,-0.09936,39.267732,21.444923,3.09321,4.63583E+18,-0.55096,-0.441709,-0.582519,0.402502,0
-9.640261,-1.857822,0.810283,0.148283,-0.005819,0.20237,42.292329,1.184118,15.798393,4.63583E+18,0.758242,-0.055889,0.645268,-0.074669,-9.960075,1.410243,1.11204,0.01119,-0.047609,-0.127669,40.628565,-21.261222,6.030457,4.63582E+18,0.654031,-0.269489,0.622785,0.334302,-9.709124,-0.45142,-0.6592,0.131737,0.005429,-0.096155,39.265964,21.415263,3.087206,4.63583E+18,-0.550424,-0.441914,-0.582498,0.40304,0
-9.589423,-1.858831,0.741085,0.196341,0.058885,0.207622,42.219551,1.246431,15.914394,4.63583E+18,0.758182,-0.05441,0.645462,-0.074693,-10.054251,1.493952,0.987644,0.001425,-0.050203,-0.134993,40.622174,-21.399578,6.030457,4.63582E+18,0.654352,-0.269685,0.622539,0.333974,-9.688694,-0.547813,-0.6592,0.086742,-0.00704,-0.092602,39.381084,21.524623,3.274301,4.63583E+18,-0.550008,-0.442001,-0.582519,0.403482,0
-9.725227,-1.873327,0.521108,0.22104,0.070186,0.213251,42.114271,1.331877,15.958383,4.63583E+18,0.758097,-0.052835,0.645684,-0.074767,-10.022869,1.492807,0.853376,-0.009868,-0.051016,-0.139366,40.53673,-21.336846,6.028134,4.63583E+18,0.654668,-0.269922,0.62227,0.333664,-9.712344,-0.747616,-0.667168,0.061671,-0.01844,-0.087981,39.249606,21.60363,3.318214,4.63583E+18,-0.549674,-0.442022,-0.582548,0.403873,0
-9.94727,-1.862136,0.407163,0.23239,0.018221,0.214698,42.153441,1.292707,15.821545,4.63583E+18,0.758153,-0.051237,0.645736,-0.074857,-9.950215,1.392234,0.735358,-0.007222,-0.055085,-0.152235,40.481481,-21.021187,6.036837,4.63583E+18,0.655015,-0.270179,0.62198,0.333316,-9.802029,-0.878417,-0.663699,0.05099,-0.029469,-0.081595,38.926456,21.494285,3.045689,4.63583E+18,-0.549396,-0.442017,-0.582556,0.404245,0
-10.018972,-1.855525,0.444045,0.260695,-0.028039,0.218592,42.238889,1.091542,15.923289,4.63583E+18,0.758339,-0.049553,0.645633,-0.075,-9.837434,1.317257,0.686528,-0.011698,-0.057883,-0.16139,40.540787,-20.846151,6.097322,4.63583E+18,0.655377,-0.270468,0.621665,0.332958,-9.847391,-0.951662,-0.630544,0.043097,-0.038779,-0.073399,38.947004,21.439152,2.880432,4.63583E+18,-0.549168,-0.441999,-0.582539,0.404598,0
-9.986674,-1.775416,0.54399,0.285039,-0.04079,0.21926,42.199724,0.900808,15.979491,4.63583E+18,0.758562,-0.047795,0.64548,-0.075204,-9.785099,1.180655,0.635377,-0.01338,-0.059358,-0.172123,40.54311,-21.014727,6.001988,4.63582E+18,0.655754,-0.270787,0.621332,0.332577,-9.803322,-0.977111,-0.662923,0.040612,-0.042703,-0.066968,39.28585,21.573946,2.957656,4.63583E+18,-0.548965,-0.441984,-0.582506,0.404937,0
-9.955647,-1.701154,0.59155,0.302998,-0.034648,0.21897,42.176579,0.916825,15.774768,4.63583E+18,0.758769,-0.045979,0.645338,-0.075459,-9.828684,1.036503,0.590599,0.000302,-0.061343,-0.177313,40.580857,-21.096784,5.932798,4.63582E+18,0.656159,-0.27108,0.621006,0.332148,-9.713373,-0.856092,-0.69184,0.032531,-0.047649,-0.063392,39.394339,21.631519,3.051064,4.63583E+18,-0.548796,-0.44195,-0.58247,0.405255,0
-9.842247,-1.684622,0.500275,0.315413,-0.029708,0.220528,42.114285,0.815386,15.698721,4.63583E+18,0.758963,-0.044118,0.645207,-0.075743,-9.864783,0.92312,0.624298,0.01515,-0.059154,-0.178938,40.72966,-20.836397,5.949048,4.63582E+18,0.656576,-0.27134,0.620705,0.331673,-9.696398,-0.676176,-0.703523,0.010888,-0.056543,-0.062998,39.263777,21.631519,3.029534,4.63583E+18,-0.548689,-0.441851,-0.58245,0.405537,0
-9.713564,-1.631233,0.410493,0.331544,-0.031176,0.213321,42.100023,0.537716,15.778803,4.63583E+18,0.759159,-0.042226,0.645061,-0.076093,-9.740413,0.894072,0.713762,0.036819,-0.058044,-0.185655,40.841945,-20.585708,5.999698,4.63582E+18,0.657024,-0.271559,0.62043,0.331123,-9.733282,-0.618333,-0.728727,-0.017254,-0.065808,-0.065505,39.197971,21.679294,2.772399,4.63583E+18,-0.548651,-0.441669,-0.582458,0.405776,0
-9.609286,-1.673664,0.363943,0.363717,-0.032044,0.198746,42.21901,0.629636,15.799689,4.63583E+18,0.759356,-0.040272,0.644898,-0.076576,-9.615406,0.852199,0.867823,0.048473,-0.043901,-0.185804,40.758812,-20.701312,5.904355,4.63582E+18,0.657448,-0.271765,0.620209,0.330525,-9.753448,-0.650706,-0.683881,-0.041518,-0.075397,-0.066225,39.197971,21.778008,2.649007,4.63583E+18,-0.548678,-0.441415,-0.582485,0.405976,0
-9.573916,-1.643453,0.282847,0.392533,-0.038272,0.179613,42.199759,0.811469,15.725213,4.63583E+18,0.759564,-0.038281,0.644699,-0.077196,-9.553149,0.849271,1.004431,0.048579,-0.034031,-0.190739,40.699482,-20.882835,5.816579,4.63582E+18,0.657852,-0.271998,0.620009,0.329903,-9.78211,-0.715457,-0.643279,-0.056217,-0.08436,-0.064832,39.197971,21.754126,2.70871,4.63583E+18,-0.548757,-0.441114,-0.582515,0.406154,0
-9.597293,-1.561311,0.202978,0.422061,-0.063164,0.156983,41.998654,0.801141,15.769891,4.63583E+18,0.759834,-0.036265,0.644406,-0.077963,-9.559636,0.888203,1.146257,0.03598,-0.026609,-0.192929,40.713388,-20.751049,5.716622,4.63582E+18,0.658226,-0.272281,0.61981,0.329298,-9.802277,-0.85291,-0.60639,-0.052852,-0.084082,-0.06056,39.22583,21.680885,2.832118,4.63583E+18,-0.548838,-0.440829,-0.582533,0.406327,0
-9.616122,-1.440282,0.298753,0.447588,-0.078571,0.133485,42.056967,0.781274,15.79638,4.63583E+18,0.760137,-0.034236,0.644049,-0.078871,-9.428292,0.937033,1.256743,0.006883,-0.015265,-0.191604,40.78895,-20.484022,5.629931,4.63582E+18,0.658535,-0.272656,0.619603,0.328759,-9.82696,-1.036816,-0.60612,-0.023483,-0.076954,-0.058724,39.255572,21.631519,2.832118,4.63583E+18,-0.548851,-0.440627,-0.582516,0.406553,0
-9.50381,-1.394957,0.448536,0.465636,-0.061723,0.110767,42.272321,0.896897,15.654075,4.63583E+18,0.760385,-0.032207,0.643733,-0.079902,-9.257388,0.925606,1.329368,-0.016725,-0.005652,-0.192929,40.872083,-20.484022,5.63982,4.63582E+18,0.658793,-0.273112,0.619388,0.328267,-9.783193,-1.087001,-0.618599,0.017573,-0.070545,-0.059144,39.174099,21.655392,2.804266,4.63583E+18,-0.548773,-0.440529,-0.582444,0.406868,0
-9.434053,-1.293802,0.399349,0.481659,-0.037353,0.092226,42.273012,0.93997,15.529903,4.63583E+18,0.76056,-0.030168,0.643483,-0.081037,-9.1282,0.596787,1.449124,-0.038574,0.005786,-0.190996,40.931423,-20.484022,5.656043,4.63582E+18,0.658994,-0.273639,0.619177,0.327823,-9.652895,-1.013759,-0.606392,0.047156,-0.064485,-0.049974,39.148598,21.704763,2.774514,4.63583E+18,-0.548642,-0.44053,-0.582319,0.407223,0
-9.335164,-1.230677,0.250585,0.50313,-0.02475,0.075913,42.258719,1.002236,15.636829,4.63583E+18,0.760694,-0.028102,0.64326,-0.082283,-9.114463,0.152199,1.468615,-0.083964,0.028054,-0.194997,40.947644,-20.451581,5.762348,4.63582E+18,0.659091,-0.274331,0.61896,0.32746,-9.558672,-0.996204,-0.610095,0.071421,-0.05984,-0.034277,39.225813,21.653058,2.772458,4.63583E+18,-0.548481,-0.440632,-0.582134,0.407591,0
-9.204206,-1.158482,0.091903,0.526628,-0.034105,0.059114,42.262032,1.141045,15.819924,4.63583E+18,0.760846,-0.026009,0.642994,-0.083645,-8.8152,0.375718,1.097805,-0.095543,0.06107,-0.217387,41.030771,-20.32933,5.92059,4.63582E+18,0.65912,-0.275157,0.618792,0.327027,-9.573756,-1.081931,-0.62683,0.087168,-0.057332,-0.022851,39.231719,21.546066,2.617188,4.63583E+18,-0.548381,-0.440695,-0.581989,0.407867,0
-9.132189,-1.010792,0.031044,0.536118,-0.045456,0.029576,42.262032,1.068514,15.807376,4.63583E+18,0.761013,-0.02397,0.642681,-0.085124,-8.517819,0.635453,0.811364,-0.07396,0.087807,-0.224716,41.090118,-20.366166,5.939107,4.63582E+18,0.659114,-0.275979,0.618717,0.326487,-9.703778,-1.127058,-0.59844,0.095017,-0.054524,-0.012915,39.069052,21.569927,2.555324,4.63583E+18,-0.548182,-0.440939,-0.581716,0.40826,0
-9.163391,-0.822109,0.015523,0.5365,-0.055069,-0.01005,42.137539,1.01653,15.579651,4.63583E+18,0.761186,-0.02204,0.64233,-0.086729,-8.633781,0.039986,0.942285,-0.052268,0.119283,-0.22827,41.041506,-20.16748,5.997416,4.63582E+18,0.659056,-0.276792,0.618754,0.325846,-9.822424,-1.087578,-0.577724,0.09899,-0.048116,-0.003229,38.98563,21.61931,2.655,4.63583E+18,-0.547995,-0.441198,-0.581455,0.408602,0
-9.277782,-0.706821,0.029992,0.513646,-0.05379,-0.040037,42.091125,1.137706,15.49451,4.63583E+18,0.761339,-0.020263,0.641984,-0.088368,-8.97876,0.230486,0.986915,0.038199,0.112818,-0.229171,40.849974,-19.894064,5.889857,4.63582E+18,0.659119,-0.277351,0.618894,0.324976,-9.867558,-0.945065,-0.601859,0.091312,-0.045186,0.000671,39.051483,21.61931,2.844325,4.63583E+18,-0.547825,-0.44145,-0.581208,0.408909,0
-9.367602,-0.683615,0.063299,0.472555,-0.020438,-0.063338,42.153372,1.121873,15.63347,4.63583E+18,0.761386,-0.018667,0.641754,-0.089973,-9.074093,0.534811,1.213976,0.098543,0.115947,-0.197719,40.965503,-19.838709,5.829239,4.63582E+18,0.6592,-0.277667,0.61916,0.324033,-9.867839,-0.882346,-0.654662,0.07482,-0.049458,0.004273,39.01968,21.647138,2.752891,4.63583E+18,-0.547701,-0.441667,-0.580972,0.409177,0
-9.414166,-0.7992,0.073244,0.434698,0.00857,-0.095103,42.238818,1.098666,15.686513,4.63583E+18,0.761336,-0.017266,0.641625,-0.091579,-9.198861,0.564242,1.554966,0.128931,0.13308,-0.184407,41.193435,-19.898067,5.982404,4.63582E+18,0.659254,-0.277888,0.619528,0.323028,-9.831505,-0.971761,-0.695822,0.07467,-0.051992,0.004968,39.029328,21.704763,2.527789,4.63583E+18,-0.547583,-0.441883,-0.580727,0.409449,0
-9.459679,-0.940109,0.073244,0.416565,0.004841,-0.093787,42.199795,1.338717,15.606496,4.63583E+18,0.761292,-0.015922,0.641489,-0.093132,-9.422444,0.690807,1.597887,0.136723,0.12033,-0.158423,41.289676,-19.884189,6.296707,4.63582E+18,0.659314,-0.278003,0.619902,0.322089,-9.798284,-1.017765,-0.695822,0.084706,-0.053009,0.007799,39.237412,21.704763,2.421905,4.63583E+18,-0.547453,-0.442128,-0.580456,0.409743,0
-9.641869,-1.109954,0.179934,0.397814,-0.009045,-0.062496,42.229924,1.543846,15.49663,4.63583E+18,0.761292,-0.014559,0.641316,-0.094535,-9.337637,0.408632,1.669075,0.141378,0.134474,-0.1282,41.15347,-19.838701,6.25212,4.63582E+18,0.659301,-0.278045,0.620355,0.321204,-9.806808,-0.936868,-0.69185,0.083069,-0.057655,0.009986,39.292818,21.704763,2.356029,4.63583E+18,-0.547341,-0.442366,-0.580173,0.410036,0
-9.891591,-1.3553,0.344204,0.371784,0.011298,-0.032113,42.249825,1.533618,15.475671,4.63583E+18,0.761245,-0.013189,0.641217,-0.095773,-9.194117,-0.101357,1.513349,0.168573,0.143132,-0.104153,41.177236,-19.884196,6.122197,4.63582E+18,0.659265,-0.277963,0.620895,0.320305,-9.774452,-0.790975,-0.667729,0.063972,-0.061206,0.00785,39.134136,21.728592,2.391772,4.63583E+18,-0.547269,-0.442548,-0.579919,0.410294,0
-9.934575,-1.428266,0.195087,0.336239,0.023406,-0.027678,42.196492,1.575938,15.612317,4.63583E+18,0.761164,-0.011917,0.641169,-0.096903,-9.006372,-0.410806,1.311082,0.206826,0.144751,-0.073377,41.250482,-19.808635,6.23605,4.63582E+18,0.659227,-0.277697,0.621526,0.319389,-9.733565,-0.687,-0.618899,0.035454,-0.065826,0.006061,39.03104,21.754179,2.493696,4.63583E+18,-0.54726,-0.442652,-0.579708,0.410494,0
-9.782396,-1.339377,0.050963,0.305563,-0.008099,-0.051396,42.229913,1.776948,15.795432,4.63583E+18,0.761153,-0.010817,0.641031,-0.098025,-8.810437,-0.551643,1.053774,0.242991,0.152688,-0.042868,41.293681,-19.723199,6.384472,4.63582E+18,0.659169,-0.277263,0.622261,0.318453,-9.721065,-0.800252,-0.605813,0.024761,-0.066997,0.002908,39.063104,21.728592,2.491775,4.63583E+18,-0.547268,-0.44272,-0.579518,0.410677,0
-9.507068,-1.270635,0.21109,0.285568,0.000706,-0.066817,42.249825,1.905543,15.907434,4.63583E+18,0.761109,-0.009819,0.640927,-0.099142,-8.659324,-0.60313,0.710649,0.272755,0.160657,-0.010361,41.240573,-19.653919,6.365988,4.63582E+18,0.65908,-0.276673,0.623094,0.31752,-9.741213,-0.923497,-0.666847,0.050614,-0.057783,-0.006653,39.084722,21.805804,2.368236,4.63583E+18,-0.547188,-0.442841,-0.579322,0.410928,0
-9.361905,-1.301798,0.351868,0.27859,0.027208,-0.065541,42.1965,1.804349,15.797354,4.63583E+18,0.760993,-0.00883,0.640909,-0.100238,-8.513834,-0.83443,0.491911,0.302379,0.178469,0.021975,41.309853,-19.686275,6.323791,4.63582E+18,0.658934,-0.275941,0.624051,0.316578,-9.761952,-0.880413,-0.688177,0.074449,-0.049482,-0.017064,39.078685,21.839636,2.364266,4.63583E+18,-0.547027,-0.443005,-0.579124,0.411245,0
-9.303118,-1.336172,0.369543,0.27072,0.057507,-0.061756,42.05217,1.633457,15.614254,4.63583E+18,0.760795,-0.007843,0.640989,-0.101302,-8.474909,-1.092062,0.393608,0.35445,0.190419,0.065098,41.293689,-19.824823,6.572183,4.63582E+18,0.658759,-0.274969,0.625158,0.315604,-9.729892,-0.737006,-0.650963,0.063228,-0.05055,-0.020964,39.237381,21.766392,2.356029,4.63583E+18,-0.546883,-0.443132,-0.57895,0.411546,0
-9.316496,-1.25394,0.392884,0.247886,0.094998,-0.061662,42.005676,1.649175,15.635539,4.63583E+18,0.760495,-0.006914,0.641197,-0.102305,-8.430696,-1.24615,0.356325,0.406561,0.204854,0.110165,41.2244,-19.808654,6.9767,4.63582E+18,0.658544,-0.273755,0.626422,0.314601,-9.688408,-0.687885,-0.639357,0.033777,-0.054396,-0.025609,39.316681,21.764593,2.296501,4.63583E+18,-0.546795,-0.443174,-0.578825,0.411793,0
-9.353126,-1.149621,0.447294,0.219331,0.13375,-0.067398,42.067904,1.859104,15.786558,4.63583E+18,0.760086,-0.006074,0.641538,-0.103251,-8.403976,-1.352714,0.370839,0.440912,0.2248,0.157099,41.2244,-19.709364,7.018948,4.63582E+18,0.658252,-0.272348,0.627836,0.313612,-9.708854,-0.687281,-0.594194,0.000906,-0.061232,-0.028119,39.155828,21.911082,2.172918,4.63583E+18,-0.546778,-0.443125,-0.578746,0.411981,0
-9.416423,-1.078627,0.472772,0.192823,0.169094,-0.063984,42.153362,1.982114,15.904128,4.63583E+18,0.759582,-0.005294,0.642002,-0.104116,-8.346606,-1.312835,0.374494,0.460859,0.239289,0.205536,41.162135,-19.596818,6.913601,4.63582E+18,0.657878,-0.270778,0.629368,0.312686,-9.697253,-0.779758,-0.593892,-0.012524,-0.060217,-0.028493,38.917808,21.958364,2.176886,4.63583E+18,-0.546783,-0.443045,-0.578692,0.412135,0
-9.445214,-0.999809,0.413853,0.160964,0.161266,-0.071288,42.229924,2.002014,15.788409,4.63583E+18,0.759094,-0.004638,0.642454,-0.104918,-8.22779,-1.163355,0.268273,0.474746,0.256583,0.243269,40.86481,-19.682276,7.231304,4.63582E+18,0.65742,-0.269092,0.631004,0.311805,-9.648122,-0.943019,-0.602436,-0.000535,-0.051405,-0.027425,38.919946,21.803647,2.181158,4.63583E+18,-0.546747,-0.44301,-0.578637,0.412298,0
-9.404082,-0.772129,0.408416,0.131453,0.147103,-0.071659,42.187596,2.002014,15.735343,4.63583E+18,0.758641,-0.004083,0.642873,-0.105642,-8.234707,-1.083475,0.096032,0.489235,0.274134,0.285243,40.766079,-19.781555,7.67276,4.63582E+18,0.656874,-0.267276,0.63275,0.310979,-9.61974,-1.065093,-0.621659,0.053458,-0.028788,-0.030522,39.023102,21.883282,2.172918,4.63583E+18,-0.546551,-0.443128,-0.578546,0.412557,0
-9.271932,-0.535815,0.459498,0.094348,0.150422,-0.074387,42.111035,2.126464,15.797568,4.63583E+18,0.758177,-0.003652,0.643319,-0.106275,-8.257495,-1.136914,-0.007183,0.510965,0.287474,0.317607,40.913246,-19.942552,7.875814,4.63582E+18,0.656269,-0.265331,0.634591,0.310167,-9.591053,-1.191128,-0.675989,0.168627,0.005793,-0.039842,39.010896,22.305662,2.200684,4.63583E+18,-0.546043,-0.443547,-0.578353,0.413051,0
-9.122125,-0.396085,0.529425,0.05687,0.167524,-0.082839,42.091125,2.288479,15.954135,4.63583E+18,0.757662,-0.003354,0.643835,-0.106834,-8.255446,-1.117968,-0.222974,0.555645,0.291059,0.341366,40.960194,-20.097311,7.727286,4.63582E+18,0.655668,-0.263204,0.636521,0.309296,-9.555052,-1.202465,-0.575301,0.233659,0.027398,-0.037868,39.034379,22.258134,2.262335,4.63583E+18,-0.545367,-0.444153,-0.578093,0.413656,0
-9.002314,-0.304004,0.496004,0.013557,0.181595,-0.090896,42.153344,2.331614,16.003906,4.63583E+18,0.757104,-0.003209,0.644414,-0.107303,-8.406557,-0.730552,-0.353335,0.599409,0.287355,0.358838,40.759307,-20.16663,7.851786,4.63582E+18,0.655096,-0.260903,0.63851,0.308356,-9.513223,-0.997973,-0.447708,0.216038,0.024676,-0.021526,39.052724,21.833598,2.242818,4.63583E+18,-0.544759,-0.444751,-0.577828,0.414185,0
-8.945778,-0.307434,0.342771,-0.029262,0.166125,-0.105372,42.114363,2.278287,15.941691,4.63583E+18,0.75658,-0.003245,0.644962,-0.107701,-8.605096,-0.362927,-0.430497,0.580969,0.303234,0.358734,40.459697,-20.136673,8.476356,4.63582E+18,0.654455,-0.258671,0.640512,0.307446,-9.581876,-0.971067,-0.475153,0.200995,0.018798,-0.006117,38.846765,21.694648,2.153404,4.63583E+18,-0.544219,-0.445341,-0.577547,0.414652,0
-9.01581,-0.397383,0.275202,-0.068586,0.127269,-0.117018,42.028913,2.196155,15.856239,4.63583E+18,0.756154,-0.003454,0.645406,-0.108029,-8.945522,0.435144,-0.551637,0.547493,0.313512,0.336445,40.304924,-19.99411,8.862575,4.63582E+18,0.653772,-0.2566,0.642469,0.306549,-9.663984,-1.245025,-0.636544,0.280602,0.03428,-0.004537,38.592512,21.978104,2.02404,4.63583E+18,-0.543495,-0.446143,-0.577158,0.415281,0
-9.187874,-0.596108,0.312997,-0.107036,0.087367,-0.125076,42.067882,2.11071,15.904096,4.63583E+18,0.755831,-0.003825,0.645741,-0.108277,-9.387248,1.167753,-0.515483,0.49268,0.321855,0.317946,40.221783,-19.93469,8.844151,4.63582E+18,0.653026,-0.254736,0.644353,0.305737,-9.68047,-1.566827,-0.782219,0.455801,0.0628,-0.014178,38.625669,22.321171,1.797008,4.63583E+18,-0.542357,-0.44737,-0.576544,0.416301,0
-9.392073,-0.881359,0.409577,-0.143156,0.05669,-0.134108,42.028923,2.265193,16.05507,4.63583E+18,0.755585,-0.004347,0.645995,-0.108456,-9.855031,1.563901,-0.252919,0.428775,0.323892,0.294588,40.178476,-19.964624,8.783336,4.63582E+18,0.652232,-0.25311,0.646132,0.305029,-9.644798,-1.332338,-0.668393,0.512252,0.07699,-0.01125,38.958586,22.462254,1.626916,4.63583E+18,-0.54108,-0.448756,-0.575854,0.417424,0
-9.635144,-1.230976,0.581648,-0.173739,0.036694,-0.144498,42.005676,2.456023,16.101564,4.63583E+18,0.755387,-0.005003,0.6462,-0.108585,-10.362185,2.079563,0.084252,0.352681,0.304746,0.277841,40.293839,-20.139414,8.917809,4.63582E+18,0.651426,-0.251709,0.64774,0.304498,-9.622119,-0.779866,-0.589918,0.427544,0.059056,0.012969,39.254087,22.337501,1.748025,4.63583E+18,-0.540047,-0.449973,-0.575225,0.418319,0
-9.864821,-1.534969,0.77695,-0.200244,0.028157,-0.145072,42.067871,2.502518,16.101564,4.63583E+18,0.755211,-0.005748,0.64639,-0.108645,-10.736004,2.553339,0.374023,0.280451,0.29171,0.264542,40.478151,-20.385858,9.192371,4.63582E+18,0.650593,-0.250523,0.649204,0.304138,-9.761006,-0.625269,-0.598163,0.320183,0.025886,0.036122,39.296267,22.105551,1.87994,4.63583E+18,-0.539336,-0.450941,-0.574666,0.418962,0
-10.057892,-1.771305,0.865643,-0.215772,0.023594,-0.136426,42.037818,2.502518,16.234838,4.63583E+18,0.75505,-0.00652,0.646573,-0.108634,-11.053188,3.010285,0.526512,0.20372,0.264745,0.238366,40.372708,-20.623793,9.369273,4.63582E+18,0.649784,-0.24958,0.650468,0.303942,-9.811107,-0.807745,-0.598163,0.23627,0.001901,0.059247,39.14376,21.921169,1.852198,4.63583E+18,-0.53888,-0.451732,-0.574155,0.419396,0
-10.178809,-1.955499,0.878933,-0.215861,0.014657,-0.113305,41.840185,2.564712,16.426834,4.63583E+18,0.754922,-0.007235,0.646728,-0.10855,-11.198089,3.393854,0.588257,0.100303,0.242452,0.203842,40.158456,-20.722671,9.446229,4.63582E+18,0.64897,-0.248983,0.651503,0.303955,-9.758324,-1.039648,-0.598163,0.181522,-0.010943,0.081384,38.90168,21.887226,1.73507,4.63583E+18,-0.538596,-0.45243,-0.573668,0.419674,0
-10.223157,-2.161923,0.976655,-0.207702,0.003199,-0.079317,41.773735,2.58797,16.337853,4.63583E+18,0.754841,-0.007839,0.646844,-0.108381,-11.274333,3.513255,0.609663,0.008437,0.225766,0.16708,40.075312,-20.626089,9.473123,4.63582E+18,0.648151,-0.248711,0.652338,0.304135,-9.713132,-1.192364,-0.594202,0.160887,-0.019545,0.097435,39.026173,21.841635,1.575726,4.63583E+18,-0.538398,-0.453106,-0.573166,0.419884,0
-10.265337,-2.319465,1.110932,-0.196534,0.004664,-0.046111,41.827034,2.525785,16.151424,4.63583E+18,0.754771,-0.008317,0.64696,-0.108136,-11.331655,3.25283,0.6684,-0.027834,0.208196,0.149603,39.999769,-20.794693,9.668441,4.63582E+18,0.647364,-0.248563,0.65306,0.304385,-9.704885,-1.132628,-0.593877,0.173505,-0.022778,0.108201,39.587692,21.493218,1.49755,4.63583E+18,-0.538278,-0.453727,-0.572695,0.42001,0
-10.26975,-2.480397,1.18303,-0.184007,0.021178,-0.013289,41.793678,2.502518,16.243699,4.63583E+18,0.754672,-0.00866,0.647124,-0.107822,-11.468944,2.803633,0.68503,-0.020279,0.17996,0.143256,39.914316,-20.877489,9.79016,4.63582E+18,0.646668,-0.248375,0.653708,0.304625,-9.704885,-0.918509,-0.60641,0.195385,-0.022113,0.109701,39.784889,21.302596,1.524941,4.63583E+18,-0.538118,-0.454402,-0.572184,0.420183,0
-10.275308,-2.526932,1.196326,-0.172745,0.037585,0.021375,41.889205,2.564694,16.35906,4.63583E+18,0.754544,-0.008868,0.647336,-0.10743,-11.511408,2.571163,0.539962,-0.004799,0.154928,0.131367,39.861061,-20.67934,9.613244,4.63582E+18,0.646072,-0.248145,0.654295,0.304818,-9.689047,-0.624546,-0.590243,0.19599,-0.020266,0.104736,39.330263,21.582032,1.59917,4.63583E+18,-0.537943,-0.455068,-0.571685,0.420365,0
-10.26087,-2.473641,1.134152,-0.166727,0.027669,0.051183,41.870256,2.525796,16.249106,4.63583E+18,0.754456,-0.00898,0.647514,-0.10696,-11.343691,2.544452,0.302733,0.004147,0.134108,0.113876,39.946506,-20.72531,9.55237,4.63582E+18,0.645563,-0.247913,0.654819,0.30496,-9.660016,-0.472129,-0.553952,0.175407,-0.020699,0.096249,39.514055,21.362288,1.595211,4.63583E+18,-0.537793,-0.455667,-0.571237,0.420518,0
-10.209809,-2.444806,1.09311,-0.159346,0.003002,0.079732,41.793687,2.502518,16.199224,4.63583E+18,0.754448,-0.009003,0.647613,-0.106419,-11.304055,2.510129,0.111299,0.011209,0.118212,0.092438,39.985992,-20.923489,9.631641,4.63582E+18,0.645131,-0.2477,0.655287,0.305041,-9.688055,-0.459923,-0.496878,0.148734,-0.015359,0.083778,40.223392,20.801414,1.586962,4.63583E+18,-0.537659,-0.456186,-0.57087,0.420625,0
-10.157662,-2.361562,1.148618,-0.149248,-0.028359,0.095358,41.951332,2.440359,16.128185,4.63583E+18,0.754531,-0.008967,0.647609,-0.105855,-11.285681,2.517871,-0.015354,0.000856,0.091437,0.06247,39.825016,-20.877553,9.647719,4.63582E+18,0.6448,-0.247562,0.655638,0.305098,-9.749092,-0.467507,-0.483673,0.123012,-0.011403,0.069951,39.827565,21.094328,1.594879,4.63583E+18,-0.53754,-0.45662,-0.570583,0.420694,0
-10.091078,-2.216186,1.198548,-0.141675,-0.050593,0.106816,42.248737,2.354913,16.101564,4.63583E+18,0.754679,-0.008886,0.647532,-0.105275,-11.206396,2.611548,-0.136577,-0.016095,0.057132,0.036837,39.702337,-20.711478,9.753823,4.63582E+18,0.644578,-0.247496,0.655849,0.305168,-9.794295,-0.516335,-0.532834,0.107595,-0.00895,0.052139,38.951203,21.756215,1.611377,4.63583E+18,-0.537258,-0.457193,-0.570194,0.420961,0
-10.079987,-2.146281,1.199654,-0.132158,-0.073413,0.120119,42.10442,2.100759,16.119323,4.63583E+18,0.754895,-0.008749,0.647379,-0.104677,-11.190327,2.495631,-0.148784,-0.031661,0.030693,0.010599,39.787789,-20.880087,9.914707,4.63582E+18,0.644445,-0.247509,0.655942,0.305237,-9.822329,-0.529549,-0.557247,0.101504,-0.008111,0.033665,39.02597,21.792236,1.575766,4.63583E+18,-0.537036,-0.457596,-0.569942,0.421147,0
-10.092193,-2.056394,1.231837,-0.11837,-0.099532,0.135557,41.840324,1.88993,16.205881,4.63583E+18,0.755188,-0.008539,0.647138,-0.104067,-11.100289,2.465895,-0.174761,-0.062098,0.002192,-0.01824,39.841105,-20.995172,9.906259,4.63582E+18,0.644396,-0.247647,0.65589,0.305341,-9.82797,-0.448728,-0.577705,0.098992,-0.012501,0.013341,39.3778,21.667467,1.469856,4.63583E+18,-0.536792,-0.457939,-0.569722,0.421382,0
-10.095523,-1.937653,1.254033,-0.107301,-0.125458,0.152356,42.013428,1.967604,16.289112,4.63583E+18,0.755559,-0.00826,0.646811,-0.103432,-11.0042,2.436091,-0.246441,-0.082383,-0.020235,-0.046874,39.771721,-20.935698,9.861349,4.63582E+18,0.644423,-0.247889,0.655723,0.305447,-9.722065,-0.334571,-0.578043,0.095846,-0.008575,-0.005163,39.268613,21.689276,1.344506,4.63583E+18,-0.536512,-0.458239,-0.56955,0.421645,0
-10.051135,-1.904355,1.186342,-0.099241,-0.158861,0.174107,42.156599,2.12963,16.096029,4.63583E+18,0.756056,-0.008086,0.646373,-0.102547,-10.962993,2.279688,-0.235722,-0.086384,-0.042465,-0.073241,39.785476,-20.919649,10.010071,4.63582E+18,0.64454,-0.248185,0.655463,0.305517,-9.63628,-0.272518,-0.573407,0.084217,-0.008832,-0.023696,39.16135,21.607787,1.22074,4.63583E+18,-0.536222,-0.458469,-0.569433,0.421923,0
-9.998979,-1.895478,1.150827,-0.088658,-0.199058,0.199934,42.061185,2.110782,15.882965,4.63583E+18,0.756644,-0.007652,0.645806,-0.101811,-10.901956,2.149247,-0.114392,-0.079173,-0.06423,-0.093536,39.861012,-20.818147,9.95734,4.63582E+18,0.64475,-0.24849,0.655133,0.305534,-9.591064,-0.367788,-0.598163,0.066691,-0.016655,-0.039748,39.137618,21.605738,1.315669,4.63583E+18,-0.535957,-0.458606,-0.569361,0.422208,0
-9.914647,-1.9099,1.360523,-0.069142,-0.211978,0.233627,42.017883,1.794554,15.983896,4.63583E+18,0.757281,-0.007072,0.64519,-0.10102,-10.852382,2.129478,0.042756,-0.072704,-0.087328,-0.114031,39.91666,-20.695389,9.710959,4.63582E+18,0.645056,-0.248803,0.654727,0.305503,-9.590721,-0.604701,-0.594208,0.05598,-0.022777,-0.05398,39.139519,21.708718,1.509763,4.63583E+18,-0.535703,-0.458672,-0.569323,0.42251,0
-9.79036,-1.916562,1.484854,-0.017198,-0.155865,0.266838,42.142148,1.560356,16.049403,4.63583E+18,0.757782,-0.006215,0.644729,-0.100266,-10.852382,2.276711,0.128952,-0.08646,-0.109092,-0.134993,39.85717,-20.810646,9.615593,4.63582E+18,0.645433,-0.249183,0.654224,0.305476,-9.61118,-0.704421,-0.585955,0.047781,-0.023153,-0.067203,39.298204,21.693247,1.469879,4.63583E+18,-0.535443,-0.458687,-0.569323,0.422822,0
-9.72709,-1.889937,1.261884,0.058243,-0.074014,0.285677,42.242037,1.513718,15.839734,4.63583E+18,0.758071,-0.005036,0.644494,-0.099657,-10.815704,2.317059,0.174743,-0.10528,-0.131588,-0.154219,39.873217,-20.976848,9.52785,4.63582E+18,0.645876,-0.249637,0.653615,0.305471,-9.655019,-0.667453,-0.585955,0.036499,-0.024161,-0.075778,39.350143,21.691173,1.376174,4.63583E+18,-0.535191,-0.458656,-0.569357,0.423129,0
-9.779216,-1.862191,1.021042,0.092536,-0.051271,0.294127,42.137785,1.451595,15.626638,4.63583E+18,0.758301,-0.003717,0.644315,-0.099114,-10.620405,2.125591,0.24873,-0.107281,-0.150346,-0.174046,39.95637,-20.792214,9.446239,4.63582E+18,0.646393,-0.250126,0.652932,0.305438,-9.749068,-0.702687,-0.597816,0.015889,-0.029847,-0.082533,39.179245,21.841609,1.286772,4.63583E+18,-0.534978,-0.458554,-0.569427,0.423415,0
-9.820294,-1.873275,0.849014,0.125157,-0.107958,0.2951,42.037879,1.375018,15.789638,4.63583E+18,0.758684,-0.002315,0.643942,-0.098656,-10.457162,2.014973,0.257107,-0.104278,-0.170105,-0.196677,40.013578,-20.577851,9.454653,4.63582E+18,0.646995,-0.250643,0.652176,0.305357,-9.770575,-0.829053,-0.630482,-0.004842,-0.036947,-0.089317,39.115071,21.948912,1.22074,4.63583E+18,-0.53481,-0.458377,-0.569529,0.423681,0
-9.693856,-1.871066,0.903298,0.179135,-0.155645,0.27928,42.079996,1.417137,16.002727,4.63583E+18,0.759186,-0.000805,0.643394,-0.098391,-10.430458,1.949358,0.196073,-0.102943,-0.184125,-0.218772,39.989918,-20.494694,9.533982,4.63582E+18,0.647663,-0.251198,0.651359,0.305226,-9.658157,-0.871728,-0.635135,-0.020487,-0.043418,-0.094658,39.250053,21.948912,1.216788,4.63583E+18,-0.534678,-0.458141,-0.569655,0.423933,0
-9.377653,-1.761254,0.975463,0.241279,-0.119755,0.246272,42.156573,1.493713,15.839779,4.63583E+18,0.759577,0.000828,0.642931,-0.098398,-10.361802,1.891383,0.135046,-0.107282,-0.201346,-0.236794,39.960167,-20.432905,9.497366,4.63582E+18,0.648396,-0.251791,0.650471,0.305076,-9.493759,-0.72665,-0.602466,-0.039998,-0.0459,-0.099999,39.256463,21.948912,1.271764,4.63583E+18,-0.53458,-0.457844,-0.569821,0.424155,0
-9.1268,-1.570418,0.784741,0.300413,-0.058292,0.198021,42.229812,1.451613,15.484722,4.63583E+18,0.75978,0.002543,0.642637,-0.098717,-10.147393,1.879162,0.101478,-0.12217,-0.209891,-0.262498,40.1349,-20.422985,9.304322,4.63582E+18,0.649168,-0.252483,0.649512,0.304906,-9.500247,-0.597099,-0.585955,-0.062143,-0.049104,-0.105339,39.153094,21.948912,1.435459,4.63583E+18,-0.534525,-0.457476,-0.57003,0.42434,0
-9.149946,-1.362899,0.477365,0.344894,-0.052526,0.158881,42.258696,1.366164,15.59425,4.63583E+18,0.759949,0.004297,0.642342,-0.099278,-9.951322,1.563324,0.225822,-0.146,-0.217435,-0.281857,40.363007,-20.406967,9.173859,4.63582E+18,0.649958,-0.253281,0.648481,0.304755,-9.622321,-0.750426,-0.566201,-0.069899,-0.050925,-0.111717,39.185055,21.948912,1.469903,4.63583E+18,-0.534477,-0.457072,-0.570262,0.424524,0
-9.295299,-1.155373,0.30192,0.388297,-0.103188,0.134791,42.262032,1.289584,15.816253,4.63583E+18,0.76024,0.006101,0.641865,-0.100033,-9.910905,1.309262,0.484473,-0.182786,-0.220239,-0.291938,40.491959,-20.321518,9.269228,4.63582E+18,0.650729,-0.254202,0.647383,0.304679,-9.728588,-0.880001,-0.513067,-0.057805,-0.049512,-0.117842,39.179286,21.972614,1.344594,4.63583E+18,-0.534391,-0.456683,-0.570487,0.424749,0
-9.347535,-0.974462,0.286306,0.431606,-0.151752,0.123812,42.262032,1.3228,15.727677,4.63583E+18,0.760652,0.007993,0.641215,-0.100939,-9.619493,0.996521,0.62635,-0.18199,-0.223908,-0.291409,40.491959,-20.222351,9.286061,4.63582E+18,0.651507,-0.255114,0.646275,0.304605,-9.77418,-0.833335,-0.515943,-0.049135,-0.049449,-0.116145,39.012347,22.022156,1.22074,4.63583E+18,-0.534291,-0.456319,-0.570691,0.424991,0
-9.244423,-0.741479,0.310719,0.470448,-0.14247,0.118664,42.199936,1.520227,15.532376,4.63583E+18,0.761031,0.009997,0.640574,-0.101965,-9.23569,0.354073,0.884262,-0.137531,-0.241266,-0.251753,40.507974,-20.093386,8.986966,4.63582E+18,0.652328,-0.255775,0.645217,0.304537,-9.714579,-0.993827,-0.593495,-0.047407,-0.051994,-0.108668,38.881297,22.022156,1.193094,4.63583E+18,-0.534206,-0.455973,-0.570873,0.425226,0
-9.160036,-0.547239,0.051317,0.510157,-0.104321,0.117496,42.238664,1.649047,15.541072,4.63583E+18,0.761302,0.01214,0.640033,-0.1031,-8.840561,-0.351652,1.03608,-0.045876,-0.270635,-0.195613,40.607132,-20.091099,8.661171,4.63582E+18,0.653253,-0.255999,0.644253,0.304405,-9.575634,-1.224329,-0.630836,-0.044485,-0.053344,-0.098773,38.8278,22.022156,1.103696,4.63583E+18,-0.534136,-0.455654,-0.571027,0.425448,0
-9.214295,-0.198965,-0.456794,0.542209,-0.119314,0.115168,42.262032,1.495038,15.715208,4.63583E+18,0.761605,0.014371,0.639427,-0.104328,-8.255442,-0.688909,1.135288,-0.016655,-0.303749,-0.156954,40.765813,-20.051469,8.563522,4.63582E+18,0.654248,-0.255996,0.643277,0.304336,-9.545099,-1.229726,-0.610733,-0.047658,-0.058025,-0.081402,38.874815,22.022156,1.128434,4.63583E+18,-0.534114,-0.455361,-0.571144,0.425633,0
-9.196665,0.251522,-0.716783,0.566391,-0.140885,0.098773,42.315236,1.250912,15.568007,4.63583E+18,0.761951,0.016624,0.638739,-0.105673,-7.579541,-0.968709,1.180989,-0.138948,-0.313778,-0.148404,40.892517,-19.890491,8.484145,4.63582E+18,0.655127,-0.256291,0.642126,0.304627,-9.64707,-1.211391,-0.566215,-0.051271,-0.057712,-0.057243,38.990448,22.045844,1.3184,4.63583E+18,-0.534143,-0.455114,-0.571223,0.425753,0
-9.064692,0.70652,-0.810063,0.555458,-0.12975,0.05491,42.397346,1.237322,15.278379,4.63583E+18,0.762244,0.01873,0.638089,-0.107127,-6.78219,-1.945646,1.342891,-0.260284,-0.279875,-0.146749,40.852901,-19.767568,8.502418,4.63582E+18,0.655782,-0.256955,0.640913,0.305211,-9.724623,-1.337408,-0.524918,-0.052998,-0.054507,-0.030854,38.986499,22.123033,1.255239,4.63583E+18,-0.534214,-0.454933,-0.571263,0.425804,0
-8.9592,1.122725,-0.892175,0.50713,-0.106836,0.004123,42.473929,1.434709,15.260288,4.63583E+18,0.762451,0.020557,0.637534,-0.108612,-6.287651,-3.347114,1.307525,-0.245397,-0.243396,-0.099704,40.739893,-19.853028,8.545239,4.63582E+18,0.656295,-0.257498,0.639868,0.305844,-9.805388,-1.420373,-0.536758,-0.060756,-0.054757,-0.006321,38.954558,22.180851,1.123081,4.63583E+18,-0.534343,-0.454795,-0.571268,0.425785,0
-8.953552,1.472337,-1.084014,0.447903,-0.095751,-0.050731,42.493969,1.625638,15.416663,4.63583E+18,0.762605,0.022054,0.637042,-0.110113,-6.006174,-3.382168,2.039808,-0.079723,-0.257372,-0.002148,40.841336,-19.906488,8.333936,4.63582E+18,0.656897,-0.257309,0.639099,0.306317,-9.887997,-1.403851,-0.565487,-0.07012,-0.060852,0.022108,38.908941,22.153229,1.186219,4.63583E+18,-0.534555,-0.454691,-0.571222,0.42569,0
-8.924771,1.79306,-1.24502,0.369471,-0.093221,-0.111995,42.440775,1.610353,15.395853,4.63583E+18,0.762728,0.023138,0.636597,-0.111599,-5.359986,-3.096464,2.605574,-0.082556,-0.208256,0.051398,40.934604,-19.866702,8.087457,4.63582E+18,0.657297,-0.257048,0.638518,0.306891,-9.844606,-1.506412,-0.577693,-0.062247,-0.06095,0.056565,38.94087,22.0954,1.286843,4.63583E+18,-0.534815,-0.454685,-0.571099,0.425536,0
-8.884807,2.048391,-1.326107,0.28557,-0.077414,-0.170361,42.296606,1.649023,15.307059,4.63583E+18,0.762788,0.023808,0.636245,-0.113045,-3.323742,0.108501,1.1154,-0.310306,-0.096513,0.190584,40.706436,-20.027677,8.008057,4.63582E+18,0.656976,-0.257182,0.6381,0.308332,-9.745828,-1.796173,-0.585955,-0.027888,-0.055577,0.095393,39.037771,22.123005,1.189191,4.63583E+18,-0.535064,-0.454858,-0.570852,0.425369,0
-8.972295,2.067557,-1.263031,0.202262,-0.066136,-0.219987,42.249825,1.787657,15.345722,4.63583E+18,0.762801,0.024086,0.635972,-0.114429,-1.107866,7.051941,-0.471896,-0.805111,0.223711,0.312686,40.609341,-20.196282,7.973843,4.63582E+18,0.655112,-0.258755,0.638048,0.311077,-9.7293,-1.862481,-0.589899,0.010106,-0.054788,0.131053,39.160597,22.180851,1.091532,4.63583E+18,-0.535302,-0.455204,-0.57047,0.425212,0
-9.20408,1.705132,-1.117711,0.115847,-0.067191,-0.25535,42.311873,1.893161,15.289341,4.63583E+18,0.762806,0.023995,0.63574,-0.115696,-3.330544,8.960744,-2.95609,-1.341952,0.451165,0.355604,40.734628,-20.35726,7.788451,4.63582E+18,0.651992,-0.261968,0.637951,0.315114,-9.760846,-1.502858,-0.598163,0.016287,-0.06113,0.162406,39.135258,22.12959,1.029365,4.63583E+18,-0.535598,-0.455627,-0.570003,0.425013,0
-9.428321,1.149264,-0.959014,0.079451,-0.067586,-0.277794,42.388461,1.854512,15.126288,4.63583E+18,0.762804,0.023729,0.635526,-0.116937,-4.779097,7.641172,-3.145968,-1.510848,0.40088,0.476161,40.615764,-20.528162,7.613661,4.63582E+18,0.648637,-0.265242,0.637601,0.319971,-9.88215,-1.076537,-0.602105,-0.017625,-0.07664,0.187827,38.98218,21.970907,1.069167,4.63583E+18,-0.536041,-0.456005,-0.569514,0.424704,0
-9.600375,0.69631,-0.623065,0.083301,-0.039374,-0.29857,42.346476,1.88429,14.863423,4.63583E+18,0.762715,0.023432,0.6354,-0.118252,-4.187797,4.216274,-2.021993,-1.636861,0.603279,0.527559,40.298384,-20.728703,7.544175,4.63582E+18,0.644504,-0.268975,0.637654,0.325061,-9.950558,-0.931705,-0.602486,-0.067517,-0.097101,0.203505,39.018042,21.839806,1.162884,4.63583E+18,-0.536656,-0.456271,-0.569038,0.424279,0
-9.652712,0.390971,-0.23796,0.088071,0.032425,-0.319932,42.323067,2.090476,14.987012,4.63583E+18,0.762423,0.023129,0.635502,-0.11964,-5.555763,2.051863,-2.735274,-1.552563,0.733571,0.584759,40.042561,-21.058246,7.562401,4.63582E+18,0.640005,-0.272491,0.638199,0.329917,-9.831666,-0.880845,-0.55048,-0.117617,-0.108439,0.221907,38.997063,21.790215,1.134023,4.63583E+18,-0.537425,-0.456447,-0.56859,0.423716,0
-9.549701,0.122408,-0.072241,0.094085,0.105176,-0.339744,42.385108,2.284791,15.267783,4.63583E+18,0.761926,0.022828,0.635832,-0.121099,-7.116105,1.151088,-2.690187,-1.458516,0.851929,0.646574,40.038815,-21.387872,7.678301,4.63582E+18,0.635177,-0.275738,0.639222,0.334535,-9.790338,-0.87114,-0.487911,-0.161122,-0.120288,0.245472,38.800223,21.813859,0.8576,4.63583E+18,-0.538344,-0.456563,-0.568144,0.423022,0
-9.341191,-0.057513,-0.057691,0.124048,0.146392,-0.352766,42.40852,2.384785,15.406739,4.63583E+18,0.761308,0.022608,0.636278,-0.122673,-7.871839,0.84645,-2.860373,-1.368338,0.956013,0.660861,39.920024,-21.703765,7.818931,4.63582E+18,0.630121,-0.278839,0.640627,0.338813,-9.762753,-1.264561,-0.536355,-0.168524,-0.127008,0.267112,38.868074,21.839814,0.749836,4.63583E+18,-0.539329,-0.456703,-0.567652,0.422277,0
-9.100397,-0.071075,0.125054,0.144667,0.154106,-0.370425,42.35535,2.528919,15.421296,4.63583E+18,0.760656,0.022408,0.636738,-0.124356,-11.856099,-3.605649,-3.340439,-1.273673,1.087914,0.437932,39.661854,-21.941884,7.705346,4.63582E+18,0.625103,-0.282456,0.642218,0.342083,-9.748228,-1.606664,-0.589896,-0.155774,-0.13869,0.297607,39.227948,21.742932,0.967552,4.63583E+18,-0.540373,-0.456919,-0.567054,0.421512,0
-8.856249,-0.052176,0.337102,0.16398,0.152263,-0.39072,42.273245,2.690961,15.347059,4.63583E+18,0.759993,0.022215,0.637182,-0.126155,-15.97024,-14.805807,-1.089011,-0.592435,0.642838,0.270381,39.70739,-22.070986,7.574597,4.63582E+18,0.622297,-0.284104,0.643402,0.343606,-9.886438,-1.636182,-0.606041,-0.143166,-0.157124,0.333645,39.393291,21.541306,0.966333,4.63583E+18,-0.541499,-0.457214,-0.566323,0.420729,0
-8.77161,-0.075411,0.558985,0.174487,0.122991,-0.41644,42.187801,2.973689,15.240548,4.63583E+18,0.75939,0.021972,0.637529,-0.128065,-16.092216,-22.2828,5.129179,0.166459,0.370585,0.176943,39.860448,-22.102874,7.724651,4.63582E+18,0.621247,-0.283642,0.64485,0.343172,-10.044744,-1.619256,-0.634395,-0.144442,-0.18407,0.369446,39.444501,21.279063,0.810797,4.63583E+18,-0.542751,-0.457542,-0.565463,0.419914,0
-8.791495,-0.377832,0.702318,0.166941,0.112931,-0.427156,42.164371,3.188098,15.343325,4.63583E+18,0.758806,0.021669,0.637846,-0.129989,-12.840026,-15.21931,2.824726,0.324356,0.444913,0.011657,39.602671,-22.257822,8.103036,4.63582E+18,0.620418,-0.28332,0.646518,0.341797,-10.204216,-1.663363,-0.6592,-0.143061,-0.217215,0.413652,39.654395,21.156211,0.772223,4.63583E+18,-0.544155,-0.457918,-0.564439,0.419065,0
-9.262258,-0.940156,0.865344,0.166528,0.115549,-0.40662,42.226392,3.296982,15.526436,4.63583E+18,0.758222,0.021421,0.638167,-0.131846,-10.344472,1.863424,-2.59985,0.468521,0.48857,0.012776,39.358112,-22.297762,8.410901,4.63582E+18,0.619636,-0.282683,0.648501,0.339982,-10.223504,-1.563733,-0.69464,-0.129108,-0.251979,0.451137,39.948135,21.1066,0.830103,4.63583E+18,-0.545678,-0.458349,-0.563238,0.418228,0
-10.047589,-1.491808,0.888978,0.090184,0.083096,-0.363537,42.240963,3.550746,15.496916,4.63583E+18,0.757752,0.021027,0.638423,-0.133366,-13.142617,16.213312,-3.408336,1.031071,0.265823,0.41866,39.417706,-22.152712,8.465525,4.63582E+18,0.619533,-0.279178,0.651174,0.337952,-10.147108,-1.032121,-0.776942,-0.162255,-0.300907,0.483492,40.062335,21.031782,0.830103,4.63583E+18,-0.547434,-0.458692,-0.56192,0.41733,0
-10.783449,-2.184889,0.825795,0.059335,-0.043418,-0.303081,42.237614,3.761796,15.46678,4.63583E+18,0.757652,0.020626,0.63829,-0.134624,-13.910814,22.469669,2.265051,0.9423,0.068695,0.459851,39.385872,-22.09911,8.756177,4.63582E+18,0.61979,-0.275506,0.653247,0.336491,-10.257365,-0.693054,-0.801356,-0.238435,-0.363891,0.516672,39.903646,20.823475,0.771044,4.63583E+18,-0.549537,-0.458825,-0.560523,0.416296,0
-11.612136,-3.127754,1.381372,0.072697,-0.168666,-0.219324,42.237614,3.870707,15.59963,4.63583E+18,0.757931,0.020419,0.637746,-0.135663,-14.295206,15.29039,5.319974,-0.212488,0.355559,-0.086138,39.246803,-22.168644,8.984649,4.63582E+18,0.618699,-0.276701,0.653807,0.33643,-10.260148,-0.92577,-0.766724,-0.303624,-0.420776,0.544476,39.82369,20.641173,0.587948,4.63583E+18,-0.551941,-0.458772,-0.55905,0.415153,0
-12.243053,-4.096634,1.99769,0.119819,-0.18657,-0.095991,42.299607,3.770178,15.446203,4.63583E+18,0.758321,0.020678,0.637108,-0.136439,-15.176685,3.770432,2.32932,-1.246788,0.641506,-0.563083,39.292299,-22.136797,8.96645,4.63582E+18,0.616292,-0.282257,0.65309,0.337622,-10.171906,-0.935684,-0.560792,-0.336292,-0.455131,0.568734,39.93276,20.409233,0.495372,4.63583E+18,-0.554525,-0.458635,-0.557503,0.41394,0
-12.700461,-4.517444,2.25477,0.189895,-0.142067,0.040435,42.261077,3.661269,15.094597,4.63583E+18,0.758664,0.021544,0.636557,-0.136966,-14.950331,-0.704414,0.504271,-1.239645,0.596988,-0.810988,39.520505,-21.968187,8.923363,4.63582E+18,0.614339,-0.288395,0.651951,0.338196,-10.249483,-0.589554,-0.294977,-0.363679,-0.477597,0.588374,40.07177,20.149751,0.561541,4.63583E+18,-0.557243,-0.458433,-0.55591,0.412654,0
-12.808918,-4.196985,2.294992,0.225922,-0.074419,0.170959,42.237614,3.752929,15.052681,4.63583E+18,0.758897,0.02291,0.636188,-0.13717,-12.999558,3.370613,-0.639414,-0.729351,0.438506,-0.760592,39.633742,-21.839045,9.082308,4.63582E+18,0.613338,-0.292857,0.651164,0.337693,-10.271167,-0.319004,-0.104011,-0.423897,-0.497201,0.606461,40.110399,19.836319,0.502518,4.63583E+18,-0.560146,-0.458092,-0.554334,0.41122,0
-12.477948,-3.070004,2.23301,0.217067,0.009831,0.279756,42.175634,3.858484,15.288652,4.63583E+18,0.758968,0.024583,0.636077,-0.136999,-10.89491,4.857422,-1.568243,-0.525677,0.36555,-0.716876,39.564194,-21.807238,9.027783,4.63582E+18,0.612712,-0.296571,0.650518,0.336832,-10.155042,-0.192189,0.087775,-0.501907,-0.51295,0.627859,40.103643,19.605896,0.287928,4.63583E+18,-0.563263,-0.457586,-0.552804,0.409581,0
-11.866914,-1.93638,2.032457,0.168883,0.076017,0.363408,42.161018,3.881954,15.4311,4.63583E+18,0.758914,0.026363,0.636193,-0.136429,-10.110853,0.160481,-1.593227,-0.472076,0.28393,-0.694471,39.591445,-21.606825,8.787059,4.63582E+18,0.612332,-0.299969,0.649757,0.33598,-10.013601,-0.193297,0.175647,-0.570513,-0.525008,0.650528,40.285939,19.556259,0.066184,4.63583E+18,-0.566567,-0.456945,-0.55131,0.407751,0
-11.098112,-0.753731,1.735184,0.087667,0.129048,0.434891,42.217495,3.642892,15.259781,4.63583E+18,0.758767,0.028105,0.636512,-0.13541,-9.991583,-3.716131,-0.597852,-0.203811,0.193974,-0.607044,39.737947,-21.261288,8.813477,4.63582E+18,0.612403,-0.302317,0.649245,0.334734,-10.050626,-0.537635,0.055623,-0.616688,-0.539616,0.685594,40.470657,19.457937,0.02753,4.63583E+18,-0.570042,-0.456241,-0.549783,0.405753,0
-10.071166,0.346313,1.27617,0.003373,0.123766,0.45009,42.299586,3.375293,15.265687,4.63583E+18,0.758649,0.029618,0.636856,-0.134121,-9.480275,-2.847836,-0.381853,0.160909,0.126214,-0.466799,39.873073,-20.891683,8.988345,4.63582E+18,0.612918,-0.303259,0.649241,0.332943,-10.098219,-1.091441,-0.102003,-0.637684,-0.546964,0.733241,40.560035,19.148846,0.089384,4.63583E+18,-0.573645,-0.455573,-0.548174,0.403598,0
-9.048856,1.024303,0.754623,-0.096688,0.044389,0.420736,42.385036,3.193122,15.50834,4.63583E+18,0.758769,0.030533,0.637015,-0.132477,-8.796705,-0.229128,-0.558145,0.395982,0.099637,-0.370972,39.956247,-20.752586,9.076058,4.63582E+18,0.613665,-0.303303,0.649614,0.330793,-10.228157,-1.222799,-0.022541,-0.632524,-0.535394,0.782448,40.700945,18.858977,0.066204,4.63583E+18,-0.577283,-0.455037,-0.546479,0.401306,0
-8.476132,1.587986,0.548401,-0.200404,-0.082834,0.370664,42.470487,2.910488,15.456064,4.63583E+18,0.759208,0.030917,0.636832,-0.130734,-8.9926,0.290138,-0.138818,0.429693,0.087613,-0.336889,40.029496,-20.738959,9.173723,4.63582E+18,0.614438,-0.303151,0.650041,0.328652,-10.378572,-1.067215,0.176701,-0.616846,-0.511588,0.826277,40.909287,18.603456,-0.058972,4.63583E+18,-0.580897,-0.454668,-0.54472,0.398893,0
-8.477142,2.170536,0.675396,-0.307584,-0.211319,0.318516,42.43201,2.634026,15.140195,4.63583E+18,0.759972,0.030751,0.636307,-0.128883,-9.197806,0.264121,0.882257,0.306102,0.119045,-0.32233,40.073197,-20.64751,9.287316,4.63582E+18,0.614946,-0.303317,0.650396,0.326842,-10.529394,-0.93812,0.403862,-0.605332,-0.491421,0.867243,41.044389,18.298295,-0.242068,4.63583E+18,-0.584499,-0.454444,-0.542899,0.396361,0
-8.724345,2.313912,0.741295,-0.425051,-0.302986,0.29203,42.231495,2.625513,15.039521,4.63583E+18,0.760975,0.030095,0.635554,-0.126817,-8.920393,0.78054,1.733207,0.13833,0.162965,-0.310109,40.019577,-20.508438,9.454512,4.63582E+18,0.615105,-0.303938,0.650647,0.325462,-10.651881,-0.833198,0.692065,-0.594182,-0.487075,0.901949,41.180925,17.993122,-0.366222,4.63583E+18,-0.588114,-0.454322,-0.540992,0.393754,0
-9.04052,1.811531,0.647288,-0.519419,-0.390548,0.289655,42.164371,2.710965,15.039521,4.63583E+18,0.762215,0.029089,0.634568,-0.124521,-8.494329,1.207349,1.844408,-0.020717,0.213491,-0.30527,40.105025,-20.508438,9.552169,4.63582E+18,0.614918,-0.305023,0.650817,0.32446,-10.729887,-0.796845,0.950916,-0.553079,-0.474012,0.921014,41.40148,17.660459,-0.429086,4.63583E+18,-0.591639,-0.454353,-0.539,0.391159,0
-9.414342,1.181077,0.521869,-0.589082,-0.482881,0.324609,42.279423,2.557455,14.97757,4.63583E+18,0.763718,0.027901,0.633315,-0.121932,-8.384517,0.902469,1.538102,-0.148701,0.266716,-0.320892,40.172293,-20.463001,9.613467,4.63582E+18,0.614443,-0.306548,0.650929,0.323697,-10.754723,-0.417429,1.005777,-0.478689,-0.433766,0.92024,41.51738,17.242319,-0.589043,4.63583E+18,-0.594919,-0.45462,-0.536976,0.38865,0
-9.566023,0.429131,0.452897,-0.653169,-0.597489,0.390191,42.500062,2.189419,14.821323,4.63583E+18,0.765554,0.026628,0.631713,-0.11898,-8.73595,0.511293,0.992785,-0.205855,0.297815,-0.330604,40.175983,-20.2166,9.531711,4.63582E+18,0.613822,-0.308287,0.651028,0.323024,-10.754723,0.175518,1.027241,-0.422447,-0.395964,0.897613,41.521308,16.872318,-0.646992,4.63583E+18,-0.59796,-0.455028,-0.534985,0.386243,0
-9.582811,-0.234961,0.784607,-0.740489,-0.677737,0.438045,42.682261,1.889414,14.576263,4.63583E+18,0.767619,0.025169,0.629881,-0.11566,-9.227414,0.465307,0.405653,-0.176911,0.292969,-0.320468,40.265138,-19.994302,9.539951,4.63582E+18,0.613235,-0.309917,0.651164,0.322304,-10.739012,0.858229,1.187196,-0.41368,-0.350446,0.86351,41.557079,16.74548,-0.615572,4.63583E+18,-0.600818,-0.455444,-0.533149,0.383848,0
-9.529719,-0.809884,1.375687,-0.807192,-0.642715,0.440105,42.902884,1.756962,14.290027,4.63583E+18,0.769583,0.02352,0.62818,-0.112152,-9.640451,0.597609,0.059042,-0.14435,0.276377,-0.304571,40.423829,-19.94832,9.673952,4.63582E+18,0.612712,-0.311397,0.651319,0.321556,-10.698037,1.248979,1.209807,-0.417609,-0.274487,0.813028,41.693587,16.565768,-0.580753,4.63583E+18,-0.603426,-0.455852,-0.531597,0.38142,0
-9.589201,-1.309468,1.638823,-0.815506,-0.569309,0.429904,42.855032,1.37952,14.227114,4.63583E+18,0.771337,0.021846,0.626706,-0.108637,-9.895904,0.929172,-0.221071,-0.180189,0.276082,-0.292898,40.537107,-19.994318,9.912412,4.63582E+18,0.612126,-0.312936,0.651439,0.320935,-10.87783,0.986151,1.300225,-0.438681,-0.197136,0.727915,41.937725,16.159863,-0.705898,4.63583E+18,-0.605758,-0.456134,-0.530426,0.379009,0
-9.805248,-1.741315,1.59278,-0.784214,-0.532769,0.43113,42.811363,0.891224,14.118805,4.63583E+18,0.772979,0.020286,0.625322,-0.105186,-10.19203,0.922958,-0.898743,-0.2105,0.252806,-0.280053,40.453919,-19.918797,9.876085,4.63583E+18,0.611545,-0.314484,0.651474,0.320459,-11.331109,1.052538,1.553774,-0.487462,-0.13522,0.649697,42.103333,15.743132,-0.830103,4.63583E+18,-0.607915,-0.456214,-0.529629,0.376566,0
-10.09697,-1.926303,1.606784,-0.760953,-0.506469,0.458146,43.041392,0.686081,13.730095,4.63583E+18,0.774548,0.018885,0.623999,-0.101704,-10.427938,0.548555,-1.769758,-0.199203,0.216691,-0.278937,40.394299,-19.833353,9.717093,4.63583E+18,0.611074,-0.315952,0.651431,0.320002,-11.36681,1.14737,1.582733,-0.475041,-0.048775,0.619708,42.083703,15.476778,-0.767286,4.63583E+18,-0.609804,-0.456388,-0.529083,0.374059,0
-10.269432,-2.094717,1.641276,-0.751605,-0.493407,0.488747,43.243752,0.6592,13.519436,4.63583E+18,0.77608,0.017602,0.622701,-0.098149,-10.572155,0.120987,-1.853895,-0.156458,0.17906,-0.267263,40.39203,-19.763786,9.751127,4.63583E+18,0.610744,-0.317229,0.651363,0.319507,-11.247805,0.82101,2.035572,-0.369256,0.033084,0.570001,42.018743,15.318088,-0.630859,4.63583E+18,-0.61123,-0.456844,-0.52867,0.371751,0
-10.515337,-2.272338,1.674536,-0.759901,-0.495218,0.475018,43.181309,0.429221,13.648397,4.63583E+18,0.777598,0.016258,0.621389,-0.094616,-10.651997,-0.040966,-1.432948,-0.093415,0.133776,-0.250251,40.35261,-19.75018,9.936488,4.63583E+18,0.610596,-0.318238,0.651284,0.318944,-10.986619,1.008834,1.930504,-0.157793,0.152417,0.494812,41.969051,15.159405,-0.622578,4.63583E+18,-0.611871,-0.457855,-0.528372,0.369872,0
-10.702157,-2.345939,1.781909,-0.77456,-0.470377,0.4188,43.13212,0.156077,13.302076,4.63583E+18,0.779018,0.014727,0.620156,-0.091217,-10.447946,0.234739,-0.912035,-0.049042,0.105227,-0.230872,40.236999,-19.690542,10.095523,4.63583E+18,0.610559,-0.319043,0.651217,0.318348,-10.456063,0.554081,1.780091,0.25875,0.409845,0.388838,41.996524,15.028181,-0.559784,4.63583E+18,-0.610983,-0.46009,-0.528286,0.368688,0
-10.689452,-2.294122,1.88081,-0.798026,-0.407751,0.343291,43.128757,-0.029519,12.802462,4.63583E+18,0.780236,0.012941,0.61913,-0.087987,-10.067785,0.356282,-0.37197,-0.030503,0.098666,-0.220786,40.328383,-19.688274,10.095523,4.63583E+18,0.61055,-0.319765,0.651171,0.317735,-10.248546,0.025285,1.719504,0.650051,0.63265,0.30587,42.136911,14.954939,-0.340928,4.63583E+18,-0.60872,-0.463474,-0.528319,0.368145,0
-10.359734,-2.155606,1.754009,-0.813896,-0.379225,0.278951,43.075693,-0.312029,12.821631,4.63583E+18,0.781346,0.010947,0.618196,-0.08492,-9.814238,0.400216,-0.194442,-0.038467,0.103579,-0.213706,40.465275,-19.648872,10.077393,4.63583E+18,0.610507,-0.320493,0.651135,0.317156,-10.005729,0.501284,1.799287,0.805843,0.644556,0.249072,42.385399,14.8817,-0.127311,4.63583E+18,-0.606034,-0.467137,-0.528243,0.368057,0
-9.826399,-2.01461,1.687986,-0.834156,-0.371346,0.231041,43.055511,-0.517801,12.958396,4.63583E+18,0.782408,0.008772,0.617287,-0.081961,-9.704885,0.479079,-0.27361,-0.068496,0.119083,-0.208167,40.455334,-19.48791,9.997864,4.63582E+18,0.610375,-0.321304,0.651106,0.316651,-9.739337,2.113538,1.357707,0.735466,0.5099,0.217216,42.546724,14.780994,-0.092422,4.63583E+18,-0.603721,-0.470338,-0.527985,0.368151,0
-9.305724,-2.021812,1.773046,-0.854559,-0.33631,0.208912,43.170462,-0.685334,12.856041,4.63583E+18,0.783359,0.006492,0.616491,-0.079025,-9.716217,0.116513,-0.441371,-0.096805,0.125447,-0.199379,40.514257,-19.348734,10.034124,4.63582E+18,0.610175,-0.32217,0.651066,0.316237,-9.251098,3.334773,0.469557,0.554079,0.324839,0.226407,42.504008,14.64976,-0.127311,4.63583E+18,-0.602177,-0.472814,-0.527514,0.368182,0
-8.884802,-2.242012,1.735956,-0.851348,-0.307401,0.215916,43.152312,-0.847396,12.672929,4.63583E+18,0.784227,0.004255,0.615777,-0.076079,-9.756859,-0.144734,-0.614902,-0.087332,0.120854,-0.179359,40.772728,-19.348734,10.193182,4.63582E+18,0.609974,-0.322952,0.651053,0.315854,-8.161135,3.356655,0.209735,0.325602,0.218249,0.265356,42.345311,14.623593,-0.033575,4.63583E+18,-0.601375,-0.474636,-0.527046,0.367821,0
-8.556089,-2.584647,1.541051,-0.804013,-0.321332,0.240926,43.190645,-1.01492,12.551724,4.63583E+18,0.785126,0.002236,0.614994,-0.073174,-9.723888,-0.239618,-0.614402,-0.049444,0.109183,-0.159033,40.711578,-19.335145,10.190917,4.63582E+18,0.609828,-0.323567,0.651088,0.315435,-7.407322,2.430656,-0.291627,0.26657,0.163965,0.30873,42.312144,14.700758,0.024415,4.63583E+18,-0.600873,-0.476319,-0.526444,0.367327,0
-8.206709,-3.06579,1.477096,-0.723791,-0.335952,0.28369,43.329141,-1.238863,12.401022,4.63583E+18,0.786066,0.000576,0.61413,-0.070324,-9.812593,-0.124623,-0.538506,-0.027091,0.092963,-0.15421,40.443127,-19.259638,10.180974,4.63582E+18,0.60975,-0.32409,0.651116,0.31499,-6.963102,2.299952,-0.570714,0.358995,0.111903,0.322393,42.547979,14.707775,0.020494,4.63583E+18,-0.60032,-0.478183,-0.525539,0.367105,0
-7.973101,-3.634913,1.477096,-0.626146,-0.309207,0.335624,43.372906,-1.544898,12.292005,4.63583E+18,0.786943,-0.000629,0.613317,-0.067542,-10.116375,0.367668,-0.659273,-0.002964,0.075874,-0.158128,40.488394,-19.174195,10.162867,4.63582E+18,0.609756,-0.32454,0.651127,0.314493,-6.532849,3.522376,-0.595035,0.379758,0.027121,0.27695,42.690183,14.549092,0.016128,4.63583E+18,-0.59984,-0.479866,-0.524479,0.367209,0
-7.940285,-4.229657,1.256098,-0.505344,-0.311936,0.38516,43.257985,-1.759551,12.206561,4.63583E+18,0.787835,-0.001309,0.612455,-0.064909,-10.303939,0.684505,-0.923236,0.007081,0.056803,-0.17364,40.703119,-19.104586,10.067472,4.63582E+18,0.609847,-0.324981,0.651081,0.313954,-6.130806,4.484705,-1.137521,0.231525,-0.111792,0.163084,42.589504,14.41784,-0.030461,4.63583E+18,-0.599785,-0.480715,-0.523525,0.36755,0
-8.008896,-4.774763,1.039318,-0.357061,-0.379116,0.426264,43.267245,-1.744819,12.041556,4.63583E+18,0.788903,-0.001417,0.611328,-0.062517,-10.249693,0.682309,-0.905611,0.000786,0.031408,-0.205288,40.741045,-19.104586,10.03181,4.63582E+18,0.61004,-0.325491,0.650919,0.313387,-5.723022,4.617425,-2.53173,0.057047,-0.279747,0.063087,42.477844,14.368114,-0.209181,4.63583E+18,-0.600291,-0.480652,-0.522618,0.368097,0
-8.094348,-5.255484,1.015318,-0.21658,-0.401145,0.46085,43.34933,-1.79196,11.713646,4.63583E+18,0.790031,-0.000983,0.610088,-0.060363,-10.220756,0.913759,-0.877103,-0.020018,0.016456,-0.2346,40.601822,-19.088753,10.214902,4.63582E+18,0.610283,-0.326113,0.650652,0.312822,-4.521755,2.566391,-4.483391,0.039968,-0.35673,0.000415,42.52048,14.368114,-0.341807,4.63583E+18,-0.600902,-0.48029,-0.521669,0.368917,0
-8.117923,-5.586749,0.928199,-0.082005,-0.335593,0.470758,43.311036,-2.057541,11.485503,4.63583E+18,0.790989,-0.000061,0.609025,-0.058523,-10.187758,0.986078,-0.683155,-0.019938,0.001107,-0.259917,40.63122,-18.989737,10.330165,4.63582E+18,0.6106,-0.326783,0.65031,0.312213,-2.820004,-1.051927,-6.157266,-0.129244,-0.253877,-0.071821,42.632171,14.340693,-0.279131,4.63583E+18,-0.601517,-0.479503,-0.521383,0.369342,0
-8.082571,-5.717263,0.661352,0.061857,-0.309284,0.443987,43.34932,-2.325264,11.447175,4.63583E+18,0.791869,0.001276,0.608011,-0.05714,-10.129487,0.774098,-0.548897,-0.003877,-0.013609,-0.276768,40.760521,-18.812994,10.160641,4.63582E+18,0.611001,-0.327439,0.649928,0.311537,-2.982781,-0.006668,-6.301633,-0.886476,-0.245399,-0.197687,42.589542,14.259161,-0.146489,4.63583E+18,-0.60343,-0.476552,-0.522533,0.368416,0
-8.04258,-5.560719,0.511882,0.201528,-0.293228,0.395002,43.425932,-2.330785,11.441707,4.63583E+18,0.792691,0.002957,0.607014,-0.056274,-9.639801,0.232874,-0.412345,0.000237,-0.017684,-0.279618,40.7447,-18.590521,10.089189,4.63583E+18,0.611421,-0.328086,0.649537,0.310848,-4.913163,5.263087,-4.968129,-2.070323,-0.524174,-0.407119,42.458265,14.232915,-0.115159,4.63583E+18,-0.608007,-0.469635,-0.525266,0.365878,0
-8.076657,-5.042646,0.532481,0.30267,-0.252536,0.329227,43.569864,-2.307199,11.438337,4.63583E+18,0.793389,0.004816,0.606126,-0.055883,-9.167329,-0.385636,-0.302012,0.017006,-0.02069,-0.263837,40.672809,-18.499216,10.186836,4.63583E+18,0.611851,-0.328643,0.64918,0.310158,-4.95588,4.954644,-3.976742,-3.263579,-0.769386,-0.657522,42.381102,14.380581,0.006006,4.63583E+18,-0.614986,-0.458707,-0.529612,0.361789,0
-8.261403,-4.455436,0.584679,0.36474,-0.21143,0.261825,43.61705,-2.545786,11.376481,4.63583E+18,0.793962,0.006717,0.605358,-0.055866,-9.064666,-0.54298,-0.359869,0.054542,-0.023221,-0.233419,40.708016,-18.34413,10.248364,4.63583E+18,0.6123,-0.329019,0.648906,0.309447,-4.356197,2.117642,-2.483679,-4.240933,-0.998288,-0.90115,42.24476,14.764037,0.122074,4.63583E+18,-0.623802,-0.444267,-0.535166,0.356504,0
-8.457982,-3.908244,0.606998,0.405478,-0.197719,0.206429,43.502189,-2.698648,11.36172,4.63583E+18,0.794484,0.008611,0.604625,-0.056128,-9.123882,-0.656462,-0.43269,0.113805,-0.028878,-0.193065,40.922821,-18.274483,10.132624,4.63583E+18,0.612792,-0.329126,0.648748,0.308686,-5.406886,3.337732,0.072716,-4.917915,-1.290526,-1.077546,42.047603,15.285925,0.149474,4.63583E+18,-0.633938,-0.427164,-0.540993,0.350684,0
-8.588066,-3.203336,0.716379,0.427104,-0.210453,0.158256,43.334679,-2.54557,11.285586,4.63583E+18,0.795021,0.010454,0.603844,-0.056609,-9.302897,-0.765037,-0.326058,0.201351,-0.039441,-0.140451,40.992458,-18.258674,9.991516,4.63583E+18,0.613366,-0.328854,0.648748,0.307837,-7.202898,5.039466,0.188083,-5.181039,-1.353564,-1.171514,41.981258,15.702835,0.297556,4.63583E+18,-0.644245,-0.408838,-0.546957,0.344439,0
-8.574258,-2.619801,0.836362,0.416846,-0.202626,0.117442,43.349289,-2.478103,11.122722,4.63583E+18,0.795525,0.012171,0.603091,-0.057209,-9.517262,-0.538579,0.06184,0.268849,-0.043991,-0.093694,40.990202,-18.175495,10.122996,4.63583E+18,0.613983,-0.328277,0.648885,0.306932,-6.534966,1.091565,-3.533807,-4.814831,-1.139974,-1.151014,41.934292,15.988904,0.640937,4.63583E+18,-0.65316,-0.39165,-0.552676,0.33844,0
-8.575057,-2.283763,0.928561,0.386503,-0.18524,0.111452,43.487742,-2.778446,11.010279,4.63583E+18,0.795982,0.013777,0.602401,-0.057754,-9.472541,-0.343138,0.271745,0.290212,-0.0496,-0.056982,40.95092,-18.129324,10.333828,4.63583E+18,0.614597,-0.327538,0.649085,0.306069,-6.365864,-1.475001,-5.233359,-3.592757,-0.750525,-1.001836,41.709558,16.212532,1.089597,4.63583E+18,-0.65922,-0.378456,-0.557361,0.333989,0
-8.767288,-2.024056,1.217155,0.331458,-0.178971,0.139501,43.646424,-2.893155,10.916002,4.63583E+18,0.796431,0.015269,0.601742,-0.058062,-9.345023,-0.4209,0.166489,0.312366,-0.074645,-0.025636,40.821556,-18.20483,10.23842,4.63583E+18,0.615267,-0.326625,0.649291,0.305261,-9.339753,-1.226174,-3.958893,-2.417872,-0.227537,-0.771651,41.420657,16.417083,1.386325,4.63583E+18,-0.662412,-0.369683,-0.561383,0.330747,0
-9.279768,-1.40559,2.316434,0.240618,-0.192291,0.171952,43.752122,-2.769504,10.950829,4.63583E+18,0.796924,0.016538,0.601058,-0.058038,-9.299241,-0.35845,-0.198738,0.326357,-0.091153,-0.035106,40.853123,-18.274483,10.168767,4.63582E+18,0.616013,-0.32568,0.649457,0.304412,-18.820278,-5.902386,15.447301,-1.237703,-0.313307,-0.532806,41.468701,16.547916,1.38617,4.63583E+18,-0.664268,-0.36458,-0.563134,0.329713,0
-10.367076,0.243317,3.7312,0.107459,-0.286481,0.17588,43.775749,-2.669258,10.903799,4.63583E+18,0.797662,0.017349,0.600091,-0.057668,-9.71474,0.546053,-0.681511,0.273965,-0.087461,-0.084408,41.019531,-18.242898,10.204863,4.63582E+18,0.616738,-0.325007,0.649498,0.303573,-25.244221,-7.304854,26.568173,0.424821,-0.811039,-0.231336,41.570467,16.684681,1.155193,4.63583E+18,-0.665164,-0.364093,-0.560751,0.332493,0
-11.000696,2.14464,3.410783,-0.048615,-0.490443,0.127745,43.713931,-2.763811,10.603032,4.63583E+18,0.798907,0.017464,0.598486,-0.057073,-11.037865,1.693387,-1.510115,0.152051,-0.110878,-0.130719,41.152483,-18.058469,10.397917,4.63582E+18,0.61742,-0.324743,0.649262,0.302976,-18.063426,-6.350216,16.248944,1.596668,-0.523602,-0.055295,41.006182,17.002199,0.819663,4.63583E+18,-0.663771,-0.367756,-0.557188,0.337202,0
-11.294182,3.447146,2.890043,-0.22274,-0.594071,0.083748,43.681466,-2.931333,10.304091,4.63583E+18,0.800409,0.01686,0.596577,-0.056189,-11.622585,1.294181,-2.317722,0.05242,-0.144363,-0.189259,41.212193,-17.843657,10.52917,4.63582E+18,0.618131,-0.32485,0.648733,0.302543,-14.223101,-6.382213,2.570313,2.366152,-0.124504,-0.025586,40.331363,17.409769,0.387561,4.63583E+18,-0.660274,-0.374133,-0.55357,0.342961,0
-11.356262,4.268684,3.245861,-0.366645,-0.492941,0.089929,43.801718,-2.978606,10.220974,4.63583E+18,0.801665,0.015818,0.595035,-0.054922,-11.042527,0.804476,-1.902757,0.102311,-0.190886,-0.182634,41.214447,-17.789761,10.413464,4.63583E+18,0.619026,-0.324752,0.648155,0.302055,-10.59561,-6.901749,-10.392617,2.296798,0.35099,0.081237,40.939213,17.232198,0.024325,4.63583E+18,-0.655878,-0.381208,-0.551138,0.347493,0
-11.096825,4.017598,3.550517,-0.495403,-0.32887,0.043597,43.848991,-2.978606,10.217597,4.63583E+18,0.802507,0.014277,0.594068,-0.05349,-9.676119,-0.339955,-0.621797,0.082788,-0.176112,-0.142243,41.192844,-17.843652,10.218155,4.63583E+18,0.619804,-0.324614,0.647645,0.301703,-9.583317,-5.298136,-11.653775,1.516674,0.533298,0.139308,42.307219,16.305868,-0.155741,4.63583E+18,-0.652396,-0.386432,-0.550263,0.349657,0
-11.184284,2.538605,3.080259,-0.655251,-0.190352,0.001868,43.672407,-3.040411,10.085158,4.63583E+18,0.803001,0.012136,0.593599,-0.051802,-8.715733,-1.014407,0.226135,0.049227,-0.133851,-0.098789,41.037736,-17.728947,10.0589,4.63583E+18,0.620367,-0.324497,0.64726,0.301497,-12.409971,-0.303127,-6.103275,0.562556,0.508131,0.229811,42.745304,15.67239,-0.035108,4.63583E+18,-0.650622,-0.389223,-0.550548,0.349418,0
-11.55542,1.005616,1.847927,-0.813317,-0.13325,-0.000228,43.54304,-3.302448,9.840242,4.63583E+18,0.803353,0.009468,0.593348,-0.049719,-8.655755,-0.700325,0.202779,0.09216,-0.111503,-0.038102,41.013077,-17.529831,10.094926,4.63583E+18,0.620852,-0.324134,0.647068,0.301302,-13.318172,0.894838,-0.16652,-0.026239,0.459716,0.326689,42.215559,16.018199,0.128927,4.63583E+18,-0.65005,-0.390565,-0.551397,0.347642,0
-11.493714,0.12482,0.534551,-0.942103,-0.221531,0.014496,43.581189,-3.455455,9.704125,4.63583E+18,0.803922,0.006378,0.59282,-0.047258,-8.944583,-0.765269,0.471939,0.170446,-0.086769,0.024473,41.272987,-17.574863,10.238458,4.63583E+18,0.621297,-0.32343,0.647123,0.301023,-12.195791,-0.458309,1.501887,-0.186697,0.393074,0.373392,42.141561,16.372967,0.222678,4.63583E+18,-0.649955,-0.391482,-0.552219,0.345478,4
-10.922947,-0.467114,-0.117033,-1.030061,-0.386715,0.050896,43.719606,-3.417316,9.742265,4.63583E+18,0.804894,0.003055,0.591742,-0.044465,-9.27798,-1.002662,0.622334,0.263104,-0.07252,0.100622,41.496761,-17.78974,10.132741,4.63583E+18,0.621732,-0.322299,0.647432,0.300673,-10.173983,-1.676836,0.800239,-0.050095,0.406034,0.432947,42.771347,15.816829,0.339383,4.63583E+18,-0.649689,-0.392922,-0.552778,0.343443,4
-10.40368,-1.169899,-0.161319,-1.120576,-0.452025,0.090056,43.816507,-3.455453,9.633506,4.63583E+18,0.806017,-0.000481,0.590448,-0.041325,-9.394248,-1.14264,0.915908,0.390577,-0.065914,0.186219,41.236851,-17.830159,9.971197,4.63583E+18,0.622211,-0.320614,0.648032,0.300191,-8.937312,-1.875544,0.228526,0.185158,0.51723,0.462125,42.691784,15.63568,0.588859,4.63583E+18,-0.648818,-0.395222,-0.553249,0.341687,4
-10.252153,-1.926693,-0.187242,-1.212067,-0.432748,0.132844,43.898572,-3.602684,9.379797,4.63583E+18,0.807078,-0.004214,0.589218,-0.037813,-9.446629,-0.965936,0.926362,0.491098,-0.057255,0.279137,40.997312,-17.684975,9.979252,4.63583E+18,0.622683,-0.318426,0.6489,0.299665,-8.471488,-1.37271,0.328107,0.400801,0.648316,0.419104,42.093581,16.525327,0.913101,4.63583E+18,-0.647154,-0.398298,-0.553753,0.340453,4
-10.321448,-2.559958,-0.313442,-1.30565,-0.43766,0.19624,43.913411,-3.650014,9.0196,4.63583E+18,0.808135,-0.00811,0.587968,-0.033852,-9.561937,-0.621882,0.362317,0.49767,-0.041206,0.329102,41.14474,-17.676022,10.079147,4.63583E+18,0.623053,-0.316105,0.649881,0.299228,-7.952433,0.84829,0.895441,0.497421,0.728261,0.316016,42.144781,17.30278,1.029819,4.63583E+18,-0.644998,-0.401489,-0.554508,0.339566,4
-10.245962,-2.836993,-0.574672,-1.376001,-0.455638,0.303808,43.795289,-3.773582,8.717226,4.63583E+18,0.80922,-0.011983,0.586649,-0.02935,-9.618156,0.135158,-0.197566,0.463017,-0.021475,0.340427,41.17945,-17.989833,10.186747,4.63583E+18,0.623307,-0.313865,0.65088,0.298886,-7.791675,4.007475,1.856782,0.393417,0.728568,0.166574,42.455921,16.859148,1.024927,4.63583E+18,-0.642795,-0.404051,-0.555651,0.338834,4
-10.152438,-2.580889,-0.923957,-1.437653,-0.455738,0.447961,43.689558,-4.059199,8.519288,4.63583E+18,0.810288,-0.015711,0.58532,-0.024208,-9.659575,0.651195,-0.083863,0.428019,-0.025327,0.370197,40.951022,-18.144063,10.24619,4.63583E+18,0.623484,-0.311629,0.65186,0.298719,-8.223772,5.9224,3.034025,0.176544,0.701605,0.014469,42.20204,15.824318,1.147439,4.63583E+18,-0.640856,-0.405543,-0.557347,0.337939,4
-10.326408,-2.10386,-0.981271,-1.53749,-0.50573,0.583769,43.904294,-4.388931,8.471938,4.63583E+18,0.811447,-0.019447,0.583814,-0.018359,-10.289734,-0.184084,0.454893,0.388806,-0.019227,0.391244,40.819309,-17.929154,10.174536,4.63583E+18,0.623564,-0.309443,0.652831,0.298704,-8.743839,6.527485,4.19623,-0.052204,0.683621,-0.134681,41.893891,15.614124,1.476034,4.63583E+18,-0.63913,-0.406048,-0.559564,0.336938,4
-10.824651,-1.594441,-0.937888,-1.718262,-0.561851,0.699126,43.99548,-4.780411,8.286463,4.63583E+18,0.81269,-0.023513,0.582105,-0.011677,-11.105514,-0.019734,0.275798,0.388413,-0.020995,0.44088,40.798119,-17.951518,10.272187,4.63583E+18,0.623583,-0.307119,0.653857,0.29882,-8.961233,6.674546,4.792108,-0.27803,0.649065,-0.277082,41.762526,16.104375,1.85053,4.63583E+18,-0.637602,-0.405662,-0.562172,0.335953,4
-11.543023,-0.88749,-1.219189,-1.926715,-0.60355,0.796772,43.704054,-5.319062,7.888832,4.63583E+18,0.813958,-0.028047,0.580232,-0.004151,-11.100425,0.56019,-0.532776,0.390994,-0.037883,0.486092,40.76404,-18.391388,10.372098,4.63583E+18,0.623591,-0.304642,0.654896,0.299065,-8.82945,6.144196,4.737565,-0.486177,0.599843,-0.401372,41.689281,16.393544,2.224557,4.63583E+18,-0.636364,-0.404354,-0.565148,0.334884,4
-12.329725,-0.141565,-1.392422,-2.122157,-0.674455,0.876562,43.645621,-5.719553,7.498988,4.63583E+18,0.815302,-0.033051,0.578077,0.004131,-10.919165,0.881177,-1.341284,0.403296,-0.089757,0.485073,40.818054,-18.530838,10.477454,4.63583E+18,0.623752,-0.302069,0.655809,0.299338,-8.690169,4.526679,4.171847,-0.603056,0.562153,-0.52557,41.643356,16.470688,2.611277,4.63583E+18,-0.635229,-0.402384,-0.568389,0.333924,4
-12.937761,0.493741,-1.239445,-2.329286,-0.718363,0.945923,43.957295,-5.987338,7.19458,4.63583E+18,0.816634,-0.038583,0.575715,0.013152,-10.931533,0.873184,-1.064171,0.349805,-0.147366,0.501268,40.719134,-18.575729,10.549441,4.63583E+18,0.623979,-0.299516,0.656521,0.299869,-8.944369,3.000389,3.078803,-0.676477,0.544161,-0.645842,41.600945,16.599045,2.927257,4.63583E+18,-0.63408,-0.399903,-0.571877,0.333131,4
-13.00687,1.206638,-1.118933,-2.556804,-0.66376,0.991578,43.953941,-6.478695,6.799049,4.63583E+18,0.817691,-0.044771,0.573459,0.022859,-10.536104,0.961873,-0.58371,0.218538,-0.178958,0.502852,40.560427,-18.80642,10.559403,4.63583E+18,0.624122,-0.297259,0.656984,0.3008,-9.466898,2.425502,1.805202,-0.808805,0.533568,-0.743738,41.442247,16.799273,3.08306,4.63583E+18,-0.633026,-0.396817,-0.57567,0.332292,4
-12.596813,1.786887,-1.354714,-2.817464,-0.608918,1.015829,43.786419,-7.055801,6.350768,4.63583E+18,0.818443,-0.051788,0.571281,0.033264,-10.163801,1.765107,-0.575991,0.055883,-0.228043,0.482018,40.433162,-18.94589,10.523518,4.63583E+18,0.624221,-0.295418,0.657086,0.302182,-10.003864,2.221242,0.844111,-0.997607,0.509057,-0.815357,41.334267,16.957962,3.239226,4.63583E+18,-0.632224,-0.393018,-0.579761,0.33122,4
-11.860064,1.902285,-1.752839,-3.127374,-0.658119,1.018059,43.862721,-7.576531,6.031556,4.63583E+18,0.8191,-0.059838,0.56879,0.04442,-10.531785,1.828066,-0.635298,-0.11033,-0.304602,0.482259,40.490226,-19.004204,10.314743,4.63583E+18,0.624322,-0.293911,0.656776,0.304112,-10.822549,2.608833,0.03424,-1.271396,0.4311,-0.854682,41.287471,17.089348,3.523873,4.63583E+18,-0.632032,-0.388188,-0.58413,0.329603,4
-10.768534,1.424276,-1.894216,-3.425045,-0.764128,1.001428,44.024791,-8.253573,5.568791,4.63583E+18,0.819763,-0.068906,0.565755,0.056241,-11.073364,0.942693,-0.861247,-0.215225,-0.39958,0.500003,40.699482,-19.323839,10.07758,4.63583E+18,0.624527,-0.292506,0.656103,0.306489,-11.452069,3.108472,-0.916071,-1.798188,0.287746,-0.878804,41.113684,17.236687,3.875346,4.63583E+18,-0.63297,-0.381693,-0.588849,0.32698,4
-9.784154,0.777339,-1.754301,-3.67219,-0.860646,0.997058,43.945153,-8.883412,4.890484,4.63583E+18,0.820381,-0.078783,0.562189,0.068642,-11.081573,0.820411,-0.821621,-0.304536,-0.49087,0.505626,40.641176,-19.595125,10.015804,4.63583E+18,0.62486,-0.291198,0.655079,0.309233,-11.038068,1.306476,-1.871427,-2.471109,0.174748,-0.951686,40.909047,17.565256,4.409905,4.63583E+18,-0.635094,-0.373054,-0.594246,0.323044,4
-9.127923,-0.002098,-1.414353,-3.870005,-0.920252,1.047083,43.659483,-9.292852,4.219792,4.63583E+18,0.820832,-0.089179,0.55822,0.081681,-10.897209,1.576197,-0.407367,-0.48344,-0.546212,0.498937,40.366402,-19.605089,10.04173,4.63583E+18,0.625129,-0.290298,0.653664,0.312512,-10.506269,-1.255003,-2.802575,-3.261733,0.074877,-1.061524,40.785959,17.924163,5.041763,4.63583E+18,-0.638389,-0.361955,-0.600456,0.317648,4
-8.363399,-0.964558,-1.173791,-4.011534,-0.947463,1.127026,43.506434,-9.740562,3.775849,4.63583E+18,0.821017,-0.099833,0.553967,0.095311,-11.089806,2.677746,0.226898,-0.752039,-0.597746,0.443201,40.330259,-19.663365,9.717373,4.63583E+18,0.625276,-0.290179,0.651687,0.316434,-11.221379,-0.244133,-2.778975,-4.287506,-0.085004,-1.118881,40.693223,18.136303,5.642798,4.63583E+18,-0.643384,-0.347671,-0.607528,0.309985,4
-7.65351,-1.810039,-0.74355,-4.07163,-0.938114,1.239982,43.606339,-10.361236,3.356681,4.63583E+18,0.820846,-0.110403,0.549587,0.109438,-11.100247,5.002873,1.192977,-1.143264,-0.646396,0.327981,40.466302,-19.967304,9.233331,4.63582E+18,0.625218,-0.291319,0.648911,0.32117,-12.010327,0.50176,-1.858228,-5.327903,-0.216185,-1.135164,40.558947,18.151381,6.368235,4.63583E+18,-0.649969,-0.330147,-0.615411,0.299688,4
-6.99431,-2.379481,-0.095063,-4.038916,-0.848312,1.346124,43.530105,-11.085601,2.572989,4.63583E+18,0.820167,-0.12062,0.545395,0.12378,-11.422994,6.607901,2.283457,-1.66149,-0.754887,0.14469,40.393066,-20.197989,8.677559,4.63582E+18,0.625043,-0.294146,0.644908,0.326946,-12.051256,-2.77095,-0.768993,-5.996468,-0.270356,-1.059183,40.475335,18.224619,7.230993,4.63583E+18,-0.657326,-0.310748,-0.62352,0.287368,4
-6.282216,-2.920686,0.574223,-3.962412,-0.667801,1.420743,43.359217,-11.653683,1.781067,4.63583E+18,0.818814,-0.130459,0.541718,0.138075,-12.139311,6.811955,2.424232,-2.08772,-0.957521,-0.030222,40.348939,-20.335294,8.167872,4.63582E+18,0.625082,-0.298255,0.639533,0.333636,-11.313881,-3.901124,0.530476,-6.315904,-0.269034,-0.885847,40.499752,18.274483,8.085511,4.63583E+18,-0.664811,-0.29082,-0.631321,0.273651,4
-5.664569,-3.570397,0.96863,-3.86907,-0.471234,1.419493,43.197158,-12.09236,1.318865,4.63583E+18,0.816819,-0.140052,0.538596,0.152009,-12.353795,7.087331,1.347321,-2.225794,-1.303994,-0.225071,40.452307,-20.354442,7.454936,4.63582E+18,0.626081,-0.30273,0.632756,0.340584,-10.96487,-3.267928,2.196925,-6.490365,-0.220602,-0.709603,40.477405,18.196547,8.940029,4.63583E+18,-0.6721,-0.270721,-0.638789,0.258728,4
-5.126134,-4.430457,1.173364,-3.744078,-0.369779,1.363453,42.976704,-12.569162,0.894275,4.63583E+18,0.814468,-0.149369,0.535707,0.165373,-11.728868,8.111466,0.251671,-2.262961,-1.697851,-0.461396,40.63316,-20.513122,6.502851,4.63582E+18,0.628327,-0.307326,0.624519,0.347466,-11.460692,-3.44148,4.091094,-6.412219,-0.149652,-0.505068,40.30858,17.878379,9.833478,4.63583E+18,-0.678844,-0.251268,-0.645681,0.24317,4
-4.433637,-5.508118,1.670678,-3.573697,-0.337525,1.259883,42.785509,-13.131378,0.310306,4.63583E+18,0.812008,-0.158318,0.532837,0.177942,-12.085971,9.154723,0.186981,-2.295148,-2.079315,-0.712509,40.804062,-20.627052,5.499217,4.63582E+18,0.631789,-0.312058,0.614816,0.354208,-12.04843,-4.837409,6.486387,-5.900223,-0.057823,-0.206787,40.063411,17.375062,10.806095,4.63583E+18,-0.684661,-0.233993,-0.651579,0.227884,4
-3.376756,-6.387601,2.407988,-3.349821,-0.236465,1.116132,42.791056,-13.655604,-0.324513,4.63583E+18,0.809388,-0.166867,0.530251,0.189423,-15.573972,9.57643,2.583318,-2.520086,-2.623238,-0.780128,40.974948,-20.494631,4.246257,4.63582E+18,0.636323,-0.316687,0.603135,0.361982,-12.151073,-6.642468,9.412394,-4.920852,0.07264,0.167549,39.992734,16.821334,11.676967,4.63583E+18,-0.689176,-0.220533,-0.656224,0.213942,4
-2.319511,-6.913023,3.224581,-3.028711,-0.034526,0.949961,42.69666,-14.032597,-0.694618,4.63583E+18,0.806517,-0.174825,0.528377,0.19946,-21.221908,17.938536,13.252928,-3.653891,-3.454595,-0.765152,41.174938,-20.152817,2.746806,4.63582E+18,0.64121,-0.32292,0.587352,0.373617,-11.642384,-7.949861,12.286979,-3.584685,0.232084,0.533993,40.16078,16.330977,12.286018,4.63583E+18,-0.692132,-0.211985,-0.659588,0.202383,4
-1.324029,-7.022642,3.666431,-2.752676,0.148493,0.769037,42.476222,-14.300412,-0.830823,4.63583E+18,0.803467,-0.182378,0.52713,0.208117,-18.732697,25.291553,16.486436,-5.289977,-3.825925,-1.019544,41.49113,-19.793089,0.464315,4.63582E+18,0.644817,-0.333373,0.567335,0.38885,-10.782272,-7.657444,14.30601,-2.206777,0.34051,0.823446,40.243392,15.913011,12.703744,4.63583E+18,-0.693705,-0.208265,-0.66174,0.193648,4
-0.097185,-7.036899,2.830304,-2.590865,0.26078,0.550309,42.346773,-14.553351,-0.97801,4.63583E+18,0.800378,-0.189941,0.526161,0.215575,-16.626929,20.759026,3.969381,-5.952326,-4.039794,-1.296743,41.702725,-19.371585,-2.111476,4.63582E+18,0.647919,-0.345632,0.544809,0.404874,-10.027554,-6.765119,14.926622,-1.035065,0.394472,1.006162,40.263916,15.389994,12.969512,4.63583E+18,-0.694213,-0.208465,-0.662898,0.187553,4
1.177069,-6.884904,1.366727,-2.316527,0.210628,0.306952,42.270146,-14.747955,-1.228292,4.63583E+18,0.797746,-0.19706,0.525018,0.221641,-17.550918,19.310259,-4.039955,-6.318318,-4.254628,-1.501967,41.710459,-18.955923,-4.293366,4.63583E+18,0.650692,-0.35864,0.520254,0.421085,-9.254848,-6.590256,13.947822,-0.115859,0.412691,1.123503,40.381374,14.744077,13.169225,4.63583E+18,-0.693944,-0.211653,-0.663268,0.183633,4
1.737591,-5.809709,1.398578,-2.065211,0.024931,0.140963,42.241003,-14.733637,-1.447302,4.63583E+18,0.795816,-0.203512,0.523308,0.226732,-13.98452,18.204771,-9.21028,-6.479876,-4.249631,-1.584227,41.716142,-18.162125,-6.476665,4.63583E+18,0.652669,-0.37189,0.494752,0.436968,-8.449265,-6.767516,12.112195,0.5244,0.392477,1.191739,40.645215,14.169101,13.325048,4.63583E+18,-0.693226,-0.216759,-0.66304,0.181194,4
1.360371,-4.115034,2.765175,-2.013876,0.172303,0.138331,42.352249,-14.648195,-1.580872,4.63583E+18,0.793555,-0.209922,0.522095,0.23156,-11.322114,10.839159,-11.672901,-6.102921,-4.143558,-1.586807,41.768081,-17.151441,-8.960585,4.63583E+18,0.654343,-0.383928,0.469709,0.451451,-8.042025,-6.22745,9.793602,0.803292,0.328274,1.19166,40.688303,13.925778,13.426601,4.63583E+18,-0.692409,-0.222615,-0.662393,0.179577,4
0.707915,-2.343517,2.808282,-1.966804,0.602401,0.270507,42.510953,-14.686199,-1.743656,4.63583E+18,0.790215,-0.216289,0.522424,0.236332,-6.573251,2.71288,-13.093425,-5.910438,-3.711765,-1.711062,41.657026,-16.137039,-11.262745,4.63583E+18,0.655102,-0.396134,0.445563,0.464104,-7.596865,-5.149106,7.172322,0.669157,0.245281,1.118365,40.638447,13.793572,13.470214,4.63583E+18,-0.69184,-0.22791,-0.661618,0.177977,4
-0.127608,-0.233028,1.308682,-1.819925,0.693814,0.45814,42.502099,-14.895097,-1.856214,4.63583E+18,0.786565,-0.221843,0.523327,0.241309,-2.644229,-5.235432,-14.004778,-5.587631,-3.302273,-1.872797,41.497286,-15.031531,-13.070342,4.63583E+18,0.655398,-0.408217,0.422515,0.474651,-7.070395,-3.805497,4.662324,0.153835,0.144966,0.965001,40.693001,13.538251,13.372554,4.63583E+18,-0.691907,-0.231218,-0.661064,0.175491,4
-1.013291,1.995425,0.379058,-1.703866,0.539873,0.644643,42.420041,-15.080904,-1.871123,4.63583E+18,0.783119,-0.22644,0.523978,0.24677,0.881965,-13.990238,-12.989662,-5.047487,-2.889288,-2.00721,41.418674,-13.770777,-14.733932,4.63583E+18,0.65568,-0.419584,0.401129,0.482834,-6.821346,-2.27677,2.931303,-0.659345,0.016086,0.736561,40.860001,13.256455,13.33724,4.63583E+18,-0.692933,-0.231457,-0.660941,0.171547,4
-1.742326,3.758661,0.307908,-1.610165,0.592004,0.845042,42.343406,-15.301323,-1.788375,4.63583E+18,0.779392,-0.230335,0.52505,0.252617,4.542269,-21.202441,-13.360605,-4.219379,-2.514942,-2.118162,41.419463,-12.484923,-16.38243,4.63583E+18,0.656633,-0.429385,0.382006,0.488399,-7.055081,-0.799006,1.82596,-1.684997,-0.181799,0.469454,41.053741,12.950523,13.555645,4.63583E+18,-0.69528,-0.227849,-0.661213,0.165735,4
-2.748602,4.904579,-0.25764,-1.524669,0.591462,1.021372,42.040974,-15.783444,-1.660897,4.63583E+18,0.775513,-0.23355,0.526345,0.258834,6.810232,-25.56383,-11.778932,-2.930284,-2.301067,-2.007184,41.166519,-11.416313,-17.564986,4.63583E+18,0.659064,-0.435745,0.366135,0.491636,-7.280029,-0.001809,1.16544,-2.77449,-0.39975,0.222369,41.244398,12.459374,13.973305,4.63583E+18,-0.699026,-0.22023,-0.661781,0.157824,4
-3.778125,5.237648,-1.537358,-1.346771,0.41143,1.114133,41.756117,-16.180891,-1.685294,4.63583E+18,0.772055,-0.235777,0.527307,0.265116,8.150016,-31.112096,-13.14881,-1.384932,-1.878491,-1.748649,41.012414,-10.456536,-18.338373,4.63583E+18,0.662977,-0.438233,0.354976,0.492347,-7.426988,-0.581141,0.828823,-3.73333,-0.562584,0.023061,41.214286,11.910062,14.180585,4.63583E+18,-0.703837,-0.209119,-0.662563,0.147967,4
-4.537741,4.485578,-2.417044,-1.115866,0.217849,1.143808,41.749995,-16.387078,-1.70022,4.63583E+18,0.769177,-0.23697,0.527904,0.271163,7.114798,-32.243212,-15.103681,0.01882,-1.477244,-1.541684,40.963473,-9.702322,-18.986246,4.63583E+18,0.668361,-0.437311,0.348142,0.490764,-8.184968,-1.836168,0.769805,-4.463251,-0.686433,-0.135131,41.118427,11.434757,14.259512,4.63583E+18,-0.709318,-0.195294,-0.663372,0.136623,4
-5.261915,3.014886,-1.992015,-0.982893,0.091348,1.130521,41.712037,-16.677955,-1.820224,4.63583E+18,0.766687,-0.237618,0.528207,0.276995,7.341665,-28.167167,-13.180042,1.268085,-1.121653,-1.357597,40.818156,-9.3497,-19.418802,4.63583E+18,0.675076,-0.433335,0.34516,0.487193,-9.48232,-2.344873,1.122454,-5.030142,-0.802935,-0.257839,41.18515,11.094001,14.450936,4.63583E+18,-0.715228,-0.179313,-0.663996,0.124117,4
-6.050583,0.774491,-1.414154,-0.775841,0.112848,1.133716,41.459142,-17.125497,-1.991116,4.63583E+18,0.76432,-0.237617,0.528799,0.282355,7.885874,-22.551609,-8.895984,2.355259,-0.784378,-1.087499,40.763919,-9.30321,-19.550633,4.63583E+18,0.682649,-0.426551,0.345786,0.482158,-10.731116,-2.407899,1.744481,-5.439885,-0.875558,-0.337911,41.317639,10.578792,14.641827,4.63583E+18,-0.721255,-0.161768,-0.664354,0.110708,4
-7.041439,-1.844853,-1.643159,-0.558739,0.019078,1.146832,41.080022,-17.62265,-2.223734,4.63583E+18,0.762335,-0.236777,0.529345,0.287361,7.903138,-13.818187,-0.806484,2.965383,-0.524917,-0.761061,40.804793,-9.394277,-19.455209,4.63582E+18,0.690175,-0.418019,0.348905,0.476639,-11.746894,-2.808594,2.418667,-5.620114,-0.879596,-0.372691,41.369298,9.871537,14.93886,4.63583E+18,-0.727007,-0.143493,-0.664448,0.096843,4
-8.826135,-4.244913,-1.597197,-0.307691,-0.188058,1.19898,40.853469,-17.999737,-2.347873,4.63583E+18,0.760971,-0.234764,0.529572,0.292167,8.300276,-3.043335,7.357071,2.999268,-0.361032,-0.434173,40.63271,-9.609781,-19.347457,4.63582E+18,0.696756,-0.409171,0.353074,0.471645,-12.567972,-3.196218,3.236743,-5.563949,-0.832086,-0.362071,41.525873,9.376697,15.360986,4.63583E+18,-0.732196,-0.125359,-0.664291,0.083017,4
-10.941997,-6.213743,-1.534739,0.038588,-0.179298,1.211519,40.809349,-18.329325,-2.359423,4.63583E+18,0.75989,-0.23163,0.530247,0.29623,6.700855,4.087976,15.498203,2.491327,-0.249125,-0.083897,40.458724,-9.993597,-19.213481,4.63582E+18,0.701523,-0.401445,0.357119,0.468159,-13.083678,-3.366053,4.15209,-5.297699,-0.744765,-0.303836,41.727733,8.967146,15.493853,4.63583E+18,-0.736642,-0.108166,-0.663932,0.069663,4
-13.404378,-7.537086,-2.146238,0.349028,-0.096154,1.071879,40.756469,-18.711805,-2.338403,4.63583E+18,0.759075,-0.22792,0.53142,0.29908,1.216113,8.04803,20.568255,1.827016,-0.207551,0.328798,40.546405,-10.253343,-19.388747,4.63582E+18,0.704251,-0.395094,0.36065,0.466758,-13.087792,-3.655804,4.73273,-4.814967,-0.616771,-0.224659,41.766487,8.42106,15.341884,4.63583E+18,-0.740206,-0.092665,-0.663493,0.057311,4
-16.802511,-8.422076,-2.080869,0.570955,-0.259801,0.827814,40.621561,-19.12339,-2.38448,4.63583E+18,0.759119,-0.223843,0.532109,0.300819,-9.235099,10.884403,24.035454,1.155519,-0.283664,0.691765,40.583909,-10.614126,-19.43855,4.63582E+18,0.705248,-0.390001,0.363231,0.467533,-12.662672,-3.924072,4.864576,-4.160809,-0.46675,-0.164963,41.70934,7.721347,15.412068,4.63583E+18,-0.742856,-0.079346,-0.663104,0.0465,4
-21.042311,-9.004103,-1.542452,0.804803,-0.429812,0.66622,40.462862,-19.476772,-2.387236,4.63583E+18,0.759944,-0.219165,0.532393,0.301678,-24.227155,12.145672,21.43263,0.580611,-0.486489,0.759132,40.33641,-11.098984,-19.384357,4.63582E+18,0.705468,-0.386089,0.364196,0.469694,-12.215582,-3.538524,4.442408,-3.444087,-0.328683,-0.139387,41.757774,7.137839,15.713746,4.63583E+18,-0.744704,-0.06832,-0.662827,0.037527,4
-25.406649,-8.993547,1.26406,0.744985,0.428076,0.512835,40.304162,-19.621338,-2.168964,4.63583E+18,0.758988,-0.216089,0.53517,0.301389,-39.785361,12.671087,12.150637,0.109788,-0.774637,0.451687,40.047973,-11.438337,-19.595239,4.63582E+18,0.705956,-0.383457,0.362891,0.47212,-11.709248,-2.502594,3.089819,-2.792566,-0.195892,-0.136827,41.93243,6.874924,15.775854,4.63583E+18,-0.745873,-0.059335,-0.662748,0.0303,4
-28.946668,-8.292723,-0.800555,0.391655,1.661341,0.214718,40.207159,-19.694569,-1.602941,4.63583E+18,0.755313,-0.216338,0.541116,0.299822,-38.252863,10.06625,-0.434369,-0.238668,-0.845623,-0.180851,39.887039,-11.393808,-19.878258,4.63582E+18,0.70723,-0.38266,0.359676,0.473319,-10.483127,-1.555053,0.740451,-2.247021,-0.033752,-0.158343,41.885752,6.673971,15.87753,4.63583E+18,-0.746373,-0.052,-0.663036,0.024604,4
-31.415243,-7.075602,-9.249068,0.172761,1.905176,0.096683,40.195581,-19.706147,-0.790564,4.63583E+18,0.750992,-0.217841,0.547417,0.298147,-36.129936,-1.716437,-5.394412,0.05326,-0.915536,-0.50811,39.73173,-11.165261,-20.135602,4.63582E+18,0.709707,-0.38135,0.356303,0.473219,-8.796346,-0.70015,-2.15917,-1.851999,0.168586,-0.195106,41.793722,6.407147,16.197739,4.63583E+18,-0.746171,-0.045808,-0.663873,0.020064,4
-33.597042,-3.318751,-16.048534,-0.190256,0.933572,0.059362,40.207788,-19.641077,-0.276217,4.63583E+18,0.748573,-0.219354,0.550169,0.298054,-29.072989,-8.0083,-2.21267,0.671549,-0.981149,-0.419235,39.664079,-11.033268,-20.25106,4.63582E+18,0.713073,-0.377941,0.354087,0.472557,-7.419629,1.053294,-4.412834,-1.69915,0.404021,-0.237768,41.810356,6.271808,16.45558,4.63583E+18,-0.745242,-0.039992,-0.6654,0.016033,4
-33.984942,2.187231,-17.449939,-0.547086,-0.90462,0.143634,40.202378,-19.617296,-0.452762,4.63583E+18,0.749927,-0.219495,0.546814,0.300709,-18.719688,-4.510288,3.394678,0.775326,-0.995712,-0.244105,39.616249,-11.054414,-20.479707,4.63582E+18,0.716258,-0.373925,0.352299,0.472271,-6.8495,3.369054,-5.615508,-1.838485,0.643214,-0.24076,41.763718,6.139725,16.52165,4.63583E+18,-0.74363,-0.033654,-0.667645,0.011477,4
-30.70254,5.191616,-14.057197,-0.706752,-2.614248,0.413277,40.19017,-19.81108,-1.310248,4.63583E+18,0.754637,-0.217356,0.538124,0.306109,-13.245636,-4.951669,9.047213,0.587214,-1.010862,0.118182,39.31222,-11.225302,-20.842543,4.63582E+18,0.71844,-0.369899,0.350649,0.473353,-7.472275,4.9358,-5.934995,-2.173113,0.869264,-0.179922,41.621122,5.927223,16.876837,4.63583E+18,-0.741377,-0.026458,-0.670543,0.005768,4
-26.78201,5.170322,-10.073474,-0.793166,-2.639164,0.772094,40.125109,-20.070844,-2.347912,4.63583E+18,0.758761,-0.214622,0.529496,0.312816,-11.573883,-4.18,10.215013,0.232555,-1.04058,0.55153,39.085854,-11.425088,-21.09774,4.63582E+18,0.719247,-0.366234,0.348871,0.476283,-8.917041,5.36124,-5.683622,-2.568969,1.093362,-0.082529,41.514046,5.760218,17.54819,4.63583E+18,-0.738456,-0.01841,-0.674049,-0.001269,4
-24.987954,3.661478,-9.112747,-1.055744,-1.19215,1.102458,39.801858,-20.38883,-3.103606,4.63583E+18,0.758944,-0.213855,0.525339,0.319826,-12.944743,-2.540404,8.190816,-0.272815,-1.095638,0.907963,38.908288,-11.725785,-21.254251,4.63582E+18,0.718633,-0.363444,0.346456,0.481086,-9.97183,4.957844,-4.892845,-2.853324,1.299658,0.07527,41.364204,5.450006,18.103046,4.63583E+18,-0.734864,-0.009935,-0.678074,-0.009602,4
-25.021407,1.426895,-11.459377,-1.47651,-0.209152,1.340943,39.510144,-20.845077,-3.680071,4.63583E+18,0.75623,-0.215189,0.523907,0.327613,-16.985233,-3.727711,4.892632,-0.70666,-1.174384,1.232373,38.562036,-11.894464,-21.783624,4.63582E+18,0.716791,-0.361309,0.343411,0.487582,-10.490607,4.711504,-3.443551,-2.95372,1.477934,0.277871,40.997996,4.788053,18.470373,4.63583E+18,-0.730629,-0.001615,-0.68251,-0.018957,4
-25.5259,-1.435784,-14.916379,-1.886066,-0.884331,1.457832,39.266004,-21.345563,-4.22058,4.63583E+18,0.754393,-0.216617,0.519844,0.33724,-20.284298,-4.106141,1.465971,-1.054071,-1.212931,1.471716,38.130377,-12.099761,-22.481602,4.63582E+18,0.713944,-0.359765,0.33988,0.495313,-10.591043,4.783075,-2.210136,-2.915516,1.640133,0.481093,40.69006,4.071759,19.14948,4.63583E+18,-0.725772,0.006023,-0.687305,-0.02882,4
-24.554101,-3.911466,-16.196769,-2.132418,-2.741386,1.406502,38.889844,-21.731533,-5.250619,4.63583E+18,0.756293,-0.216276,0.50946,0.348851,-23.132081,-5.244752,-0.847963,-1.287223,-1.223029,1.645052,37.900643,-12.499293,-22.860052,4.63582E+18,0.71034,-0.358614,0.336065,0.503859,-10.154386,5.310154,-1.562004,-2.753308,1.784383,0.692003,40.479762,3.359846,20.153271,4.63583E+18,-0.72034,0.012484,-0.692426,-0.038749,4
-21.516181,-5.227778,-13.659428,-2.382615,-4.444268,1.215388,38.462612,-22.0205,-6.752969,4.63583E+18,0.761594,-0.214564,0.492996,0.361791,-25.345786,-5.057361,-2.480116,-1.384128,-1.201576,1.737779,37.634366,-12.799999,-23.273906,4.63582E+18,0.70629,-0.357628,0.332213,0.512729,-8.84223,6.594671,-1.702851,-2.504491,1.904984,0.908005,40.207327,2.64352,20.942858,4.63583E+18,-0.714401,0.017584,-0.697826,-0.048591,4
-16.608768,-5.678191,-7.476183,-2.431147,-4.833433,0.864458,38.035353,-22.236246,-8.707658,4.63583E+18,0.767802,-0.213026,0.474667,0.373887,-26.078348,-3.362612,-4.387985,-1.323826,-1.136801,1.717098,37.158233,-12.999772,-23.8122,4.63582E+18,0.70221,-0.356592,0.328612,0.521303,-6.616821,7.525235,-2.65439,-2.198697,2.003395,1.105939,39.930463,1.958841,21.599203,4.63583E+18,-0.708029,0.021211,-0.703468,-0.058119,4
-10.919196,-5.036655,0.91856,-2.646877,-3.341546,0.337879,37.660911,-22.070646,-10.469418,4.63583E+18,0.771363,-0.215451,0.460106,0.383253,-25.53457,-0.724789,-6.054863,-1.082724,-1.080966,1.566883,36.711002,-13.331583,-24.175087,4.63582E+18,0.698673,-0.355144,0.325444,0.528976,-4.176463,7.949173,-3.46017,-1.798214,2.068024,1.291989,39.634725,1.296881,22.318364,4.63583E+18,-0.701339,0.023119,-0.709295,-0.067006,4
-7.585688,-3.678265,5.391669,-3.069477,-0.998641,-0.257057,37.430154,-21.87111,-11.620969,4.63583E+18,0.770807,-0.224064,0.451746,0.38933,-25.287045,3.167489,-6.16594,-0.750086,-1.077069,1.352217,36.367035,-13.686655,-24.516819,4.63582E+18,0.696045,-0.353001,0.322678,0.535528,-1.791052,8.238873,-3.845276,-1.287181,2.099102,1.492449,39.276842,0.580553,22.908178,4.63583E+18,-0.694444,0.022943,-0.715263,-0.074959,4
-8.382806,-3.52345,2.423694,-3.076639,0.410265,-0.672362,37.431883,-21.712405,-12.242109,4.63583E+18,0.768134,-0.235722,0.447429,0.392699,-25.645302,8.682852,-5.862626,-0.427515,-1.180062,1.136909,35.916499,-14.086151,-25.080521,4.63582E+18,0.694472,-0.349962,0.319997,0.541144,0.062911,8.350917,-3.624856,-0.685431,2.067678,1.719742,38.867963,-0.154583,23.568383,4.63583E+18,-0.687533,0.020334,-0.721248,-0.08177,4
-11.518155,-5.077897,-3.565142,-2.659591,-0.260352,-0.698684,37.557934,-21.087221,-12.747983,4.63583E+18,0.767052,-0.244957,0.441553,0.395802,-26.484406,12.369071,-7.617264,-0.211708,-1.373194,1.102714,35.523643,-14.400236,-25.618805,4.63582E+18,0.693512,-0.345891,0.317178,0.546625,1.049702,9.202151,-2.533769,0.040221,1.941829,1.97557,38.386845,-0.874353,24.299796,4.63583E+18,-0.680881,0.01483,-0.727041,-0.087136,4
-13.480743,-7.611334,-4.248657,-2.345589,-2.56647,-0.376138,37.581198,-20.281559,-13.612733,4.63583E+18,0.769868,-0.248749,0.429075,0.40165,-26.553758,12.724665,-13.075457,-0.19142,-1.568117,1.091196,35.091998,-14.602271,-26.034902,4.63582E+18,0.692823,-0.341311,0.313805,0.552295,1.691622,12.116452,-1.817973,0.702598,1.789243,2.223783,37.943494,-1.408728,24.866913,4.63583E+18,-0.674545,0.006635,-0.732549,-0.091197,4
-11.45262,-11.032302,1.958197,-2.35644,-3.536854,0.078698,37.380756,-20.012757,-15.062611,4.63583E+18,0.77344,-0.250072,0.413821,0.409886,-24.629066,7.859434,-19.408031,-0.32835,-1.627379,0.897128,34.590314,-14.656567,-26.600876,4.63582E+18,0.692421,-0.337222,0.309649,0.557631,2.950003,18.648297,-4.991983,1.000749,1.790532,2.42385,37.550084,-1.935169,25.456555,4.63583E+18,-0.668026,-0.003012,-0.738056,-0.094895,4
-7.663012,-13.591991,7.771859,-2.436288,-2.393268,0.483753,36.892257,-19.951731,-16.342743,4.63583E+18,0.774068,-0.252833,0.402431,0.418263,-22.294491,1.646992,-19.616986,0.111006,-1.658664,0.330002,34.389382,-14.900734,-27.077,4.63582E+18,0.693954,-0.332505,0.305609,0.560777,4.273828,30.215463,-13.728453,0.102449,1.806792,2.566484,37.254353,-2.647571,26.237859,4.63583E+18,-0.661296,-0.010594,-0.743118,-0.101735,4
-5.675528,-13.648296,9.287529,-2.517261,-1.182873,0.872928,36.30975,-19.64434,-17.21741,4.63583E+18,0.77177,-0.257259,0.395144,0.426673,-25.152049,-3.367371,-13.254182,0.597295,-1.967618,-0.515327,34.279627,-15.071767,-27.553032,4.63582E+18,0.688562,-0.331923,0.294861,0.573382,2.01544,36.621626,-8.588146,-1.633484,0.90413,2.564402,36.927494,-3.623501,26.84067,4.63583E+18,-0.657326,-0.013775,-0.744824,-0.113883,4
-5.264239,-11.178872,9.743441,-2.486457,-0.716602,1.191355,35.961332,-19.479048,-17.916146,4.63583E+18,0.768061,-0.26185,0.389693,0.435495,-28.057347,-12.037916,-10.314307,0.259099,-2.486295,-1.108222,33.905778,-14.897585,-28.102139,4.63582E+18,0.694014,-0.326763,0.286496,0.574013,-0.435412,27.511089,5.673701,-2.579658,0.197796,2.349094,36.65122,-4.853958,26.913014,4.63583E+18,-0.655579,-0.014031,-0.744012,-0.128315,4
-4.357194,-6.995066,10.27851,-2.372138,-0.315981,1.095108,35.828181,-19.643355,-18.578662,4.63583E+18,0.763894,-0.266927,0.38557,0.44334,-22.432267,-23.738658,-10.495095,-0.375798,-2.994751,-0.92003,33.292137,-14.682213,-29.032054,4.63582E+18,0.698655,-0.321926,0.275367,0.576556,4.15742,7.374972,3.31135,-2.749479,0.316036,2.147982,36.408651,-6.138033,26.664988,4.63583E+18,-0.653446,-0.013134,-0.743284,-0.142705,4
-1.491192,-3.654318,9.325364,-2.360674,0.103772,0.873294,35.742726,-19.714956,-18.965134,4.63583E+18,0.759383,-0.273072,0.382508,0.449952,-17.217844,-23.918657,-12.507263,-1.113826,-3.39339,-0.814093,32.507661,-14.479538,-30.191529,4.63582E+18,0.702353,-0.318073,0.261396,0.580691,-0.232096,-15.460754,-0.992289,-1.010189,0.811867,1.844718,36.254989,-7.221297,26.645155,4.63583E+18,-0.649765,-0.015734,-0.744841,-0.150894,4
2.091637,-1.703933,7.165898,-2.474152,-0.028753,0.730783,35.595683,-19.600576,-19.184324,4.63583E+18,0.75514,-0.27952,0.378607,0.456388,-22.047048,-12.078857,-11.79817,-3.202735,-4.063298,-1.945849,31.727616,-13.536947,-31.375566,4.63582E+18,0.706524,-0.319766,0.23884,0.584405,-19.026535,-18.002827,-11.179449,0.735714,1.427501,1.161964,36.001544,-7.867005,27.137287,4.63583E+18,-0.644415,-0.020443,-0.74915,-0.15194,4
3.531754,-0.307242,7.356485,-2.579081,-0.402563,0.686252,35.37201,-19.441893,-19.661144,4.63583E+18,0.751363,-0.285616,0.373234,0.46322,-37.326712,-12.837678,-10.515324,-5.221143,-4.604671,-2.803257,30.756677,-11.600558,-32.704943,4.63582E+18,0.710156,-0.326622,0.208482,0.58782,-34.222468,-10.169339,-20.571687,1.042799,1.609461,0.987951,35.568826,-7.909984,27.602919,4.63583E+18,-0.638532,-0.025317,-0.754099,-0.151565,4
4.596138,0.333744,10.505707,-2.634934,-0.271186,0.665314,35.295013,-19.107263,-20.247079,4.63583E+18,0.74726,-0.292137,0.368089,0.469861,-42.395122,-15.413773,-14.7175,-5.004086,-4.479585,-3.019967,29.663522,-9.508545,-34.194214,4.63582E+18,0.714321,-0.332817,0.178801,0.589074,-35.291041,-8.903651,-14.290408,0.521251,1.727845,1.373874,35.00398,-7.860251,28.028449,4.63583E+18,-0.632052,-0.030042,-0.758922,-0.153767,4
5.410184,1.987554,11.394727,-3.08249,0.371916,0.625952,35.221235,-18.704453,-20.701045,4.63583E+18,0.741582,-0.301331,0.363957,0.476225,-42.853329,-6.703123,-22.004945,-4.13028,-4.385856,-3.176733,28.634909,-7.616542,-35.630342,4.63582E+18,0.719393,-0.336468,0.151169,0.588567,-37.420687,-9.363531,-5.555263,0.137863,1.614248,1.906622,34.45243,-8.294973,28.528852,4.63583E+18,-0.625577,-0.035521,-0.763055,-0.158548,4
4.57083,3.986293,7.068526,-3.315312,0.686921,0.759325,35.193943,-18.301658,-20.901568,4.63583E+18,0.734725,-0.311611,0.360428,0.482875,-37.540408,-7.518603,-21.713529,-3.50089,-4.304658,-3.487341,27.564931,-5.739772,-36.775867,4.63582E+18,0.725503,-0.338367,0.124772,0.586162,-36.468108,-7.041952,1.054293,0.211238,1.204598,2.323976,34.031781,-8.952946,29.060301,4.63583E+18,-0.620046,-0.042788,-0.766016,-0.164106,4
2.917228,8.302058,3.256484,-3.393968,0.617061,1.011537,35.185148,-18.013129,-21.14678,4.63583E+18,0.727212,-0.321541,0.356775,0.490394,-35.92382,-5.926298,-23.298117,-2.821887,-4.115667,-3.700593,26.596451,-3.946723,-37.689015,4.63582E+18,0.732482,-0.338547,0.100215,0.582077,-27.611262,2.656688,7.869451,0.097877,0.954244,2.617487,33.646796,-9.691931,29.5074,4.63583E+18,-0.615056,-0.050865,-0.768098,-0.170718,4
0.828677,10.627782,0.280006,-3.469504,0.586206,1.147397,35.234504,-17.830554,-21.439742,4.63583E+18,0.719204,-0.331355,0.352974,0.498356,-37.068272,-4.389618,-23.424362,-2.359356,-3.890605,-3.727558,25.455774,-2.275076,-38.62774,4.63582E+18,0.739621,-0.337658,0.077365,0.577029,-17.651844,7.579465,11.055272,0.156548,0.828408,2.761067,33.171928,-10.420116,29.629465,4.63583E+18,-0.610267,-0.059636,-0.769757,-0.17746,4
-1.63923,8.983581,-1.710151,-3.349892,0.937722,0.907527,35.193423,-17.663069,-21.671151,4.63583E+18,0.71118,-0.341815,0.350058,0.504822,-35.210739,-2.675857,-22.383551,-1.970193,-3.647773,-3.569728,24.139924,-0.929182,-39.638383,4.63582E+18,0.746178,-0.335939,0.056225,0.572016,-6.200464,6.600333,10.397843,0.693364,0.785583,2.820847,32.670242,-10.931323,29.809617,4.63583E+18,-0.605347,-0.069988,-0.771567,-0.182594,4
-5.916775,6.290142,-2.951987,-3.253694,1.431682,0.151481,35.283824,-17.149308,-21.755554,4.63583E+18,0.704001,-0.35406,0.347645,0.5081,-30.490473,-1.734049,-19.40477,-1.474584,-3.447125,-3.24911,22.923686,0.174985,-40.195533,4.63582E+18,0.752529,-0.332888,0.037466,0.566994,2.231419,6.619097,4.858116,1.14324,0.792282,2.72634,32.218586,-11.35738,30.145761,4.63583E+18,-0.600249,-0.081157,-0.773636,-0.186015,4
-12.741747,2.183943,-4.402226,-3.06525,2.232779,-0.664077,35.618331,-16.43203,-21.721845,4.63583E+18,0.697502,-0.368548,0.34669,0.507415,-25.42302,0.194073,-15.151715,-1.138551,-3.110323,-2.711965,21.852733,1.1438,-40.566084,4.63582E+18,0.757745,-0.329372,0.021288,0.562924,8.584986,6.723894,-2.307045,1.158972,0.829429,2.442001,31.766948,-11.8373,30.579535,4.63583E+18,-0.595156,-0.091406,-0.775785,-0.188659,4
-23.180627,-2.549203,-4.213452,-2.763705,2.077597,-0.929207,36.196945,-15.748974,-21.528961,4.63583E+18,0.692091,-0.382126,0.345428,0.505638,-21.070374,3.504527,-12.093898,-1.181946,-2.647844,-2.086351,20.851748,2.11486,-41.176441,4.63582E+18,0.76119,-0.326933,0.007321,0.560045,11.834027,5.953101,-9.837821,0.834102,0.909225,2.116529,31.292052,-12.271411,31.049076,4.63583E+18,-0.590111,-0.099724,-0.777902,-0.191554,4
-31.445123,-8.769604,-6.446394,-2.95326,-0.789452,-0.728228,36.545085,-15.089739,-21.557313,4.63583E+18,0.689951,-0.389844,0.33575,0.509177,-17.237626,6.213107,-10.137363,-1.469393,-2.139572,-1.423207,19.884042,2.948361,-41.713705,4.63582E+18,0.762539,-0.326511,-0.004802,0.558481,11.170548,3.520004,-16.199304,0.371567,1.078326,1.766087,30.813592,-12.615881,31.389986,4.63583E+18,-0.584937,-0.105625,-0.780136,-0.19514,4
-29.320853,-17.841986,-11.022622,-2.966238,-2.866741,0.193023,36.179288,-14.333883,-22.509065,4.63583E+18,0.688575,-0.391813,0.321483,0.518648,-13.473121,6.911801,-8.66329,-1.826688,-1.588337,-0.728641,19.165755,3.522109,-41.885816,4.63582E+18,0.761698,-0.328478,-0.015061,0.558293,7.13684,2.644396,-18.537781,-0.285575,1.158661,1.42229,30.435193,-13.119284,31.539461,4.63583E+18,-0.58003,-0.108736,-0.782127,-0.200047,4
-21.881994,-21.008423,-12.391982,-2.307505,-5.280121,1.276291,35.115401,-14.015084,-24.305801,4.63583E+18,0.688849,-0.385044,0.303338,0.534055,-10.138017,6.392803,-7.811803,-2.081935,-0.98487,0.004762,18.928184,4.111337,-41.882529,4.63582E+18,0.758764,-0.332672,-0.022993,0.559534,1.137864,3.600178,-16.647662,-1.052244,1.070986,1.203634,30.03355,-13.812439,31.625778,4.63583E+18,-0.575873,-0.109235,-0.783331,-0.206955,4
-12.274837,-14.818365,0.374926,-1.940441,-6.001581,1.798888,33.703183,-14.170841,-26.220028,4.63583E+18,0.688999,-0.374681,0.28458,0.551279,-7.362705,5.210186,-7.5563,-2.207861,-0.339105,0.757144,18.859291,4.770472,-41.789382,4.63582E+18,0.753893,-0.338811,-0.028133,0.562194,-4.570396,3.817789,-11.511894,-1.556185,0.911826,1.102995,29.60509,-14.396927,31.77974,4.63583E+18,-0.572539,-0.108435,-0.783692,-0.215101,4
-3.474215,-8.627514,10.177169,-1.9609,-2.043126,2.037373,32.516189,-14.316348,-27.625283,4.63583E+18,0.683542,-0.372998,0.277374,0.562767,-4.53108,3.714001,-7.706067,-2.203023,0.340473,1.52163,18.920328,5.385431,-41.623969,4.63582E+18,0.747234,-0.346579,-0.030045,0.566234,-10.300605,3.309577,-5.653434,-1.663957,0.766676,0.995898,29.226675,-14.876866,31.795815,4.63583E+18,-0.569783,-0.107159,-0.783595,-0.223255,4
-1.906702,-4.972111,0.785632,-1.561814,0.446962,2.197979,32.039573,-14.343699,-28.028678,4.63583E+18,0.67532,-0.375772,0.278389,0.570296,-1.159276,2.621656,-8.02975,-2.177674,1.09563,2.315418,19.08753,5.756237,-41.518612,4.63582E+18,0.738716,-0.356093,-0.028396,0.571569,-13.999472,3.817892,-1.9983,-1.507649,0.598409,0.96169,28.848277,-15.411532,31.851167,4.63583E+18,-0.567501,-0.106294,-0.783204,-0.230727,4
-4.060211,0.367558,-3.566035,-1.304573,-0.484446,2.170877,32.032699,-14.580952,-28.043825,4.63583E+18,0.668561,-0.375593,0.277316,0.578836,1.409502,2.091985,-8.789994,-2.169668,1.860736,3.128627,19.807408,5.898386,-41.252572,4.63582E+18,0.728176,-0.367411,-0.023161,0.578128,-14.366374,4.333558,-1.033841,-1.29979,0.423085,1.129843,28.520133,-16.042426,31.942301,4.63583E+18,-0.565506,-0.106632,-0.782477,-0.237828,4
-3.774826,4.862134,-1.909232,-1.013704,-2.017174,1.772722,31.643664,-14.972048,-28.497316,4.63583E+18,0.664904,-0.371315,0.272019,0.588246,2.603248,2.123597,-9.334046,-2.236766,2.627859,3.88047,20.888194,5.89512,-40.648934,4.63582E+18,0.715515,-0.38071,-0.014601,0.585563,-15.312997,5.496817,-1.850669,-1.378596,0.119069,1.407276,28.296551,-16.719077,31.812074,4.63583E+18,-0.564229,-0.107984,-0.780783,-0.245689,4
-2.573167,6.33694,-1.541927,-0.724454,-1.732733,1.195821,30.955751,-15.21135,-29.149618,4.63583E+18,0.662708,-0.36754,0.267296,0.595219,2.738412,3.011644,-9.522929,-2.42936,3.389668,4.540873,22.150937,5.821875,-39.912263,4.63582E+18,0.700582,-0.396268,-0.003187,0.593419,-16.307071,6.053844,-2.775575,-1.664304,-0.289726,1.738455,28.091673,-17.55895,31.324997,4.63583E+18,-0.564026,-0.110151,-0.777618,-0.255053,4
-4.235059,5.826657,-0.90125,-0.539039,0.258424,0.704699,30.522031,-15.259254,-29.325606,4.63583E+18,0.659755,-0.368721,0.267762,0.597555,1.60762,4.954487,-9.519362,-2.7013,4.113799,5.077151,23.616848,5.764105,-38.968846,4.63582E+18,0.68335,-0.414115,0.010555,0.60119,-16.793722,5.209123,-2.857362,-1.700994,-0.512783,2.037667,27.894937,-18.525943,30.845875,4.63583E+18,-0.564181,-0.113424,-0.773661,-0.265108,4
-9.424565,4.556147,-0.917892,-0.43796,1.811407,0.345988,30.670288,-15.259254,-28.988302,4.63583E+18,0.65609,-0.373879,0.272184,0.596386,-0.97804,7.022761,-9.866267,-3.001214,4.77172,5.509593,25.204478,5.749801,-38.15998,4.63582E+18,0.663826,-0.434042,0.026152,0.608488,-16.804753,4.661612,-1.537657,-1.338893,-0.390381,2.253366,27.593642,-19.477854,30.549856,4.63583E+18,-0.563464,-0.118093,-0.770192,-0.274528,4
-17.137205,1.975086,-2.17977,-0.355547,1.25425,0.109994,31.114084,-15.259254,-28.585945,4.63583E+18,0.653747,-0.377679,0.274908,0.595314,-4.60193,8.178834,-10.545799,-3.228673,5.321641,5.841017,27.116348,5.538212,-37.13749,4.63582E+18,0.642498,-0.455429,0.043468,0.614729,-16.801979,6.120569,0.122481,-0.961357,-0.153203,2.425107,27.292936,-20.170858,30.378953,4.63583E+18,-0.561539,-0.123917,-0.767531,-0.283221,4
-22.993285,-2.733197,-3.801679,-0.172321,0.293368,0.212512,31.303658,-15.259254,-28.550146,4.63583E+18,0.65253,-0.378474,0.275627,0.595812,-8.618283,9.442424,-10.994581,-3.539579,5.837915,6.058363,29.199322,4.989973,-35.451995,4.63582E+18,0.618782,-0.478327,0.061522,0.620102,-17.436651,5.879855,1.780781,-0.697235,-0.052486,2.604918,26.93305,-20.697161,30.269882,4.63583E+18,-0.558879,-0.130804,-0.765226,-0.291503,4
-22.33667,-6.423403,-5.727458,0.328895,-0.329563,0.392122,31.1485,-15.320748,-28.709305,4.63583E+18,0.652362,-0.376155,0.276173,0.59721,-11.961039,9.73359,-12.003249,-4.019711,6.322059,6.228619,31.165752,4.503884,-33.651144,4.63582E+18,0.592574,-0.502934,0.079812,0.624134,-17.85649,5.416993,2.014532,-0.440672,-0.038467,2.824682,26.408014,-21.432335,30.271115,4.63583E+18,-0.555693,-0.138955,-0.763039,-0.299446,4
-16.644465,-7.951999,-4.902327,0.970289,-0.945382,0.524026,31.027343,-15.573096,-28.743074,4.63583E+18,0.653563,-0.3704,0.276844,0.59918,-14.009788,8.815449,-12.995936,-4.54984,6.729265,6.354558,33.147988,3.98145,-31.620211,4.63582E+18,0.56375,-0.528992,0.097841,0.626722,-19.351885,5.973413,1.734231,-0.235972,-0.050311,3.085186,25.72051,-22.384548,30.21842,4.63583E+18,-0.552016,-0.148397,-0.760808,-0.307291,4
-10.034991,-9.216938,0.112922,1.361117,0.6347,0.573713,31.077075,-16.074938,-28.446362,4.63583E+18,0.6534,-0.367451,0.282866,0.59836,-15.106595,8.206314,-13.618908,-5.104539,7.076455,6.394898,34.9323,3.251284,-29.661775,4.63582E+18,0.532366,-0.556222,0.115129,0.627654,-21.344825,5.152718,2.203866,0.021567,-0.00063,3.347205,25.005366,-23.290368,30.192155,4.63583E+18,-0.547588,-0.159169,-0.758717,-0.314899,4
-8.361465,-10.511851,-1.947413,1.991471,2.010636,0.616123,31.227423,-16.701333,-27.894245,4.63583E+18,0.652413,-0.366134,0.294244,0.594747,-16.620752,7.2934,-14.79935,-5.556558,7.353182,6.400625,36.753264,2.528841,-27.53489,4.63582E+18,0.498666,-0.584008,0.131615,0.626853,-24.211028,4.076687,3.269557,0.414329,0.15869,3.566744,24.291132,-23.945309,30.233253,4.63583E+18,-0.541994,-0.171288,-0.757196,-0.321805,4
-10.416464,-10.056709,-5.906608,2.78584,1.802273,0.5211,31.468556,-17.286779,-27.020508,4.63583E+18,0.653004,-0.362206,0.306824,0.590128,-17.511454,4.842147,-16.224351,-5.766124,7.566743,6.426439,38.667727,1.76553,-25.02566,4.63582E+18,0.463161,-0.611471,0.147762,0.624301,-27.974042,2.812855,4.552168,0.865452,0.35713,3.902023,23.618424,-24.274882,30.288546,4.63583E+18,-0.534868,-0.185178,-0.75629,-0.328101,4
-11.229312,-7.335543,-5.459044,3.373291,1.682184,0.294131,31.728329,-17.962452,-26.035169,4.63583E+18,0.655046,-0.356601,0.320112,0.584191,-16.864785,0.485494,-17.499869,-5.429295,7.756172,6.553127,40.406922,0.745419,-22.56135,4.63582E+18,0.427008,-0.637303,0.165128,0.619872,-31.790586,0.926062,5.857129,1.322594,0.526518,4.33869,22.694373,-24.685522,30.568862,4.63583E+18,-0.52609,-0.201174,-0.7558,-0.333954,4
-11.190327,-3.718186,-4.20482,3.654059,1.9554,-0.033709,32.116437,-18.928645,-24.967246,4.63583E+18,0.657769,-0.351235,0.334264,0.576404,-15.288879,-4.644069,-18.36911,-4.520967,7.942544,6.768638,41.808014,-0.853386,-19.883907,4.63582E+18,0.391612,-0.660411,0.185365,0.6133,-35.936634,-1.00234,5.915258,1.73005,0.587426,4.598137,21.488537,-25.267571,31.18753,4.63583E+18,-0.51621,-0.218714,-0.755488,-0.339013,4
-11.00295,-0.51348,-3.597134,3.656367,1.97278,-0.516886,32.661204,-19.797376,-23.81605,4.63583E+18,0.661433,-0.346477,0.347663,0.56709,-13.987845,-10.355912,-18.832162,-3.008767,8.104899,7.024264,42.780262,-2.685289,-17.019561,4.63582E+18,0.358738,-0.679825,0.210021,0.604182,-43.410023,-0.528214,5.187865,1.865293,0.473134,4.357957,20.383487,-25.717842,31.736162,4.63583E+18,-0.506694,-0.235858,-0.755024,-0.342887,4
-9.831758,2.81388,-2.220373,3.456238,1.674591,-1.169635,33.132951,-20.248379,-22.653099,4.63583E+18,0.666574,-0.342424,0.358718,0.556548,-13.550773,-15.832116,-17.949169,-0.974117,8.280748,7.274321,43.567442,-4.715965,-14.307154,4.63582E+18,0.33007,-0.694977,0.240312,0.591871,-52.121331,0.562683,4.437615,1.609423,0.191736,3.672768,19.443617,-25.873938,32.120332,4.63583E+18,-0.499122,-0.250629,-0.754012,-0.345729,4
-8.083006,6.751246,1.136942,2.968966,1.359726,-1.957576,33.612864,-20.153197,-21.589991,4.63583E+18,0.673143,-0.340087,0.366552,0.544847,-12.64988,-18.01308,-14.695531,1.173745,8.566295,7.415379,44.047323,-7.419013,-11.159038,4.63582E+18,0.306265,-0.706224,0.276168,0.575482,-55.555636,-2.350437,4.854436,1.374083,0.101852,3.169087,18.716407,-25.994732,32.464699,4.63583E+18,-0.492683,-0.263396,-0.752811,-0.348083,4
-7.18236,10.763235,5.427214,2.157004,1.292866,-2.734734,34.28015,-19.77395,-20.705017,4.63583E+18,0.680274,-0.340978,0.37117,0.532161,-13.574105,-16.296804,-9.678349,3.055489,8.856858,7.37913,44.223018,-10.316508,-7.782655,4.63582E+18,0.287026,-0.71415,0.316143,0.554671,-54.449426,-10.318608,4.320274,2.018574,0.293941,3.221441,18.028893,-26.069206,32.987118,4.63583E+18,-0.484745,-0.27731,-0.752703,-0.348653,4
-7.286025,13.124274,9.781419,1.311256,1.192874,-3.375136,35.06526,-19.241355,-20.226033,4.63583E+18,0.687609,-0.344958,0.372626,0.518988,-17.919837,-11.851338,-2.562226,4.385156,9.06646,7.16541,44.106192,-13.158979,-4.014968,4.63582E+18,0.271225,-0.71943,0.357993,0.52981,-54.084564,-17.114816,2.693918,4.247787,0.90436,3.71268,17.050992,-25.842368,33.799216,4.63583E+18,-0.471356,-0.29616,-0.756226,-0.343854,4
-8.201829,13.558587,13.439144,0.645169,0.931027,-3.587294,35.756835,-18.246265,-20.042229,4.63583E+18,0.69468,-0.350531,0.371489,0.506502,-23.326088,-7.971976,5.740225,5.040236,9.248829,6.787346,43.540462,-15.573482,0.068332,4.63582E+18,0.257398,-0.722868,0.399652,0.501485,-50.023214,-12.983357,5.922013,4.897328,1.668513,5.069295,15.628575,-25.268626,34.805316,4.63583E+18,-0.452467,-0.319244,-0.759943,-0.340357,4
-8.073145,10.624076,14.884036,0.161222,0.927079,-3.333902,36.394994,-17.156876,-19.841173,4.63583E+18,0.700367,-0.357025,0.369606,0.49539,-28.982608,-6.687167,13.409369,4.983503,9.461727,6.33276,42.75445,-17.58766,3.903574,4.63582E+18,0.242487,-0.72633,0.437751,0.471188,-42.203731,5.981603,-6.399977,5.009955,3.293048,6.248367,13.648371,-24.308082,36.175775,4.63583E+18,-0.426113,-0.343614,-0.764469,-0.340506,4
-5.96736,5.790247,15.874805,-0.090561,1.105874,-2.741834,37.214064,-16.375717,-19.398604,4.63583E+18,0.704069,-0.363643,0.368543,0.486032,-34.651984,-7.90343,18.565955,4.440129,9.574193,5.904859,41.439504,-19.573098,7.796904,4.63582E+18,0.225875,-0.729706,0.472216,0.439912,-46.918424,16.815708,-23.954997,5.001577,3.571856,6.44631,11.369537,-23.316764,37.622606,4.63583E+18,-0.398031,-0.367743,-0.768164,-0.340971,4
-1.956481,2.046393,16.617065,-0.227005,1.217737,-1.96356,38.34217,-16.187017,-18.917568,4.63583E+18,0.705547,-0.369794,0.36852,0.479216,-41.322239,-10.752911,21.965146,3.699664,9.512067,5.458273,39.540001,-21.325276,11.838235,4.63582E+18,0.207568,-0.732812,0.502856,0.408703,-57.517941,29.825815,-28.270058,2.036952,2.558361,5.685572,9.33106,-22.88116,38.549033,4.63583E+18,-0.378425,-0.385654,-0.766269,-0.347703,4
3.037174,-0.019638,16.714976,-0.348163,1.735851,-1.210697,39.325868,-16.064161,-18.462502,4.63583E+18,0.704486,-0.376153,0.370899,0.473964,-51.312382,-14.047529,25.150425,3.124253,9.092426,4.914254,37.451365,-22.503691,15.496439,4.63582E+18,0.18899,-0.735291,0.529465,0.378545,-69.837369,20.128187,-17.482334,-2.043396,2.244272,5.049092,7.501226,-23.354631,38.659584,4.63583E+18,-0.367062,-0.395329,-0.758448,-0.365701,4
6.598332,-0.906065,14.695588,-0.289491,2.198879,-0.647625,39.874754,-15.717762,-17.940643,4.63583E+18,0.701626,-0.382366,0.375589,0.469521,-64.599936,-18.225918,30.523698,2.742978,8.321078,4.411171,35.487643,-23.224835,18.760355,4.63582E+18,0.171489,-0.73666,0.552375,0.350436,-69.367136,-25.671057,-3.880583,-3.699957,2.616246,5.186104,5.729948,-24.508481,38.207301,4.63583E+18,-0.356791,-0.402057,-0.747895,-0.389492,4
7.404551,-1.94298,12.161434,-0.10957,1.979209,-0.188727,40.166953,-15.530861,-17.382535,4.63583E+18,0.698449,-0.386881,0.380684,0.466447,-71.338313,-19.60749,39.349164,2.191236,7.216439,4.162569,33.820109,-24.034674,21.25579,4.63582E+18,0.155004,-0.736385,0.572078,0.326247,-55.71823,-30.537659,-9.097111,-3.847421,2.692085,5.847655,3.746136,-25.93789,37.505808,4.63583E+18,-0.345144,-0.410141,-0.735425,-0.4145,4
6.994083,-0.914044,11.088904,-0.104077,1.637206,0.160086,40.367211,-15.556046,-16.812269,4.63583E+18,0.695124,-0.390133,0.385344,0.464875,-65.557746,-14.980927,47.15546,1.586822,5.631776,3.779498,31.923854,-24.915301,23.337602,4.63582E+18,0.140891,-0.734474,0.588231,0.307707,-57.836779,-12.332121,-6.796902,-4.525812,1.971646,5.579995,1.636769,-27.422083,36.522808,4.63583E+18,-0.336996,-0.417268,-0.720485,-0.43957,4
5.757127,1.376074,11.078194,-0.305825,1.723493,0.350668,40.480121,-15.576647,-16.09823,4.63583E+18,0.690935,-0.393813,0.390153,0.464005,-59.670736,-16.488265,48.264094,1.36714,3.563031,3.336163,30.029382,-25.479496,24.863178,4.63582E+18,0.131749,-0.730582,0.6013,0.295519,-50.869936,-15.43708,2.399919,-5.091436,1.434387,4.775815,-0.155146,-28.789261,35.407522,4.63583E+18,-0.332612,-0.421781,-0.704482,-0.463869,4
1.693776,2.528028,9.448706,-0.459963,1.907666,0.228968,40.688402,-15.567873,-15.478267,4.63583E+18,0.686376,-0.398484,0.394956,0.462718,-52.666137,-24.247104,44.4478,1.0639,1.91045,2.677727,28.867142,-25.831323,25.844756,4.63582E+18,0.126645,-0.726195,0.610977,0.288632,-38.907336,-31.348848,14.002577,-4.553103,1.246944,4.038026,-1.660447,-30.052392,34.177223,4.63583E+18,-0.329005,-0.424902,-0.690006,-0.484877,4
-3.363258,3.052172,6.254074,-0.389558,1.378714,0.214689,41.058786,-15.678481,-14.969391,4.63583E+18,0.682803,-0.401939,0.398337,0.462118,-42.654901,-25.849005,40.346053,0.041104,0.924498,1.378135,28.364887,-26.15777,26.042061,4.63582E+18,0.122519,-0.724381,0.614917,0.286598,-31.483272,-36.710818,19.302976,-3.162323,0.954511,3.017365,-2.965447,-30.89747,33.147785,4.63583E+18,-0.325673,-0.427363,-0.679392,-0.499725,4
-5.969394,3.186132,3.340531,-0.037693,0.6747,0.155643,41.114173,-15.723135,-14.700429,4.63583E+18,0.681093,-0.403124,0.400288,0.461922,-35.548403,-24.191919,38.426561,-1.094953,-0.129572,-0.087457,28.16152,-26.41188,25.806318,4.63582E+18,0.119435,-0.725568,0.612582,0.28988,-24.31487,-31.110841,21.987614,-2.013803,0.539776,2.018526,-3.95763,-31.390213,32.516136,4.63583E+18,-0.323469,-0.429305,-0.672217,-0.509106,4
-7.327907,2.230133,2.842318,0.317683,1.038091,-0.145162,41.037496,-15.65297,-14.306829,4.63583E+18,0.679943,-0.404501,0.403441,0.459665,-32.639425,-24.534392,40.060708,-1.757581,-1.336698,-1.482878,28.277002,-26.60775,25.279755,4.63582E+18,0.119196,-0.728922,0.604826,0.297743,-14.726208,-24.874412,23.905172,-1.195675,-0.056874,0.752389,-4.075686,-32.213539,32.09214,4.63583E+18,-0.324131,-0.430028,-0.668177,-0.513375,4
-9.353448,0.864562,1.451155,0.058427,1.994487,-0.346932,41.201037,-15.502702,-13.699238,4.63583E+18,0.677101,-0.408777,0.408439,0.455646,-34.399905,-25.536935,40.55173,-1.909784,-2.665406,-2.806442,29.325983,-26.495567,24.421978,4.63582E+18,0.123418,-0.733918,0.591994,0.309315,-4.032968,-22.023297,25.407166,-0.652422,-0.855575,-0.832108,-3.138444,-33.342539,31.759253,4.63583E+18,-0.33085,-0.430625,-0.66584,-0.511623,4
-12.062303,-0.900837,-4.851461,-0.279333,1.77752,-0.251007,41.510026,-15.454573,-13.171557,4.63583E+18,0.673832,-0.413411,0.412317,0.45281,-34.596074,-18.962391,31.265712,-2.002193,-3.476129,-3.607784,30.689932,-25.965363,23.066427,4.63582E+18,0.130332,-0.739549,0.575946,0.323057,4.503345,-21.362086,25.726378,-0.243877,-1.85012,-2.569421,-1.869025,-33.953296,31.632572,4.63583E+18,-0.343181,-0.428958,-0.666113,-0.504496,4
-12.603515,-3.545174,-10.442483,0.470896,-0.078729,0.27554,41.602829,-15.568577,-13.028737,4.63583E+18,0.67404,-0.411515,0.413298,0.453332,-28.713872,7.492222,-10.013816,-3.217435,-2.887496,-3.752798,31.942249,-25.431748,21.628223,4.63582E+18,0.132433,-0.746165,0.558346,0.337562,10.092596,-22.805278,24.17027,0.141099,-2.87371,-4.341331,-0.25238,-33.794207,31.642917,4.63583E+18,-0.361104,-0.424784,-0.668813,-0.491785,4
-11.492047,-6.123874,-8.502757,1.419512,-3.158233,0.792108,41.304714,-15.920153,-13.700444,4.63583E+18,0.680134,-0.400188,0.408281,0.458883,0.4529,78.229147,-76.734545,-2.031042,-1.053223,-2.847944,33.002077,-25.174087,20.641049,4.63582E+18,0.132374,-0.752713,0.545451,0.344068,12.079483,-25.565388,20.077865,0.501914,-3.842408,-5.982136,2.008546,-33.392581,31.596607,4.63583E+18,-0.382919,-0.41658,-0.674348,-0.474434,4
-10.45641,-9.074071,3.602636,1.711745,-4.576264,0.931786,40.828259,-16.347434,-14.693077,4.63583E+18,0.688645,-0.384932,0.399932,0.466529,6.389196,74.543617,-99.459002,0.49449,-1.727663,-3.846568,34.119751,-24.442297,19.882073,4.63582E+18,0.143151,-0.758957,0.532501,0.346315,11.388608,-25.644851,15.510817,0.623867,-4.772757,-7.465292,5.04493,-32.991912,31.6242,4.63583E+18,-0.409637,-0.405775,-0.680463,-0.452233,4
