Accelerometer-X,Accelerometer-Y,Accelerometer-Z,Gyroscope-X,Gyroscope-Y,Gyroscope-Z,Magnetometer-X,Magnetometer-Y,Magnetometer-Z,Barometer-pressure,Orientation-S,Orientation-X,Orientation-Y,Orientation-Z,Accelerometer-X,Accelerometer-Y,Accelerometer-Z,Gyroscope-X,Gyroscope-Y,Gyroscope-Z,Magnetometer-X,Magnetometer-Y,Magnetometer-Z,Barometer-pressure,Orientation-S,Orientation-X,Orientation-Y,Orientation-Z,Accelerometer-X,Accelerometer-Y,Accelerometer-Z,Gyroscope-X,Gyroscope-Y,Gyroscope-Z,Magnetometer-X,Magnetometer-Y,Magnetometer-Z,Barometer-pressure,Orientation-S,Orientation-X,Orientation-Y,Orientation-Z,jump
-9.397449,0.749313,0.647151,0.171775,-0.122274,0.205548,44.292487,0.304552,13.889615,4635731894808346600.000000,-0.732774,-0.122658,-0.655980,0.132992,-9.354986,-0.638487,0.093269,-0.950694,-0.115348,-0.331138,42.668783,-16.732441,8.496353,4635727706678362100.000000,-0.591549,0.423272,-0.579395,-0.367712,-9.520440,-0.896577,-2.185125,-0.013356,0.004955,-0.130287,40.003662,20.646820,8.270874,4635729747324698600.000000,-0.437796,-0.529272,-0.574780,0.444785,0
-9.336254,0.825125,0.590934,0.165999,-0.092788,0.194614,44.571480,0.517370,13.879818,4635731894808346600.000000,-0.733040,-0.123633,-0.655516,0.132913,-9.346755,-0.837843,0.276303,-0.927202,-0.123881,-0.322251,42.697591,-16.679358,8.496353,4635727706678362100.000000,-0.590705,0.426153,-0.577096,-0.369354,-9.414993,-0.715227,-2.177330,-0.013230,0.005341,-0.119902,39.902319,20.539321,8.239997,4635729747324698600.000000,-0.437596,-0.528961,-0.575076,0.444969,0
-9.328865,0.868970,0.563949,0.161741,-0.068179,0.194839,44.598955,0.537782,13.901496,4635731894808346600.000000,-0.733240,-0.124610,-0.655129,0.132809,-9.363078,-1.008950,0.459544,-0.905107,-0.137759,-0.304119,42.668773,-16.683476,8.399280,4635727706678362100.000000,-0.589896,0.428907,-0.574818,-0.371007,-9.422061,-0.606986,-2.188510,-0.027323,0.007387,-0.110289,39.837167,20.656560,8.177630,4635729610181630000.000000,-0.437439,-0.528651,-0.575382,0.445097,0
-9.331435,0.932581,0.566520,0.152352,-0.063808,0.190369,44.471569,0.293622,13.992093,4635731894808346600.000000,-0.733429,-0.125548,-0.654761,0.132690,-9.334765,-1.090430,0.601914,-0.885552,-0.150950,-0.278124,42.782537,-16.703625,8.110346,4635727706678362100.000000,-0.589104,0.431523,-0.572576,-0.372694,-9.487508,-0.644936,-2.205128,-0.040616,0.007181,-0.106133,39.879530,20.794947,8.079974,4635729532576333800.000000,-0.437320,-0.528326,-0.575702,0.445185,0
-9.297227,0.940143,0.544346,0.140589,-0.086490,0.180126,44.502859,0.112101,13.960974,4635731894808346600.000000,-0.733681,-0.126409,-0.654336,0.132583,-9.245276,-1.151387,0.768686,-0.848930,-0.158780,-0.258512,42.896816,-16.760765,7.857905,4635727706678362100.000000,-0.588357,0.433985,-0.570399,-0.374351,-9.493979,-0.827288,-2.201746,-0.036678,0.007773,-0.100973,39.906002,20.771271,8.044679,4635729532576333800.000000,-0.437200,-0.528022,-0.576004,0.445272,0
-9.255964,0.883920,0.578562,0.132481,-0.089800,0.167729,44.582130,0.170904,13.777517,4635731894808346600.000000,-0.733938,-0.127210,-0.653910,0.132492,-9.147629,-1.200448,0.907310,-0.800842,-0.166617,-0.250314,42.925111,-16.732469,7.694948,4635727706678362100.000000,-0.587695,0.436291,-0.568284,-0.375923,-9.469563,-0.962322,-2.181744,-0.019086,0.010591,-0.086675,39.703345,20.833912,8.052473,4635729532576333800.000000,-0.437061,-0.527790,-0.576248,0.445369,0
-9.150914,0.856925,0.600569,0.121378,-0.058885,0.155995,44.354833,0.156464,13.728167,4635731894808346600.000000,-0.734110,-0.127962,-0.653591,0.132391,-9.078265,-1.147729,0.927840,-0.775822,-0.172319,-0.243558,43.034829,-16.647009,7.564935,4635727706678362100.000000,-0.587074,0.438505,-0.566201,-0.377457,-9.421767,-0.934241,-2.157330,-0.002202,0.014478,-0.070563,39.588608,21.089513,8.111444,4635729532576333800.000000,-0.436906,-0.527634,-0.576432,0.445469,0
-9.077497,0.876347,0.598343,0.108351,-0.015454,0.139975,44.258692,0.095254,13.787329,4635731894808346600.000000,-0.734161,-0.128654,-0.653421,0.132279,-9.049887,-1.054038,0.850792,-0.787523,-0.170224,-0.231115,43.197563,-16.585818,7.341325,4635727706678362100.000000,-0.586401,0.440716,-0.564119,-0.379042,-9.423078,-0.918933,-2.171881,0.014114,0.015340,-0.056975,39.791216,21.157505,8.321567,4635729532576333800.000000,-0.436737,-0.527542,-0.576557,0.445581,0
-9.053082,0.922772,0.532495,0.094676,0.006798,0.123111,44.402957,0.085452,13.689670,4635731894808346600.000000,-0.734149,-0.129271,-0.653334,0.132171,-8.964604,-1.017256,0.679983,-0.814225,-0.154917,-0.213665,43.283574,-16.553403,7.088870,4635727706678362100.000000,-0.585607,0.442971,-0.562058,-0.380699,-9.436323,-0.935556,-2.185125,0.029841,0.016318,-0.045520,39.913795,20.936191,8.485452,4635729532576333800.000000,-0.436553,-0.527508,-0.576630,0.445707,0
-9.043100,0.947367,0.475909,0.079543,0.022142,0.104079,44.488407,0.102290,13.611255,4635731894808346600.000000,-0.734093,-0.129798,-0.653313,0.132070,-8.842448,-1.077965,0.484665,-0.833855,-0.140310,-0.197290,43.169829,-16.476117,6.921844,4635727706678362100.000000,-0.584709,0.445252,-0.560025,-0.382411,-9.428530,-0.932177,-2.177333,0.040704,0.016409,-0.033476,39.762357,20.872586,8.403878,4635729532576333800.000000,-0.436368,-0.527522,-0.576656,0.445838,0
-9.099144,0.932573,0.524918,0.056028,0.046724,0.088509,44.557022,0.170904,13.630496,4635731894808346600.000000,-0.733974,-0.130225,-0.653388,0.131940,-8.760957,-1.180077,0.325726,-0.836013,-0.130682,-0.178785,43.112089,-16.447246,6.787734,4635727706678362100.000000,-0.583748,0.447505,-0.558039,-0.384149,-9.431907,-0.951136,-2.219664,0.050611,0.019431,-0.019978,39.720809,21.047106,8.275327,4635729532576333800.000000,-0.436178,-0.527593,-0.576640,0.445961,0
-9.186994,0.956986,0.512897,0.038907,0.063231,0.066501,44.540192,0.154074,13.728148,4635731894808346600.000000,-0.733807,-0.130548,-0.653535,0.131822,-8.716173,-1.151709,0.236240,-0.838812,-0.127463,-0.155303,43.230454,-16.556934,6.604637,4635727706678362100.000000,-0.582729,0.449709,-0.556092,-0.385941,-9.444114,-0.925427,-2.269537,0.061975,0.024090,-0.009500,39.747307,21.131016,8.294538,4635729532576333800.000000,-0.435971,-0.527718,-0.576587,0.446082,0
-9.277445,0.974187,0.461476,0.031413,0.063247,0.047046,44.457139,0.071021,13.789737,4635731894808346600.000000,-0.733633,-0.130795,-0.653696,0.131743,-8.703791,-1.118953,0.114346,-0.857669,-0.129592,-0.130360,43.210343,-16.634826,6.385175,4635727706678362100.000000,-0.581631,0.451893,-0.554150,-0.387835,-9.487486,-0.825437,-2.298367,0.064862,0.025636,-0.002319,39.700559,21.029731,8.395569,4635729669634955300.000000,-0.435768,-0.527869,-0.576517,0.446194,0
-9.338475,0.949963,0.466096,0.029892,0.058554,0.030605,44.429575,0.026630,13.737947,4635731894808346600.000000,-0.733464,-0.130991,-0.653853,0.131712,-8.728293,-1.127211,-0.076738,-0.881512,-0.130683,-0.110782,43.153172,-16.525148,6.152804,4635727706678362100.000000,-0.580452,0.454080,-0.552196,-0.389829,-9.509567,-0.687787,-2.299409,0.056590,0.022909,0.001363,39.728596,20.871042,8.372991,4635729747324698600.000000,-0.435596,-0.528008,-0.576449,0.446285,0
-9.401906,0.883934,0.529723,0.034391,0.051936,0.013500,44.557022,0.071038,13.806573,4635731894808346600.000000,-0.733301,-0.131150,-0.653997,0.131749,-8.687905,-1.098757,-0.264252,-0.900087,-0.123222,-0.087660,43.205676,-16.386646,6.051015,4635727706678362100.000000,-0.579174,0.456265,-0.550265,-0.391902,-9.525147,-0.595837,-2.326150,0.040752,0.019318,0.000773,39.852989,20.914888,8.213022,4635729747324698600.000000,-0.435466,-0.528111,-0.576405,0.446347,0
-9.467941,0.852117,0.539729,0.033988,0.042359,-0.000577,44.525809,-0.019006,13.789766,4635731894808346600.000000,-0.733156,-0.131264,-0.654119,0.131834,-8.557753,-1.045980,-0.382105,-0.906111,-0.108645,-0.054579,43.259362,-16.377843,5.961524,4635727706678362100.000000,-0.577789,0.458406,-0.548415,-0.394035,-9.580722,-0.558168,-2.413932,0.019185,0.012024,-0.000682,39.952741,21.073590,8.080017,4635729747324698600.000000,-0.435399,-0.528157,-0.576391,0.446375,0
-9.487756,0.847113,0.500504,0.026949,0.026091,-0.020224,44.381519,-0.146489,13.759538,4635731894808346600.000000,-0.733049,-0.131294,-0.654206,0.131968,-8.439538,-1.093797,-0.605409,-0.905862,-0.086231,-0.009036,43.157210,-16.548740,5.831562,4635727706678362100.000000,-0.576271,0.460473,-0.546699,-0.396229,-9.599437,-0.533754,-2.414740,-0.001587,0.001729,-0.002431,39.885769,21.029750,8.169313,4635729747324698600.000000,-0.435399,-0.528143,-0.576401,0.446380,0
-9.438927,0.869126,0.512507,0.017546,0.026999,-0.042007,44.329679,-0.098474,13.952451,4635731894808346600.000000,-0.732933,-0.131237,-0.654313,0.132142,-8.410806,-1.378865,-0.878647,-0.844170,-0.068008,0.041541,43.217864,-16.687329,5.672595,4635727706678362100.000000,-0.574737,0.462300,-0.545218,-0.398364,-9.587231,-0.563859,-2.384863,-0.016723,-0.004862,-0.002523,39.786028,20.972319,8.356820,4635729747324698600.000000,-0.435447,-0.528088,-0.576428,0.446363,0
-9.409297,0.883732,0.573537,0.009002,0.072184,-0.064034,44.412722,0.112055,14.077957,4635731894808346600.000000,-0.732685,-0.131119,-0.654574,0.132336,-8.467615,-1.441140,-0.984477,-0.711400,-0.069413,0.089230,43.356373,-16.792873,5.550807,4635727706678362100.000000,-0.573378,0.463693,-0.544040,-0.400309,-9.582811,-0.679407,-2.466108,-0.024089,-0.012542,-0.002136,39.806238,21.120285,8.423108,4635729747324698600.000000,-0.435531,-0.528007,-0.576453,0.446344,0
-9.472511,0.905746,0.627374,0.001717,0.138021,-0.078375,44.471569,0.156515,13.992082,4635731873714918400.000000,-0.732254,-0.130975,-0.655048,0.132517,-8.565270,-1.168647,-1.029652,-0.570401,-0.079354,0.140162,43.393475,-16.935512,5.359533,4635727706678362100.000000,-0.572224,0.464614,-0.543167,-0.402073,-9.543873,-0.763595,-2.522513,-0.027680,-0.025562,0.002634,39.879483,21.157534,8.360807,4635729747324698600.000000,-0.435663,-0.527907,-0.576451,0.446337,0
-9.594588,0.920352,0.651789,-0.001889,0.179505,-0.084594,44.471569,0.097659,14.001891,4635731787434164200.000000,-0.731708,-0.130827,-0.655654,0.132685,-8.695201,-0.899818,-0.968622,-0.439327,-0.097501,0.179025,43.283820,-16.964458,5.200657,4635727777668492300.000000,-0.571297,0.465101,-0.542544,-0.403667,-9.498414,-0.874714,-2.417918,-0.024752,-0.033702,0.010110,39.960510,20.936348,8.325449,4635729747324698600.000000,-0.435822,-0.527814,-0.576412,0.446340,0
-9.707072,0.949566,0.657013,-0.014441,0.153826,-0.084822,44.457175,0.114452,14.018684,4635731787434164200.000000,-0.731239,-0.130625,-0.656188,0.132833,-8.862280,-0.736775,-0.923726,-0.332435,-0.115326,0.205360,43.149330,-16.935508,5.066563,4635727921426726900.000000,-0.570571,0.465243,-0.542107,-0.405114,-9.500725,-0.951121,-2.293739,-0.014937,-0.036611,0.021675,39.890233,20.818045,8.333235,4635729747324698600.000000,-0.435988,-0.527762,-0.576325,0.446353,0
-9.765923,1.022353,0.595766,-0.039633,0.092457,-0.082457,44.350394,0.166334,14.108913,4635731787434164200.000000,-0.730951,-0.130319,-0.656547,0.132939,-8.960061,-0.663327,-0.947878,-0.245156,-0.127440,0.237046,43.096173,-17.045230,4.847031,4635727921426726900.000000,-0.569986,0.465085,-0.541849,-0.406462,-9.509567,-0.987743,-2.297301,-0.003869,-0.038748,0.037604,39.786040,20.868126,8.275367,4635729747324698600.000000,-0.436164,-0.527765,-0.576178,0.446368,0
-9.751541,1.174085,0.588352,-0.066357,0.059109,-0.083106,44.106240,0.097659,14.216386,4635731787434164200.000000,-0.730769,-0.129912,-0.656820,0.132991,-9.025223,-0.638913,-1.049573,-0.160084,-0.137415,0.270172,43.076062,-17.155441,4.715658,4635727921426726900.000000,-0.569532,0.464631,-0.541774,-0.407716,-9.486212,-0.938725,-2.342762,-0.000681,-0.045652,0.047881,39.705016,20.844578,8.239997,4635729747324698600.000000,-0.436369,-0.527784,-0.575989,0.446388,0
-9.675896,1.249731,0.607753,-0.089628,0.082933,-0.080359,43.941198,0.128827,14.292472,4635731787434164200.000000,-0.730536,-0.129454,-0.657177,0.132958,-9.029618,-0.630656,-1.139238,-0.065054,-0.142425,0.294063,43.075441,-17.187845,4.910969,4635727921426726900.000000,-0.569231,0.463889,-0.541894,-0.408820,-9.519653,-0.903348,-2.340459,-0.000387,-0.053222,0.057015,39.681845,20.766914,8.302275,4635729747324698600.000000,-0.436608,-0.527813,-0.575767,0.446407,0
-9.602436,1.325585,0.654178,-0.118213,0.129084,-0.071586,44.102258,0.273122,14.263500,4635731787434164200.000000,-0.730196,-0.128959,-0.657684,0.132796,-8.960324,-0.679307,-1.208265,0.035022,-0.132866,0.303354,43.246343,-17.321680,5.013382,4635727921426726900.000000,-0.569085,0.462903,-0.542224,-0.409701,-9.585108,-0.895564,-2.378317,0.006811,-0.058268,0.067695,39.787457,20.740377,8.337656,4635729747324698600.000000,-0.436863,-0.527870,-0.575498,0.446436,0
-9.589998,1.355022,0.683615,-0.153273,0.165942,-0.067084,44.206091,0.310666,14.185002,4635731787434164200.000000,-0.729776,-0.128390,-0.658321,0.132503,-8.947933,-0.785030,-1.326194,0.119460,-0.108655,0.300881,43.279937,-17.493210,4.923903,4635727921426726900.000000,-0.569051,0.461764,-0.542750,-0.410339,-9.607226,-0.821099,-2.435988,0.009320,-0.064583,0.077014,39.946135,20.646990,8.275397,4635729747324698600.000000,-0.437146,-0.527943,-0.575193,0.446468,0
-9.621830,1.347833,0.662047,-0.179829,0.170583,-0.066225,44.085500,0.166336,14.206570,4635731787434164200.000000,-0.729357,-0.127745,-0.658985,0.132133,-9.008791,-0.907114,-1.464525,0.182518,-0.082680,0.296584,43.060003,-17.493210,4.822197,4635727921426726900.000000,-0.569085,0.460528,-0.543436,-0.410772,-9.568317,-0.687892,-2.414779,0.003098,-0.072741,0.079430,40.050351,20.695053,8.177743,4635729747324698600.000000,-0.437465,-0.527995,-0.574879,0.446498,0
-9.624456,1.296843,0.568958,-0.191388,0.143422,-0.066225,44.202082,0.097659,14.292474,4635731787434164200.000000,-0.729018,-0.127050,-0.659572,0.131745,-9.090384,-1.017065,-1.602926,0.232043,-0.050293,0.300486,43.006213,-17.602233,4.752718,4635727921426726900.000000,-0.569133,0.459219,-0.544289,-0.411040,-9.561753,-0.486931,-2.400433,-0.012937,-0.081286,0.075638,40.115815,21.001604,8.010047,4635729747324698600.000000,-0.437834,-0.527992,-0.574587,0.446515,0
-9.583045,1.184584,0.573282,-0.195911,0.127319,-0.066854,44.383957,0.114424,14.320980,4635731787434164200.000000,-0.728724,-0.126330,-0.660112,0.131355,-9.106723,-1.062142,-1.753241,0.264849,-0.013989,0.306903,43.104538,-17.903538,4.732632,4635727921426726900.000000,-0.569149,0.457880,-0.545296,-0.411178,-9.547262,-0.332817,-2.435982,-0.038677,-0.089149,0.067575,40.184627,21.096538,7.934812,4635729610446451700.000000,-0.438262,-0.527909,-0.574347,0.446502,0
-9.529195,1.060128,0.685770,-0.191450,0.130272,-0.070267,44.308325,0.199867,14.494737,4635731787434164200.000000,-0.728418,-0.125616,-0.660660,0.130986,-9.110760,-1.005334,-1.920406,0.271714,0.027645,0.308350,42.914220,-18.014477,4.703694,4635727921426726900.000000,-0.569079,0.456591,-0.546414,-0.411224,-9.526202,-0.254076,-2.407006,-0.071601,-0.100030,0.055920,40.172285,20.914372,8.004835,4635729532576333800.000000,-0.438767,-0.527717,-0.574173,0.446456,0
-9.519142,0.928240,0.735077,-0.181417,0.138859,-0.074540,44.287502,0.268563,14.582582,4635731787434164200.000000,-0.728079,-0.124926,-0.661230,0.130652,-9.106824,-0.891545,-2.070415,0.241199,0.081709,0.300194,42.652466,-17.827551,4.853702,4635727921426726900.000000,-0.568841,0.455484,-0.547591,-0.411215,-9.552900,-0.255284,-2.318194,-0.098001,-0.108083,0.045824,40.048994,20.724673,8.106929,4635729532576333800.000000,-0.439331,-0.527438,-0.574056,0.446383,0
-9.565578,0.810954,0.683853,-0.168621,0.136974,-0.080279,44.500532,0.268563,14.680242,4635731787434164200.000000,-0.727735,-0.124257,-0.661789,0.130372,-9.050028,-0.979089,-2.177671,0.195190,0.139811,0.291586,42.786230,-17.744811,5.110252,4635727921426726900.000000,-0.568396,0.454604,-0.548810,-0.411180,-9.555044,-0.338582,-2.329464,-0.111193,-0.114104,0.037961,39.991455,20.667133,8.142338,4635729532576333800.000000,-0.439923,-0.527104,-0.573970,0.446305,0
-9.595019,0.710903,0.653932,-0.151531,0.130502,-0.091819,44.504606,0.268563,14.739603,4635731787434164200.000000,-0.727393,-0.123605,-0.662326,0.130178,-8.944289,-2.444723,-2.074760,0.239113,0.192419,0.289520,42.909420,-18.101985,5.249183,4635727885927402500.000000,-0.567916,0.453713,-0.550223,-0.410939,-9.499516,-0.463997,-2.317134,-0.121098,-0.120512,0.033207,40.092580,20.721586,8.080107,4635729532576333800.000000,-0.440543,-0.526728,-0.573900,0.446226,0
-9.592627,0.593874,0.739620,-0.135279,0.137748,-0.103336,44.191788,0.268563,14.661092,4635731787434164200.000000,-0.727016,-0.122974,-0.662880,0.130059,-8.991709,-4.445213,-2.395069,0.420028,0.254475,0.267823,42.783115,-18.494217,5.346034,4635727814052544500.000000,-0.567670,0.452549,-0.552048,-0.410113,-9.496282,-0.621615,-2.302771,-0.113402,-0.128282,0.033406,40.095697,20.752586,8.044679,4635729532576333800.000000,-0.441165,-0.526353,-0.573801,0.446182,0
-9.587593,0.461744,0.752331,-0.119325,0.145081,-0.117034,44.028951,0.285298,14.680218,4635731787434164200.000000,-0.726602,-0.122358,-0.663455,0.130022,-9.261281,-3.068240,-2.472738,0.572897,0.283376,0.263714,42.750117,-18.413528,5.634954,4635727814052544500.000000,-0.567650,0.451078,-0.554193,-0.408868,-9.595124,-0.761394,-2.276088,-0.088439,-0.136146,0.039625,40.010251,20.845921,7.982455,4635729532576333800.000000,-0.441762,-0.526023,-0.573628,0.446203,0
-9.616788,0.398063,0.681224,-0.091113,0.136999,-0.126206,44.197462,0.370748,14.794608,4635731787434164200.000000,-0.726191,-0.121797,-0.663994,0.130095,-9.136420,-1.155357,-1.984316,0.717955,0.315266,0.300783,42.742674,-18.250069,5.855207,4635727814052544500.000000,-0.567759,0.449229,-0.556723,-0.407312,-9.581629,-0.790134,-2.172818,-0.067767,-0.140220,0.047490,39.979244,20.852410,7.884800,4635729532576333800.000000,-0.442338,-0.525743,-0.573391,0.446268,0
-9.648888,0.378430,0.683354,-0.066735,0.127482,-0.137955,44.277294,0.406016,14.963365,4635731787434164200.000000,-0.725786,-0.121273,-0.664496,0.130275,-8.947183,-1.140061,-2.464630,0.887642,0.367035,0.337731,42.551608,-18.334782,5.985134,4635727814052544500.000000,-0.567995,0.446973,-0.559725,-0.405346,-9.538412,-0.765719,-2.085201,-0.051064,-0.140315,0.056328,39.979244,20.678059,7.794918,4635729532576333800.000000,-0.442893,-0.525514,-0.573103,0.446357,0
-9.617044,0.373651,0.746780,-0.046672,0.144690,-0.150749,44.049872,0.285288,15.068454,4635731787434164200.000000,-0.725317,-0.120783,-0.665046,0.130541,-9.264320,-0.561243,-2.593540,1.010436,0.380251,0.399266,42.339857,-18.534651,6.273177,4635727814052544500.000000,-0.568313,0.444296,-0.563068,-0.403207,-9.549535,-0.826847,-2.109710,-0.027851,-0.143330,0.066621,40.041457,20.492796,7.826120,4635729532576333800.000000,-0.443424,-0.525346,-0.572744,0.446488,0
-9.614393,0.361182,0.805689,-0.022128,0.176803,-0.167421,43.953295,0.418519,15.134791,4635731787434164200.000000,-0.724736,-0.120338,-0.665687,0.130909,-9.473279,0.550915,-1.960000,1.134032,0.373930,0.443330,42.310079,-18.644292,6.628286,4635727814052544500.000000,-0.568786,0.441201,-0.566671,-0.400884,-9.535069,-0.843398,-2.120744,-0.009994,-0.145948,0.078662,40.123561,20.489625,7.978207,4635729532576333800.000000,-0.443944,-0.525235,-0.572320,0.446645,0
-9.643848,0.397800,0.800913,0.006292,0.190595,-0.182792,44.049891,0.731372,15.141687,4635731787434164200.000000,-0.724094,-0.119944,-0.666361,0.131395,-9.456156,0.743805,-1.109038,1.221846,0.345823,0.419897,42.481762,-18.807027,6.701864,4635727814052544500.000000,-0.569509,0.437893,-0.570295,-0.398338,-9.545105,-0.744558,-2.057443,-0.001258,-0.149739,0.088759,40.344571,20.520645,7.858034,4635729532576333800.000000,-0.444473,-0.525157,-0.571850,0.446812,0
-9.655786,0.439197,0.793212,0.033204,0.177872,-0.199046,43.874486,0.896724,15.193711,4635731787434164200.000000,-0.723463,-0.119579,-0.666989,0.132011,-9.631077,-0.257793,-0.457172,1.275112,0.323649,0.407199,42.397100,-18.897285,6.859094,4635727814052544500.000000,-0.570385,0.434439,-0.573912,-0.395662,-9.597274,-0.688046,-2.080858,0.003790,-0.154398,0.097984,40.556415,20.575073,7.627292,4635729532576333800.000000,-0.445019,-0.525102,-0.571342,0.446984,0
-9.712044,0.490682,0.844697,0.059093,0.151517,-0.211236,43.709108,0.752364,15.124972,4635731787434164200.000000,-0.722886,-0.119244,-0.667529,0.132749,-9.705343,-1.023594,-0.158582,1.383114,0.331761,0.453067,42.144786,-18.820013,7.335164,4635727814052544500.000000,-0.571341,0.430615,-0.577790,-0.392809,-9.611659,-0.784683,-2.158528,0.010783,-0.157990,0.108957,40.458542,20.699391,7.618578,4635729532576333800.000000,-0.445578,-0.525078,-0.570790,0.447160,0
-9.751047,0.498119,0.859288,0.076832,0.140394,-0.220431,43.853479,0.700309,15.179826,4635731787434164200.000000,-0.722324,-0.118930,-0.668029,0.133569,-9.574990,-1.355615,-0.344294,1.529898,0.357736,0.509340,41.981258,-18.819194,7.815225,4635727814052544500.000000,-0.572381,0.426330,-0.582046,-0.389673,-9.607226,-0.842311,-2.177351,0.022729,-0.165957,0.117986,40.229943,20.604871,7.840629,4635729532576333800.000000,-0.446146,-0.525083,-0.570181,0.447365,0
-9.790338,0.481141,0.864623,0.093689,0.132475,-0.226656,43.907927,0.802455,15.441517,4635731787434164200.000000,-0.721772,-0.118645,-0.668498,0.134458,-9.505539,-1.019432,-0.860752,1.629471,0.387984,0.555320,41.900686,-18.990083,8.271253,4635727814052544500.000000,-0.573422,0.421724,-0.586587,-0.386332,-9.599453,-0.764575,-2.172918,0.027772,-0.174597,0.128183,40.150150,20.419589,7.892605,4635729532576333800.000000,-0.446743,-0.525105,-0.569523,0.447581,0
-9.787953,0.446905,0.793765,0.115027,0.126926,-0.227515,43.846607,0.970970,15.531622,4635731787434164200.000000,-0.721223,-0.118419,-0.668938,0.135412,-9.545709,-0.320036,-1.200835,1.662049,0.416162,0.579289,41.680703,-19.108615,8.657877,4635727814052544500.000000,-0.574380,0.417003,-0.591258,-0.382897,-9.579471,-0.673593,-2.126274,0.021650,-0.178673,0.137212,40.336724,20.463010,7.550610,4635729532576333800.000000,-0.447378,-0.525129,-0.568850,0.447774,0
-9.775746,0.427259,0.747035,0.140244,0.119474,-0.227515,43.836784,1.129655,15.276806,4635731787434164200.000000,-0.720681,-0.118264,-0.669340,0.136440,-9.760707,0.336591,-0.909394,1.653203,0.425507,0.571542,41.590386,-19.032171,9.036322,4635727814052544500.000000,-0.575280,0.412314,-0.595890,-0.379428,-9.593925,-0.584804,-2.091900,0.009996,-0.183530,0.141968,40.443127,20.575059,7.248895,4635729532576333800.000000,-0.448060,-0.525133,-0.568178,0.447941,0
-9.751613,0.441569,0.768784,0.162910,0.109184,-0.228350,43.822475,1.274057,15.233991,4635731787434164200.000000,-0.720155,-0.118169,-0.669698,0.137538,-10.074407,0.436775,-0.282959,1.630089,0.412380,0.546614,41.558882,-18.945038,9.386520,4635727814052544500.000000,-0.576180,0.407698,-0.600378,-0.375958,-9.583907,-0.541560,-2.071920,0.001260,-0.189939,0.147213,40.342078,20.450636,7.185726,4635729532576333800.000000,-0.448785,-0.525121,-0.567498,0.448092,0
-9.683141,0.505272,0.829818,0.181093,0.107833,-0.233040,43.763542,1.359505,15.419478,4635731787434164200.000000,-0.719621,-0.118115,-0.670043,0.138701,-10.189523,0.053965,0.263427,1.589267,0.402285,0.528050,41.314743,-19.201384,9.711711,4635727814052544500.000000,-0.577035,0.403190,-0.604715,-0.372543,-9.578376,-0.568214,-2.117456,0.001652,-0.195667,0.152261,40.292203,20.260912,7.252337,4635729669299975200.000000,-0.449531,-0.525110,-0.566795,0.448245,0
-9.641466,0.517771,0.869404,0.196436,0.118096,-0.239031,43.808805,1.444942,15.555206,4635731787434164200.000000,-0.719045,-0.118095,-0.670411,0.139920,-10.562742,0.223836,0.834461,1.575911,0.347828,0.479692,41.151157,-19.344963,10.130488,4635727814052544500.000000,-0.578051,0.398730,-0.608788,-0.369118,-9.613902,-0.624818,-2.148503,0.010005,-0.208489,0.158574,40.343274,20.257660,7.342227,4635729747324698600.000000,-0.450301,-0.525106,-0.566039,0.448434,0
-9.634024,0.462081,0.839636,0.217800,0.127059,-0.242470,43.981181,1.544699,15.483462,4635731787434164200.000000,-0.718430,-0.118136,-0.670794,0.141204,-12.698895,2.212735,3.196971,1.651208,0.134056,0.384272,41.175311,-19.235363,10.481743,4635727814052544500.000000,-0.579852,0.393982,-0.612274,-0.365609,-9.592786,-0.623679,-2.063020,0.022046,-0.215378,0.165370,40.424281,20.242077,7.318874,4635729747324698600.000000,-0.451073,-0.525126,-0.565231,0.448653,0
-9.660522,0.330195,0.902753,0.236035,0.138781,-0.242261,43.905563,1.689088,15.571288,4635731787434164200.000000,-0.717772,-0.118238,-0.671199,0.142532,-14.561770,4.925027,6.619395,1.390991,0.004214,0.355103,41.196221,-19.129002,10.547196,4635727814052544500.000000,-0.581577,0.389723,-0.614975,-0.362892,-9.547294,-0.563750,-2.130773,0.033503,-0.225284,0.169739,40.548574,20.067828,7.046947,4635729747324698600.000000,-0.451850,-0.525159,-0.564373,0.448912,0
-9.765031,0.172391,0.996243,0.243043,0.149593,-0.239317,43.836784,1.757866,15.630835,4635731787434164200.000000,-0.717080,-0.118375,-0.671630,0.143865,-12.147210,4.023477,5.781414,0.541582,0.125921,0.304018,41.086622,-19.213531,10.643801,4635727814052544500.000000,-0.581676,0.387828,-0.616590,-0.362021,-9.627223,-0.614827,-2.321654,0.042824,-0.244318,0.177023,40.648443,19.882508,6.722908,4635729610636191700.000000,-0.452665,-0.525190,-0.563445,0.449221,0
-9.957664,-0.147078,0.955157,0.257554,0.133493,-0.226552,43.805822,1.788828,15.552232,4635731787434164200.000000,-0.716432,-0.118582,-0.671996,0.145209,-9.560149,0.781428,2.853355,-0.059097,0.259417,0.204136,40.956107,-19.413526,10.904561,4635727814052544500.000000,-0.580609,0.387846,-0.617459,-0.362234,-9.758162,-0.674738,-2.400420,0.052049,-0.264319,0.183916,40.682837,19.824823,6.678566,4635729532576333800.000000,-0.453519,-0.525217,-0.562446,0.449580,0
-10.177676,-0.501659,0.850064,0.276725,0.095877,-0.203942,43.678089,1.949886,15.568894,4635731787434164200.000000,-0.715892,-0.118886,-0.672225,0.146556,-9.723909,0.804977,0.105900,-0.258441,0.378522,0.107989,40.907009,-19.470808,11.003299,4635727814052544500.000000,-0.579057,0.388771,-0.618158,-0.362535,-9.825853,-0.567071,-2.218389,0.050105,-0.276068,0.187217,40.733893,19.879210,6.714072,4635729532576333800.000000,-0.454409,-0.525225,-0.561420,0.449954,0
-10.339047,-0.741336,0.812202,0.305118,0.068570,-0.174091,43.709017,2.104120,15.654337,4635731787434164200.000000,-0.715431,-0.119342,-0.672339,0.147908,-10.697846,2.775135,-2.349528,-0.422697,0.444605,0.106962,40.902986,-19.442646,10.965996,4635727814052544500.000000,-0.577067,0.390193,-0.618763,-0.363146,-9.800298,-0.360575,-2.018595,0.032034,-0.283548,0.188674,40.807162,19.910275,6.706298,4635729532576333800.000000,-0.455359,-0.525186,-0.560410,0.450298,0
-10.470637,-0.859900,0.975656,0.337135,0.073801,-0.136054,43.820131,2.203846,15.739789,4635731787434164200.000000,-0.714961,-0.120002,-0.672428,0.149232,-10.528669,2.984780,-2.099670,-0.422182,0.470601,0.120625,40.922950,-19.413506,11.151966,4635727814052544500.000000,-0.574986,0.391616,-0.619450,-0.363745,-9.700389,-0.234126,-2.027585,0.008534,-0.298508,0.189062,40.888182,19.910275,6.764057,4635729532576333800.000000,-0.456394,-0.525075,-0.559413,0.450618,0
-10.627264,-0.738456,1.118324,0.373243,0.091236,-0.100570,43.703759,2.381569,15.808587,4635731787434164200.000000,-0.714444,-0.120881,-0.672528,0.150543,-10.354337,1.156591,-0.474767,-0.272888,0.469480,0.032869,40.980251,-19.523091,11.478270,4635727814052544500.000000,-0.573281,0.392903,-0.620213,-0.363748,-9.671602,-0.324121,-2.078597,-0.005441,-0.314332,0.187022,40.872577,19.863637,6.799524,4635729669316382700.000000,-0.457493,-0.524902,-0.558416,0.450944,0
-10.713026,-0.525872,1.079643,0.406617,0.078669,-0.068112,43.540477,2.554679,15.789564,4635731787434164200.000000,-0.713965,-0.121941,-0.672551,0.151857,-10.588403,-0.600076,-0.076423,-0.189013,0.413959,-0.042787,40.956118,-19.657661,11.609241,4635727814052544500.000000,-0.571969,0.394099,-0.620844,-0.363442,-9.719336,-0.468367,-2.009736,0.001657,-0.323457,0.187898,40.744922,19.735981,6.628517,4635729747324698600.000000,-0.458597,-0.524726,-0.557385,0.451302,0
-10.723482,-0.347502,0.977216,0.432880,0.025728,-0.036218,43.723292,2.400412,15.710928,4635731787434164200.000000,-0.713638,-0.123135,-0.672381,0.153176,-10.224920,-0.654890,-0.481260,-0.221886,0.375963,-0.013044,40.850710,-19.690829,11.609241,4635727814052544500.000000,-0.570654,0.395237,-0.621382,-0.363354,-9.764824,-0.466078,-1.949848,0.016318,-0.331226,0.191782,40.679503,19.623929,6.352203,4635729747324698600.000000,-0.459693,-0.524571,-0.556301,0.451704,0
-10.604416,-0.188809,0.859903,0.458805,-0.031589,-0.016077,43.910030,2.379190,15.708549,4635731787434164200.000000,-0.713468,-0.124426,-0.672012,0.154536,-9.515455,0.237255,-1.258225,-0.269198,0.379557,0.022117,40.711976,-19.669861,11.609241,4635727814052544500.000000,-0.569197,0.396402,-0.621912,-0.363464,-9.739272,-0.346208,-1.909891,0.025443,-0.339770,0.191975,40.776097,19.546253,6.180246,4635729678967560200.000000,-0.460789,-0.524416,-0.555183,0.452143,0
-10.382652,-0.020623,0.767010,0.470401,-0.067557,-0.009141,43.862484,2.623308,15.679702,4635731787434164200.000000,-0.713396,-0.125747,-0.671522,0.155926,-9.224484,0.535302,-1.931325,-0.218818,0.369330,0.008974,40.634718,-19.755306,11.673565,4635727814052544500.000000,-0.567868,0.397463,-0.622470,-0.363429,-9.662692,-0.230805,-1.814432,0.029132,-0.344915,0.187798,40.934793,19.574038,6.140324,4635729639950516200.000000,-0.461879,-0.524248,-0.554055,0.452609,0
-10.097156,0.177379,0.717534,0.470666,-0.049836,-0.018933,43.634992,2.836543,15.601062,4635731787434164200.000000,-0.713264,-0.127053,-0.671087,0.157336,-9.333739,-0.066358,-2.193163,-0.053940,0.337355,-0.003908,40.577408,-19.784484,11.836709,4635727814052544500.000000,-0.566912,0.398119,-0.623179,-0.362987,-9.600559,-0.133154,-1.746762,0.023789,-0.348120,0.182458,41.085708,19.558466,6.015994,4635729639950516200.000000,-0.462977,-0.524050,-0.552941,0.453079,0
-9.803863,0.328941,0.759235,0.462566,0.003511,-0.035134,43.523815,2.905362,15.636695,4635731787434164200.000000,-0.712974,-0.128324,-0.670822,0.158742,-9.509123,-0.532958,-2.165322,0.156919,0.293922,-0.001472,40.573388,-19.670886,11.962515,4635727814052544500.000000,-0.566414,0.398203,-0.624108,-0.362075,-9.613892,-0.035499,-1.710141,0.008737,-0.350644,0.173038,41.138950,19.430835,5.828454,4635729639950516200.000000,-0.464094,-0.523795,-0.551870,0.453536,0
-9.576375,0.450991,0.761947,0.451056,0.057353,-0.058154,43.576024,2.921974,15.803158,4635731787434164200.000000,-0.712522,-0.129531,-0.670734,0.160156,-9.526548,-0.444843,-1.970768,0.326418,0.255745,0.007112,40.589314,-19.504014,12.181782,4635727743354342400.000000,-0.566283,0.397807,-0.625215,-0.360805,-9.631641,0.000000,-1.665749,-0.007382,-0.356860,0.164688,41.084559,19.171127,5.583182,4635729639950516200.000000,-0.465244,-0.523476,-0.550834,0.453985,0
-9.434291,0.568319,0.715832,0.435479,0.068303,-0.088477,43.521426,2.990814,15.862846,4635731787434164200.000000,-0.712025,-0.130615,-0.670703,0.161609,-9.415925,-0.055198,-1.617275,0.401920,0.237508,-0.000593,40.638447,-19.397564,12.502831,4635727599304179700.000000,-0.566333,0.397223,-0.626377,-0.359349,-9.623872,-0.031077,-1.702383,-0.018936,-0.363365,0.158959,41.053497,19.009141,5.426740,4635729639950516200.000000,-0.466422,-0.523108,-0.549818,0.454432,0
-9.358676,0.661230,0.646992,0.416905,0.038456,-0.120105,43.627888,3.021662,15.762816,4635731787434164200.000000,-0.711598,-0.131534,-0.670611,0.163120,-9.500445,0.465880,-1.153843,0.382061,0.234276,-0.028718,40.610325,-19.397564,12.756737,4635727599304179700.000000,-0.566400,0.396754,-0.627453,-0.357883,-9.619433,-0.072138,-1.717912,-0.025150,-0.366666,0.150899,41.107885,19.083516,5.387903,4635729639950516200.000000,-0.467604,-0.522702,-0.548824,0.454885,0
-9.282718,0.706005,0.642248,0.397650,0.000420,-0.147728,43.824577,3.182719,15.655330,4635731787434164200.000000,-0.711266,-0.132293,-0.670432,0.164679,-9.696230,0.845707,-0.676977,0.271962,0.239562,-0.052636,40.528889,-19.397564,12.724598,4635727599304179700.000000,-0.566304,0.396613,-0.628336,-0.356639,-9.580583,-0.077682,-1.662416,-0.030783,-0.368803,0.141965,41.185569,19.242219,5.383465,4635729639950516200.000000,-0.468786,-0.522259,-0.547854,0.455347,0
-9.253212,0.620890,0.634442,0.382279,-0.032577,-0.164435,43.746271,3.334651,15.557663,4635731787434164200.000000,-0.711022,-0.132937,-0.670174,0.166262,-9.766083,0.936116,-0.399312,0.120281,0.255203,-0.069331,40.451641,-19.369456,12.626954,4635727599304179700.000000,-0.565941,0.396897,-0.629002,-0.355725,-9.566165,0.004438,-1.573646,-0.043308,-0.371618,0.131382,41.258803,19.299904,5.321319,4635729639950516200.000000,-0.469979,-0.521761,-0.546924,0.455806,0
-9.255583,0.481882,0.709701,0.364361,-0.048689,-0.173662,43.405133,3.426859,15.460016,4635731787434164200.000000,-0.710824,-0.133490,-0.669882,0.167831,-9.745524,0.843109,-0.325424,-0.016236,0.274782,-0.093168,40.418393,-19.340224,12.625672,4635727599304179700.000000,-0.565335,0.397593,-0.629471,-0.355081,-9.578371,0.126501,-1.483763,-0.062048,-0.373463,0.120313,41.332040,19.253301,5.099394,4635729639950516200.000000,-0.471195,-0.521196,-0.546049,0.456246,0
-9.279642,0.337421,0.834490,0.343622,-0.046500,-0.175000,43.383692,3.595379,15.395552,4635731787434164200.000000,-0.710628,-0.133980,-0.669611,0.169344,-9.789863,0.619827,-0.365906,-0.117178,0.292969,-0.118468,40.523771,-19.397564,12.820999,4635727634631754800.000000,-0.564550,0.398620,-0.629791,-0.354610,-9.598346,0.139835,-1.437147,-0.080304,-0.375211,0.110991,41.405285,19.125687,4.876321,4635729639950516200.000000,-0.472436,-0.520569,-0.545224,0.456666,0
-9.350520,0.254334,0.905719,0.325254,-0.023176,-0.167760,43.594658,3.709029,15.475916,4635731787434164200.000000,-0.710381,-0.134452,-0.669416,0.170771,-9.847520,0.330728,-0.483314,-0.178577,0.308259,-0.133518,40.610338,-19.369456,12.919932,4635727706678362100.000000,-0.563645,0.399852,-0.630030,-0.354240,-9.607226,0.067711,-1.420500,-0.094675,-0.374629,0.100408,41.385328,19.021367,4.871847,4635729639950516200.000000,-0.473685,-0.519889,-0.544449,0.457071,0
-9.423403,0.190578,0.901334,0.306237,-0.004190,-0.155421,43.653675,3.650014,15.581031,4635731787434164200.000000,-0.710099,-0.134915,-0.669283,0.172098,-9.778618,0.082412,-0.682802,-0.200489,0.322552,-0.134221,40.472695,-19.288023,12.850381,4635727706678362100.000000,-0.562664,0.401157,-0.630267,-0.353900,-9.630523,0.036622,-1.361699,-0.101376,-0.374531,0.093415,41.312088,18.940360,4.907376,4635729639950516200.000000,-0.474934,-0.519179,-0.543700,0.457473,0
-9.550214,0.163794,0.839941,0.290982,0.015960,-0.135158,43.653675,3.697414,15.647521,4635731787434164200.000000,-0.709783,-0.135403,-0.669207,0.173310,-9.672778,-0.085285,-0.845823,-0.191608,0.328960,-0.135655,40.304832,-19.210773,12.970619,4635727706678362100.000000,-0.561683,0.402454,-0.630528,-0.353523,-9.643848,0.013325,-1.291779,-0.103901,-0.373561,0.087104,41.386392,18.862674,4.845251,4635729639950516200.000000,-0.476172,-0.518450,-0.542970,0.457879,0
-9.691954,0.131912,0.822996,0.288400,0.023324,-0.109763,43.653675,3.924960,15.599778,4635731787434164200.000000,-0.709464,-0.135960,-0.669139,0.174435,-9.607226,-0.166048,-0.995983,-0.175294,0.333964,-0.133197,40.348807,-19.125325,13.297033,4635727671380968400.000000,-0.560710,0.403712,-0.630827,-0.353098,-9.636084,-0.015530,-1.254040,-0.103320,-0.371425,0.083025,41.537310,18.890376,4.623363,4635729639950516200.000000,-0.477396,-0.517716,-0.542251,0.458288,0
-9.811667,0.112594,0.795851,0.288193,0.013804,-0.082372,43.622865,4.052858,15.442365,4635731787434164200.000000,-0.709191,-0.136586,-0.669027,0.175484,-9.631307,-0.296824,-1.207531,-0.145795,0.332238,-0.127475,40.511523,-19.067965,13.396036,4635727599304179700.000000,-0.559782,0.404883,-0.631173,-0.352612,-9.616113,-0.047707,-1.183041,-0.099145,-0.368609,0.081568,41.528508,18.968061,4.338162,4635729708243227600.000000,-0.478599,-0.516990,-0.541531,0.458702,0
-9.909679,0.061400,0.782000,0.288783,-0.013185,-0.063292,43.478395,4.069440,15.442365,4635731787434164200.000000,-0.709006,-0.137247,-0.668823,0.176494,-9.648371,-0.301512,-1.419222,-0.108764,0.324030,-0.124286,40.650314,-19.096052,13.362584,4635727599304179700.000000,-0.558931,0.405945,-0.631558,-0.352049,-9.583934,-0.084330,-1.131967,-0.091087,-0.364725,0.081179,41.446378,18.994720,4.235969,4635729747324698600.000000,-0.479775,-0.516286,-0.540803,0.459125,0
-9.949034,-0.004374,0.664664,0.297503,-0.060567,-0.053678,43.440321,4.169104,15.439996,4635731787434164200.000000,-0.708953,-0.137925,-0.668466,0.177525,-9.574786,-0.252173,-1.578428,-0.074202,0.317285,-0.118243,40.671394,-19.125328,13.524443,4635727599304179700.000000,-0.558147,0.406901,-0.631988,-0.351419,-9.617184,-0.097659,-1.092028,-0.080795,-0.362491,0.083217,41.474063,18.948140,4.235969,4635729747324698600.000000,-0.480926,-0.515611,-0.540054,0.459562,0
-9.927719,-0.085086,0.597797,0.309524,-0.108998,-0.044687,43.599009,4.297006,15.373320,4635731787434164200.000000,-0.709034,-0.138628,-0.667950,0.178592,-9.586480,-0.256527,-1.627768,-0.053407,0.308023,-0.110064,40.509717,-19.096048,13.749205,4635727599304179700.000000,-0.557409,0.407772,-0.632438,-0.350769,-9.643848,-0.089896,-1.050963,-0.074869,-0.359385,0.084384,41.644900,18.921474,4.111765,4635729747324698600.000000,-0.482059,-0.514954,-0.539296,0.460002,0
-9.801312,-0.127184,0.675383,0.307378,-0.128691,-0.037244,43.726917,4.280445,15.139546,4635731787434164200.000000,-0.709176,-0.139330,-0.667372,0.179641,-9.643848,-0.260018,-1.547201,-0.054811,0.300882,-0.099750,40.240485,-19.129350,13.774485,4635727634584452100.000000,-0.556672,0.408608,-0.632887,-0.350158,-9.682662,-0.116503,-1.014341,-0.072344,-0.355792,0.086421,41.724903,18.975815,4.040650,4635729747324698600.000000,-0.483180,-0.514312,-0.538535,0.460434,0
-9.617821,-0.097659,0.859734,0.274396,-0.099070,-0.027979,43.710355,4.228117,15.165951,4635731787434164200.000000,-0.709259,-0.139983,-0.666900,0.180553,-9.631817,-0.305361,-1.335848,-0.061540,0.299417,-0.089053,40.153809,-19.076161,13.676829,4635727706678362100.000000,-0.555910,0.409428,-0.633339,-0.349591,-9.813564,-0.149807,-0.985482,-0.068849,-0.353946,0.090984,41.732666,18.906011,4.102752,4635729747324698600.000000,-0.484298,-0.513691,-0.537760,0.460860,0
-9.514301,-0.123694,1.142389,0.229161,0.001385,-0.032982,43.641468,4.344342,15.270341,4635731787434164200.000000,-0.709086,-0.140564,-0.666761,0.181296,-9.607226,-0.276761,-1.135825,-0.076797,0.305794,-0.078755,40.235243,-19.043907,13.739560,4635727706678362100.000000,-0.555090,0.410265,-0.633801,-0.349077,-9.953408,-0.127649,-0.922260,-0.068652,-0.348803,0.097004,41.729349,18.747327,3.897693,4635729747324698600.000000,-0.485413,-0.513091,-0.536981,0.461262,0
-9.559994,-0.255588,1.112793,0.205219,0.107234,-0.053307,43.627279,4.557707,15.436868,4635731787434164200.000000,-0.708616,-0.141097,-0.666964,0.181970,-9.595199,-0.328699,-1.041999,-0.097473,0.316124,-0.064869,40.260376,-19.022784,14.066037,4635727706678362100.000000,-0.554185,0.411127,-0.634278,-0.348632,-10.028909,-0.140912,-0.883379,-0.070109,-0.339289,0.101375,41.818041,18.596399,3.519280,4635729747324698600.000000,-0.486518,-0.512516,-0.536213,0.461631,0
-9.694288,-0.361112,0.833603,0.180748,0.122820,-0.070158,43.584784,4.595849,15.496683,4635731787434164200.000000,-0.708104,-0.141523,-0.667241,0.182617,-9.582629,-0.479731,-1.001007,-0.104392,0.328192,-0.050634,40.211185,-19.104220,14.197210,4635727671423860700.000000,-0.553215,0.411985,-0.634797,-0.348216,-10.000131,-0.181977,-0.894454,-0.073214,-0.330645,0.107295,41.778269,18.543045,3.505616,4635729747324698600.000000,-0.487621,-0.511963,-0.535455,0.461961,0
-9.812007,-0.395368,0.705284,0.141708,0.054112,-0.090246,43.651310,4.467910,15.401391,4635731787434164200.000000,-0.707790,-0.141726,-0.667357,0.183254,-9.611234,-0.537126,-1.013031,-0.084895,0.342827,-0.034628,40.235235,-19.153416,14.197210,4635727599304179700.000000,-0.552216,0.412775,-0.635404,-0.347760,-9.973449,-0.218595,-0.911107,-0.076128,-0.324527,0.114093,41.670593,18.488733,3.514698,4635729747324698600.000000,-0.488728,-0.511430,-0.534699,0.462257,0
-9.853740,-0.443438,0.751748,0.098262,-0.014995,-0.110921,43.658026,4.467910,15.349058,4635731787434164200.000000,-0.707678,-0.141690,-0.667313,0.183873,-9.611418,-0.521095,-1.081713,-0.056374,0.352090,-0.018574,40.340538,-19.125363,14.229271,4635727599304179700.000000,-0.551216,0.413470,-0.636099,-0.347248,-9.988966,-0.262974,-0.861247,-0.075549,-0.315792,0.121859,41.631696,18.457594,3.238601,4635729747324698600.000000,-0.489828,-0.510931,-0.533942,0.462519,0
-9.877805,-0.618434,0.797868,0.065965,-0.032822,-0.137843,43.726917,4.482133,15.417951,4635731787434164200.000000,-0.707614,-0.141470,-0.667257,0.184491,-9.595019,-0.436210,-1.248037,-0.034279,0.358881,-0.010331,40.455334,-19.096011,14.326922,4635727599304179700.000000,-0.550223,0.414101,-0.636855,-0.346685,-9.990106,-0.249741,-0.806831,-0.078843,-0.305111,0.133119,41.735850,18.411050,3.100680,4635729747324698600.000000,-0.490932,-0.510470,-0.533189,0.462726,0
-9.981879,-0.885344,0.890437,0.040859,-0.010151,-0.165409,43.710320,4.574350,15.380012,4635731787434164200.000000,-0.707479,-0.141118,-0.667304,0.185107,-9.619059,-0.285527,-1.443918,-0.013650,0.360333,-0.008912,40.427288,-19.129376,14.452628,4635727599304179700.000000,-0.549259,0.414682,-0.637645,-0.346066,-9.977899,-0.200913,-0.801238,-0.087288,-0.301896,0.143221,41.844691,18.438648,3.217034,4635729747324698600.000000,-0.492066,-0.510020,-0.532435,0.462887,0
-10.211411,-0.977678,1.000645,0.030210,0.003475,-0.192523,43.641468,4.726272,15.203679,4635731787434164200.000000,-0.707292,-0.140668,-0.667414,0.185766,-9.676276,-0.159263,-1.569993,0.008797,0.357496,-0.007828,40.313798,-19.052129,14.639738,4635727669778955300.000000,-0.548338,0.415203,-0.638462,-0.345395,-10.019995,-0.283963,-0.813446,-0.095544,-0.299571,0.150409,41.817090,18.562894,3.229487,4635729747324698600.000000,-0.493224,-0.509571,-0.531687,0.463008,0
-10.421684,-0.761365,1.061688,0.014633,-0.004687,-0.221366,43.627246,4.787672,15.160527,4635731787434164200.000000,-0.707114,-0.140087,-0.667529,0.186470,-9.712704,-0.093462,-1.692248,0.020679,0.350420,-0.009597,40.146912,-19.078829,14.738917,4635727814052544500.000000,-0.547458,0.415691,-0.639275,-0.344700,-10.062208,-0.434896,-0.918743,-0.090124,-0.290547,0.157497,41.832485,18.468899,2.957859,4635729747324698600.000000,-0.494364,-0.509166,-0.530930,0.463107,0
-10.568882,-0.438173,1.120353,-0.001451,-0.005787,-0.250826,43.551634,4.844904,15.305714,4635731787434164200.000000,-0.706924,-0.139375,-0.667669,0.187218,-9.785757,-0.049789,-1.793913,0.007979,0.337251,-0.012801,40.016252,-19.331179,14.673299,4635727814052544500.000000,-0.546595,0.416197,-0.640032,-0.344053,-10.125400,-0.472784,-0.937812,-0.083416,-0.286264,0.171081,41.913477,18.190451,2.695815,4635729747324698600.000000,-0.495505,-0.508813,-0.530139,0.463182,0
-10.605866,-0.276036,1.157336,-0.011827,-0.008590,-0.281207,43.496973,5.041657,15.279305,4635731787434164200.000000,-0.706724,-0.138546,-0.667826,0.188027,-9.835356,0.117296,-1.903775,-0.022245,0.324768,-0.017757,39.939005,-19.443163,14.801449,4635727814052544500.000000,-0.545718,0.416766,-0.640709,-0.343497,-10.110027,-0.394082,-0.938822,-0.084962,-0.274727,0.186134,41.944637,18.079165,2.748678,4635729747324698600.000000,-0.496651,-0.508510,-0.529342,0.463198,0
-10.591291,-0.280032,1.152231,-0.035709,-0.046307,-0.302014,43.572589,5.025084,15.229366,4635731766608830500.000000,-0.706625,-0.137559,-0.667902,0.188852,-9.782526,0.191511,-1.961585,-0.056440,0.314104,-0.027002,39.901606,-19.228427,15.091961,4635727814052544500.000000,-0.544823,0.417422,-0.641294,-0.343028,-9.990261,-0.354015,-1.052986,-0.087877,-0.267427,0.197305,42.053199,18.079165,2.874192,4635729747324698600.000000,-0.497809,-0.508239,-0.528541,0.463167,0
-10.531346,-0.392641,1.179016,-0.065619,-0.124112,-0.307898,43.546727,5.050947,15.322295,4635731680059981800.000000,-0.706754,-0.136406,-0.667774,0.189656,-9.717485,0.126667,-1.908751,-0.090236,0.304439,-0.034881,39.998674,-19.002924,15.181417,4635727814052544500.000000,-0.543905,0.418160,-0.641795,-0.342649,-9.936827,-0.431554,-1.064350,-0.088656,-0.264323,0.210310,42.115540,17.978362,2.789052,4635729747324698600.000000,-0.498985,-0.508000,-0.527719,0.463101,0
-10.302534,-0.442205,1.227472,-0.096560,-0.184518,-0.296007,42.994558,5.605482,15.376594,4635731680059981800.000000,-0.707077,-0.135147,-0.667485,0.190373,-9.660258,0.004999,-1.875738,-0.115710,0.301585,-0.035967,40.085507,-19.050758,15.279068,4635727814052544500.000000,-0.542951,0.418955,-0.642250,-0.342340,-9.960088,-0.406303,-1.006613,-0.084585,-0.261407,0.225943,42.061263,17.873944,2.605942,4635729747324698600.000000,-0.500175,-0.507809,-0.526861,0.463003,0
-9.973314,-0.421781,1.327496,-0.131808,-0.177768,-0.273816,42.240591,6.288808,15.337977,4635731680059981800.000000,-0.707416,-0.133851,-0.667230,0.190921,-9.651850,-0.177880,-1.896148,-0.109077,0.298049,-0.033849,40.004071,-19.165623,15.376712,4635727814052544500.000000,-0.542014,0.419722,-0.642709,-0.342023,-9.942436,-0.304198,-1.027565,-0.086318,-0.254523,0.240607,42.030090,17.893741,2.539140,4635729747324698600.000000,-0.501381,-0.507658,-0.525989,0.462856,0
-9.616220,-0.543084,1.416059,-0.164569,-0.100109,-0.249218,41.830418,6.428280,15.256889,4635731680059981800.000000,-0.707576,-0.132589,-0.667214,0.191263,-9.692271,-0.353404,-1.908356,-0.081743,0.290590,-0.030276,39.926822,-19.141615,15.442365,4635727814052544500.000000,-0.541139,0.420408,-0.643195,-0.341653,-9.909114,-0.268563,-1.080847,-0.094761,-0.243553,0.251779,42.177388,17.928221,2.531387,4635729747324698600.000000,-0.502601,-0.507534,-0.525131,0.462643,0
-9.380785,-0.767525,1.392415,-0.187619,-0.021565,-0.227684,41.839554,6.857478,15.239953,4635731680059981800.000000,-0.707546,-0.131380,-0.667436,0.191433,-9.749511,-0.399247,-1.968585,-0.046107,0.281676,-0.025689,39.893391,-19.036354,15.502391,4635727778853808100.000000,-0.540342,0.420987,-0.643718,-0.341214,-9.915709,-0.245305,-1.028894,-0.103696,-0.237908,0.261392,42.207763,17.878408,2.410645,4635729747324698600.000000,-0.503845,-0.507423,-0.524281,0.462377,0
-9.309135,-0.992761,1.279797,-0.213669,-0.000900,-0.201807,42.322807,7.109315,15.196236,4635731680059981800.000000,-0.707493,-0.130184,-0.667724,0.191443,-9.753922,-0.345808,-2.115261,-0.014417,0.272450,-0.017127,39.886620,-18.949477,15.721483,4635727706678362100.000000,-0.539613,0.421458,-0.644281,-0.340724,-9.947873,-0.154425,-0.919036,-0.115632,-0.235772,0.270327,42.075809,17.800714,2.227548,4635729747324698600.000000,-0.505125,-0.507308,-0.523438,0.462060,0
-9.345759,-1.122700,1.218375,-0.241442,-0.034642,-0.180617,43.093436,6.294048,15.111162,4635731680059981800.000000,-0.707565,-0.128937,-0.667922,0.191332,-9.713301,-0.362014,-2.233331,0.014808,0.258233,-0.010018,39.639728,-19.034926,15.918454,4635727706678362100.000000,-0.538963,0.421823,-0.644864,-0.340197,-9.984494,-0.032356,-0.801423,-0.132909,-0.232280,0.280906,42.072139,17.719722,2.214968,4635729747324698600.000000,-0.506454,-0.507186,-0.522612,0.461675,0
-9.377649,-1.164822,1.208533,-0.270862,-0.093929,-0.168319,43.556015,5.328332,14.983995,4635731680059981800.000000,-0.707825,-0.127590,-0.667961,0.191133,-9.656469,-0.350427,-2.275197,0.045345,0.241142,-0.003223,39.344875,-19.120380,15.886452,4635727706678362100.000000,-0.538402,0.422077,-0.645464,-0.339633,-9.889349,0.097469,-0.935133,-0.162308,-0.200878,0.284517,42.258353,17.494752,2.191905,4635729747324698600.000000,-0.507781,-0.507069,-0.521900,0.461151,0
-9.389856,-1.130563,1.215622,-0.307800,-0.127592,-0.171937,43.539474,5.264154,14.921780,4635731680059981800.000000,-0.708195,-0.126098,-0.667931,0.190860,-9.591231,-0.248991,-2.169552,0.080682,0.225103,-0.001068,39.399600,-19.149838,15.820795,4635727706678362100.000000,-0.537943,0.422223,-0.646080,-0.339006,-9.974211,0.045737,-1.208132,-0.213152,-0.199997,0.257002,42.293232,17.236090,1.982458,4635729679156135900.000000,-0.509160,-0.506785,-0.521344,0.460571,0
-9.416241,-1.110874,1.256970,-0.345874,-0.115532,-0.177071,43.501281,5.529953,14.990691,4635731680059981800.000000,-0.708545,-0.124488,-0.667967,0.190489,-9.586381,-0.102726,-2.099460,0.091954,0.210869,-0.002118,39.664995,-19.064394,15.852778,4635727706678362100.000000,-0.537543,0.422325,-0.646679,-0.338371,-10.516124,-0.430684,-0.918714,-0.232958,-0.202576,0.249538,42.207784,17.151402,1.817944,4635729639950516200.000000,-0.510571,-0.506436,-0.520836,0.459968,0
-9.513508,-1.103785,1.303829,-0.378745,-0.094204,-0.183205,43.645801,5.529953,14.990691,4635731680059981800.000000,-0.708846,-0.122780,-0.668094,0.190033,-9.683827,0.064179,-2.172062,0.069286,0.195914,-0.008820,39.771721,-19.006927,15.982419,4635727706678362100.000000,-0.537153,0.422475,-0.647199,-0.337809,-10.593125,-0.322635,-0.641568,-0.208052,-0.147135,0.253541,42.285085,17.050646,1.844285,4635729639950516200.000000,-0.511815,-0.506254,-0.520387,0.459293,0
-9.674170,-1.076614,1.272721,-0.414028,-0.104161,-0.197297,43.698172,5.544130,15.007230,4635731680059981800.000000,-0.709179,-0.120921,-0.668224,0.189525,-9.765923,0.186893,-2.290564,0.030172,0.180611,-0.020957,39.747736,-19.034909,16.113771,4635727706678362100.000000,-0.536751,0.422724,-0.647608,-0.337351,-10.315657,0.366183,-0.780872,-0.236447,-0.102577,0.248404,42.401732,16.992706,1.996192,4635729639950516200.000000,-0.513011,-0.506084,-0.520098,0.458472,0
-9.870267,-1.084097,1.158142,-0.445414,-0.153015,-0.213283,43.582031,5.603198,15.078505,4635731680059981800.000000,-0.709648,-0.118885,-0.668240,0.189001,-9.761926,0.183762,-2.323620,-0.007344,0.165639,-0.028802,39.698475,-19.120356,16.145747,4635727706678362100.000000,-0.536335,0.423056,-0.647917,-0.337004,-10.233094,0.546260,-0.956419,-0.314191,-0.083827,0.243640,42.022256,17.434379,2.125040,4635729639950516200.000000,-0.514321,-0.505772,-0.520006,0.457451,0
-9.956117,-1.086058,1.040392,-0.477493,-0.204047,-0.233371,43.415808,5.619727,15.085989,4635731680059981800.000000,-0.710255,-0.116658,-0.668137,0.188471,-9.749718,0.049906,-2.283215,-0.016835,0.152471,-0.034512,39.698475,-19.121867,16.179452,4635727706678362100.000000,-0.535945,0.423406,-0.648173,-0.336692,-10.110278,0.372061,-1.055250,-0.366709,-0.063736,0.236367,41.220263,18.122474,2.230452,4635729639950516200.000000,-0.515681,-0.505369,-0.520072,0.456289,0
-9.992736,-1.165969,1.003367,-0.503610,-0.226447,-0.251356,43.574488,5.688650,15.019502,4635731680059981800.000000,-0.710919,-0.114285,-0.667993,0.187931,-9.729520,-0.145171,-2.221967,0.010743,0.135440,-0.038784,39.666507,-18.954981,16.077809,4635727706678362100.000000,-0.535655,0.423682,-0.648422,-0.336327,-9.949261,0.235456,-1.086459,-0.388005,-0.041307,0.231500,40.747595,18.317908,2.278325,4635729639950516200.000000,-0.515831,-0.506315,-0.518906,0.456399,0
-10.022278,-1.350625,1.013214,-0.521804,-0.225415,-0.261283,43.685983,5.688650,14.747765,4635731680059981800.000000,-0.711577,-0.111831,-0.667866,0.187369,-9.684911,-0.284988,-2.161378,0.062320,0.116836,-0.041658,39.576846,-18.876195,16.035865,4635727706678362100.000000,-0.535511,0.423824,-0.648696,-0.335848,-9.884711,0.210812,-1.063219,-0.403924,-0.020912,0.230042,40.910753,18.193730,2.220811,4635729639950516200.000000,-0.516930,-0.506165,-0.518883,0.455347,0
-10.010478,-1.624723,1.003774,-0.534038,-0.223791,-0.258321,43.633571,5.702810,14.597695,4635731680059981800.000000,-0.712233,-0.109350,-0.667748,0.186761,-9.631865,-0.220630,-2.055511,0.109843,0.108291,-0.045852,39.527573,-18.985611,16.165475,4635727706678362100.000000,-0.535479,0.423860,-0.649010,-0.335247,-9.860296,0.242973,-1.057583,-0.421014,0.007127,0.231685,41.254911,18.295134,2.169632,4635729639950516200.000000,-0.517989,-0.506053,-0.518929,0.454215,0
-9.932921,-1.798801,0.959665,-0.539792,-0.237471,-0.252325,43.719024,5.778414,14.625607,4635731680059981800.000000,-0.712929,-0.106856,-0.667586,0.186125,-9.611220,-0.082135,-2.009776,0.125402,0.098698,-0.056922,39.551535,-19.040458,16.328834,4635727706678362100.000000,-0.535516,0.423877,-0.649305,-0.334596,-9.820392,0.256355,-1.038807,-0.434037,0.032782,0.233534,41.370892,18.330129,2.284642,4635729639950516200.000000,-0.519034,-0.505951,-0.519061,0.452983,0
-9.786436,-1.870092,0.944690,-0.546856,-0.242648,-0.247227,43.757280,5.833188,14.802043,4635731721571814400.000000,-0.713642,-0.104351,-0.667407,0.185454,-9.627421,0.019970,-2.074807,0.105964,0.087997,-0.065797,39.572858,-18.905725,16.426495,4635727706678362100.000000,-0.535560,0.423946,-0.649532,-0.333996,-9.763819,0.302827,-0.978951,-0.450139,0.061598,0.224437,41.696189,17.756735,2.596129,4635729503700113400.000000,-0.520077,-0.505795,-0.519353,0.451624,0
-9.637606,-1.882298,0.969101,-0.553021,-0.211408,-0.239921,43.629261,5.757594,14.845451,4635731894808346600.000000,-0.714271,-0.101872,-0.667318,0.184730,-9.639857,0.073012,-2.136063,0.061292,0.082247,-0.074401,39.515366,-18.848230,16.492203,4635727706678362100.000000,-0.535552,0.424130,-0.649669,-0.333508,-9.726018,0.399306,-0.812764,-0.474788,0.087256,0.210838,42.201154,16.863491,2.796420,4635729493327352800.000000,-0.521284,-0.505378,-0.519992,0.449960,0
-9.493066,-1.894505,0.977013,-0.563459,-0.163272,-0.240053,43.659907,5.702794,14.676497,4635731894808346600.000000,-0.714766,-0.099397,-0.667376,0.183956,-9.603708,0.057754,-2.140758,0.006985,0.079803,-0.076188,39.515366,-18.792363,16.520136,4635727706678362100.000000,-0.535457,0.424436,-0.649722,-0.333167,-9.732581,0.454955,-0.647258,-0.497136,0.099809,0.198699,42.182754,16.668221,2.839862,4635729532576333800.000000,-0.522486,-0.504908,-0.520723,0.448245,0
-9.417040,-1.899638,0.904180,-0.576727,-0.129112,-0.250080,43.787956,5.778402,14.606713,4635731853322281000.000000,-0.715158,-0.096880,-0.667545,0.183159,-9.562153,-0.076298,-2.115637,-0.023006,0.072326,-0.076907,39.539311,-18.625444,16.545726,4635727706678362100.000000,-0.535331,0.424801,-0.649715,-0.332919,-9.726022,0.440653,-0.567192,-0.507553,0.104575,0.185595,41.857655,16.942126,2.844325,4635729532576333800.000000,-0.523672,-0.504393,-0.521509,0.446524,0
-9.382779,-1.868156,0.791548,-0.590707,-0.120664,-0.261416,43.740820,5.863844,14.685506,4635731680059981800.000000,-0.715518,-0.094296,-0.667749,0.182352,-9.595019,-0.246975,-2.172452,-0.038433,0.064150,-0.074811,39.588608,-18.514640,16.448062,4635727706678362100.000000,-0.535196,0.425183,-0.649672,-0.332732,-9.678378,0.427259,-0.440929,-0.495278,0.101681,0.173742,41.845516,16.906622,2.960473,4635729532576333800.000000,-0.524814,-0.503871,-0.522288,0.444859,0
-9.353656,-1.797702,0.734800,-0.618682,-0.122294,-0.271441,43.543808,5.932798,14.647816,4635731680059981800.000000,-0.715881,-0.091599,-0.667969,0.181497,-9.575067,-0.390401,-2.205785,-0.030115,0.053839,-0.068403,39.616542,-18.534357,16.354402,4635727706678362100.000000,-0.535094,0.425515,-0.649629,-0.332555,-9.609605,0.465968,-0.277785,-0.470140,0.089177,0.158997,41.861564,16.922446,3.089371,4635729532576333800.000000,-0.525900,-0.503346,-0.523022,0.443306,0
-9.321314,-1.690196,0.730521,-0.647315,-0.106348,-0.280511,43.557938,5.946928,14.490188,4635731680059981800.000000,-0.716197,-0.088802,-0.668256,0.180581,-9.537972,-0.403082,-2.152968,-0.003308,0.042090,-0.062692,39.674061,-18.591875,16.264963,4635727706678362100.000000,-0.535064,0.425755,-0.649607,-0.332339,-9.598293,0.519259,-0.033955,-0.430570,0.072478,0.143940,41.834770,17.026942,3.125095,4635729532576333800.000000,-0.526671,-0.503125,-0.523403,0.442189,0
-9.357930,-1.609024,0.652583,-0.672817,-0.087138,-0.276728,43.649992,6.008395,14.525482,4635731680059981800.000000,-0.716466,-0.085954,-0.668612,0.179575,-9.542201,-0.358487,-2.127835,0.012712,0.032087,-0.059816,39.590301,-18.484184,16.259053,4635727706678362100.000000,-0.535086,0.425938,-0.649590,-0.332104,-9.645930,0.630015,0.189356,-0.377475,0.064193,0.128022,41.935400,16.960853,3.125095,4635729532576333800.000000,-0.527358,-0.502925,-0.523745,0.441194,0
-9.396910,-1.608587,0.573748,-0.686987,-0.095080,-0.263985,43.757352,5.985292,14.675653,4635731680059981800.000000,-0.716764,-0.083092,-0.668943,0.178491,-9.549932,-0.285492,-2.192611,0.023150,0.024283,-0.061212,39.417706,-18.234362,16.414236,4635727706678362100.000000,-0.535149,0.426091,-0.649567,-0.331851,-9.699227,0.761022,0.318282,-0.318832,0.056248,0.114318,41.536761,17.294293,3.194762,4635729532576333800.000000,-0.527917,-0.502803,-0.523993,0.440369,0
-9.441030,-1.659767,0.578455,-0.691542,-0.122851,-0.240976,43.612786,5.830871,14.650202,4635731680059981800.000000,-0.717152,-0.080259,-0.669181,0.177335,-9.590787,-0.187833,-2.258370,0.016151,0.014997,-0.063740,39.449606,-18.288475,16.448093,4635727741752468500.000000,-0.535228,0.426253,-0.649509,-0.331628,-9.670654,0.859868,0.462373,-0.261729,0.052339,0.105279,40.661783,17.896876,3.304621,4635729532576333800.000000,-0.528358,-0.502767,-0.524158,0.439684,0
-9.458386,-1.725497,0.600514,-0.686280,-0.149383,-0.212102,43.557917,5.778355,14.481231,4635731721427135500.000000,-0.717627,-0.077502,-0.669320,0.176114,-9.619189,-0.149987,-2.246407,0.002507,0.008937,-0.063719,39.515366,-18.546544,16.446137,4635727814052544500.000000,-0.535299,0.426436,-0.649419,-0.331453,-9.558716,0.953055,0.602311,-0.219054,0.050985,0.099156,40.571981,17.674645,3.406743,4635729532576333800.000000,-0.528718,-0.502789,-0.524273,0.439088,0
-9.439119,-1.806252,0.617428,-0.672393,-0.168278,-0.187738,43.633519,5.863815,14.430172,4635731894808346600.000000,-0.718161,-0.074840,-0.669378,0.174863,-9.643848,-0.231448,-2.205799,0.009441,0.002201,-0.067250,39.487455,-18.548263,16.641448,4635727814052544500.000000,-0.535406,0.426605,-0.649317,-0.331264,-9.455398,1.066184,0.794022,-0.192610,0.046817,0.095847,41.288798,16.986614,3.550825,4635729532576333800.000000,-0.529048,-0.502828,-0.524361,0.438540,0
-9.378528,-1.862583,0.644640,-0.658096,-0.174353,-0.163004,43.733085,5.932798,14.585494,4635731894808346600.000000,-0.718719,-0.072284,-0.669394,0.173579,-9.611956,-0.272797,-2.133052,0.032634,-0.003226,-0.071566,39.481738,-18.461086,16.772972,4635727814052544500.000000,-0.535574,0.426726,-0.649228,-0.331011,-9.393160,1.257910,1.142052,-0.186821,0.037414,0.086939,41.715642,16.736349,3.667563,4635729532576333800.000000,-0.529383,-0.502826,-0.524453,0.438027,0
-9.259268,-1.915660,0.637136,-0.642898,-0.166789,-0.134745,43.861198,5.932798,14.559181,4635731894808346600.000000,-0.719266,-0.069858,-0.669408,0.172249,-9.538215,-0.280278,-2.030908,0.045909,-0.001068,-0.072613,39.616518,-18.542554,16.804869,4635727778982646800.000000,-0.535762,0.426823,-0.649159,-0.330717,-9.413978,1.427937,1.572567,-0.188671,0.019570,0.080893,41.572536,16.829211,3.644675,4635729532576333800.000000,-0.529745,-0.502781,-0.524516,0.437567,0
-9.107625,-2.044788,0.646992,-0.631354,-0.139254,-0.113999,43.844740,5.932798,14.490188,4635731894808346600.000000,-0.719742,-0.067544,-0.669485,0.170879,-9.513803,-0.305686,-1.965893,0.047020,-0.001417,-0.075119,39.646161,-18.619774,16.870632,4635727776792388600.000000,-0.535956,0.426924,-0.649087,-0.330414,-9.529166,1.453885,1.950085,-0.172815,-0.003821,0.083496,41.394445,17.083999,3.489601,4635729668681548800.000000,-0.530107,-0.502761,-0.524465,0.437213,0
-8.997309,-2.184673,0.644641,-0.620879,-0.085025,-0.096869,43.761643,5.932798,14.525452,4635731894808346600.000000,-0.720071,-0.065347,-0.669707,0.169471,-9.485405,-0.212519,-1.904607,0.036493,0.000305,-0.077582,39.588608,-18.625520,16.806869,4635727921426726900.000000,-0.536130,0.427057,-0.649000,-0.330131,-9.644702,1.301219,2.144886,-0.120103,-0.031095,0.089513,41.497936,17.455532,3.348445,4635729747324698600.000000,-0.530405,-0.502848,-0.524218,0.437046,0
-8.943327,-2.222206,0.637135,-0.610444,-0.030024,-0.084875,43.718952,5.899901,14.656850,4635731894808346600.000000,-0.720247,-0.063253,-0.670079,0.168039,-9.476680,-0.130045,-1.903854,0.010159,0.006038,-0.083969,39.640422,-18.462832,16.643427,4635727921426726900.000000,-0.536250,0.427274,-0.648878,-0.329896,-9.726889,1.050540,2.208334,-0.030756,-0.062643,0.100661,41.740879,17.401929,3.431988,4635729747324698600.000000,-0.530621,-0.503081,-0.523735,0.437096,0
-8.925962,-2.154120,0.646992,-0.596764,0.011098,-0.076536,43.802054,5.731347,14.552600,4635731894808346600.000000,-0.720306,-0.061251,-0.670558,0.166609,-9.529491,-0.178366,-1.977092,-0.009242,0.006082,-0.091119,39.775199,-18.347727,16.609531,4635727851330057200.000000,-0.536345,0.427553,-0.648716,-0.329696,-9.753716,0.836146,2.183070,0.087631,-0.090338,0.115223,41.796094,16.844762,3.573144,4635729747324698600.000000,-0.530712,-0.503513,-0.522984,0.437388,0
-8.956962,-2.054116,0.649342,-0.583741,0.037304,-0.069676,43.847104,5.619643,14.458767,4635731894808346600.000000,-0.720289,-0.059326,-0.671102,0.165187,-9.582558,-0.244148,-2.042368,-0.015911,0.002507,-0.093648,39.856664,-18.319834,16.643435,4635727706678362100.000000,-0.536441,0.427850,-0.648533,-0.329515,-9.761450,0.707187,2.075626,0.227309,-0.110843,0.126115,41.773735,16.589861,3.489633,4635729543219688400.000000,-0.530577,-0.504234,-0.521915,0.437996,0
-9.066810,-1.953656,0.659200,-0.570884,0.044082,-0.063966,43.773873,5.688650,14.741837,4635731894808346600.000000,-0.720249,-0.057460,-0.671651,0.163782,-9.615195,-0.252116,-2.099164,-0.026355,0.001417,-0.093277,39.906002,-18.206497,16.545780,4635727706678362100.000000,-0.536521,0.428167,-0.648334,-0.329366,-9.742718,0.710082,1.879465,0.368908,-0.114112,0.131276,41.766000,16.682680,3.240170,4635729425202151400.000000,-0.530142,-0.505294,-0.520546,0.438930,0
-9.176685,-1.902007,0.656852,-0.560695,0.032824,-0.052216,43.698275,5.641690,14.980832,4635731894808346600.000000,-0.720242,-0.055649,-0.672153,0.162371,-9.619692,-0.340260,-2.180369,-0.009952,-0.000652,-0.094694,39.882102,-18.147136,16.511860,4635727706678362100.000000,-0.536638,0.428448,-0.648149,-0.329172,-9.613291,0.778848,1.639808,0.488131,-0.106065,0.131097,41.761528,16.736349,3.137303,4635729425202151400.000000,-0.529437,-0.506626,-0.518978,0.440101,0
-9.270113,-1.889801,0.644646,-0.545249,0.015284,-0.038824,43.629261,5.444502,14.990691,4635731894808346600.000000,-0.720286,-0.053910,-0.672585,0.160966,-9.591036,-0.476347,-2.250145,0.042646,-0.009197,-0.096482,39.804875,-18.290158,16.609519,4635727706678362100.000000,-0.536874,0.428605,-0.648015,-0.328848,-9.437921,0.906224,1.403405,0.614956,-0.093069,0.125577,41.908462,16.643548,3.075435,4635729425202151400.000000,-0.528432,-0.508234,-0.517225,0.441516,0
-9.292181,-1.879940,0.634785,-0.536499,0.005463,-0.019146,43.615181,5.460928,15.009464,4635731894808346600.000000,-0.720365,-0.052246,-0.672974,0.159529,-9.554933,-0.403881,-2.210577,0.095187,-0.017045,-0.099292,39.775185,-18.319848,16.675312,4635727811772099600.000000,-0.537229,0.428641,-0.647930,-0.328389,-9.344352,1.219589,1.148264,0.741244,-0.074055,0.118777,42.001201,16.489327,3.039644,4635729425202151400.000000,-0.527117,-0.510116,-0.515308,0.443155,0
-9.306732,-1.882286,0.641821,-0.526476,0.018853,-0.003494,43.553670,5.560444,15.067242,4635731894808346600.000000,-0.720412,-0.050664,-0.673390,0.158069,-9.501342,-0.257404,-2.087990,0.115754,-0.021711,-0.106398,39.804885,-18.206531,16.643459,4635728028800909300.000000,-0.537643,0.428643,-0.647849,-0.327868,-9.372857,1.529632,0.987969,0.814186,-0.060135,0.122518,41.959275,16.330630,3.039644,4635729425202151400.000000,-0.525738,-0.512047,-0.513412,0.444764,0
-9.333492,-1.896838,0.671407,-0.515137,0.038327,0.006940,43.560226,5.658160,14.980829,4635731894808346600.000000,-0.720404,-0.049158,-0.673852,0.156604,-9.529476,-0.142769,-2.026691,0.101703,-0.020689,-0.114594,39.771196,-18.039609,16.577654,4635728028800909300.000000,-0.538039,0.428700,-0.647737,-0.327364,-9.399700,1.693177,0.913515,0.867555,-0.055935,0.131454,41.870570,16.372992,2.861795,4635729493216107500.000000,-0.524131,-0.514247,-0.511268,0.446589,0
-9.360733,-1.918907,0.664372,-0.504703,0.050245,0.019595,43.615190,5.480706,14.974275,4635731894808346600.000000,-0.720366,-0.047726,-0.674337,0.155127,-9.574585,-0.105886,-1.978130,0.072100,-0.015000,-0.123812,39.876281,-17.956561,16.577654,4635728028800909300.000000,-0.538380,0.428856,-0.647580,-0.326909,-9.391968,1.725719,0.891140,0.935381,-0.055544,0.131204,41.873431,16.485289,2.519181,4635729532576333800.000000,-0.522356,-0.516601,-0.508976,0.448565,0
-9.348527,-1.942835,0.632441,-0.490818,0.045725,0.027276,43.570080,5.259533,14.886486,4635731894808346600.000000,-0.720340,-0.046355,-0.674795,0.153667,-9.590770,-0.121535,-1.896936,0.047187,-0.008592,-0.134888,40.019309,-18.033775,16.545819,4635728028800909300.000000,-0.538674,0.429106,-0.647384,-0.326484,-9.426148,1.690320,0.860216,0.979313,-0.058926,0.122481,41.895809,16.462500,2.256747,4635729532576333800.000000,-0.520456,-0.519029,-0.506591,0.450665,0
-9.333973,-1.997324,0.641338,-0.477546,0.048966,0.036438,43.615190,5.214424,14.845102,4635731894808346600.000000,-0.720305,-0.045051,-0.675249,0.152215,-9.615187,-0.222647,-1.823150,0.026425,-0.002879,-0.140972,40.076904,-18.091372,16.416310,4635727958781551600.000000,-0.538924,0.429427,-0.647161,-0.326092,-9.456260,1.664684,0.803658,0.964754,-0.071031,0.114506,41.949921,16.384782,2.185125,4635729532576333800.000000,-0.518603,-0.521360,-0.504231,0.452754,0
-9.309561,-1.977599,0.729612,-0.467276,0.071352,0.047571,43.539607,5.275942,15.056808,4635731894808346600.000000,-0.720209,-0.043823,-0.675760,0.150754,-9.627662,-0.329600,-1.830572,0.017834,-0.000348,-0.145569,40.021194,-18.063517,16.348344,4635727814052544500.000000,-0.539157,0.429783,-0.646924,-0.325708,-9.507121,1.582902,0.804465,0.908037,-0.088406,0.099304,41.973528,16.357920,2.123281,4635729668569027600.000000,-0.516885,-0.523480,-0.501979,0.454770,0
-9.292178,-1.977599,0.776098,-0.458526,0.097236,0.056732,43.442435,5.238927,15.323515,4635731894808346600.000000,-0.720042,-0.042664,-0.676338,0.149285,-9.615454,-0.297766,-1.923712,0.011124,-0.000372,-0.153046,39.878147,-17.982045,16.539682,4635727814052544500.000000,-0.539388,0.430174,-0.646664,-0.325326,-9.533982,1.429918,0.856544,0.889445,-0.098447,0.081716,42.061806,16.365650,1.847848,4635729747324698600.000000,-0.515174,-0.525509,-0.499757,0.456815,0
-9.304385,-1.982287,0.798658,-0.447887,0.116795,0.068071,43.324074,5.008847,15.474789,4635731894808346600.000000,-0.719822,-0.041580,-0.676964,0.147808,-9.587308,-0.263810,-2.073977,-0.000281,0.000720,-0.159829,39.792663,-17.876905,16.631236,4635727814052544500.000000,-0.539605,0.430610,-0.646378,-0.324956,-9.495337,1.228106,0.708894,0.879446,-0.115961,0.067047,42.061438,16.362399,1.593101,4635729747324698600.000000,-0.513476,-0.527453,-0.497530,0.458911,0
-9.321276,-2.011383,0.747987,-0.431910,0.122222,0.078503,43.354522,4.887149,15.405743,4635731874207036400.000000,-0.719588,-0.040577,-0.677592,0.146343,-9.542205,-0.365457,-2.233190,-0.007477,-0.002789,-0.163775,39.759002,-17.733883,16.533573,4635727814052544500.000000,-0.539824,0.431067,-0.646068,-0.324604,-9.472945,0.931082,0.594912,0.855378,-0.154054,0.051132,41.983715,16.458398,1.518196,4635729747324698600.000000,-0.511886,-0.529217,-0.495312,0.461052,0
-9.350871,-2.064891,0.652176,-0.411207,0.121476,0.092183,43.496817,4.925769,15.405743,4635731787434164200.000000,-0.719358,-0.039674,-0.678201,0.144895,-9.537965,-0.423536,-2.331095,-0.009916,-0.011682,-0.162752,39.864100,-17.648440,16.531510,4635727814052544500.000000,-0.540060,0.431516,-0.645736,-0.324276,-9.418848,0.542932,0.524130,0.858145,-0.172932,0.034719,41.995486,16.570713,1.335971,4635729747324698600.000000,-0.510291,-0.530906,-0.493079,0.463266,0
-9.355555,-2.147510,0.631946,-0.390414,0.132935,0.104387,43.541962,4.764719,15.426822,4635731787434164200.000000,-0.719097,-0.038875,-0.678827,0.143466,-9.550171,-0.414530,-2.372479,-0.011470,-0.022340,-0.158806,40.031014,-17.562993,16.663105,4635727814052544500.000000,-0.540317,0.431942,-0.645384,-0.323980,-9.287034,0.290178,0.279651,0.899684,-0.168023,0.016669,42.017883,16.501610,1.117034,4635729747324698600.000000,-0.508550,-0.532649,-0.490806,0.465588,0
-9.389332,-2.262549,0.673748,-0.374481,0.150316,0.113999,43.468724,4.626606,15.534338,4635731787434164200.000000,-0.718788,-0.038161,-0.679492,0.142051,-9.570345,-0.487778,-2.332133,0.001652,-0.033067,-0.156343,40.165821,-17.533296,16.663105,4635727814052544500.000000,-0.540622,0.432318,-0.645031,-0.323674,-9.182437,0.425107,0.058250,0.901421,-0.172608,-0.007965,41.971522,16.443373,1.049837,4635729747324698600.000000,-0.506774,-0.534311,-0.488585,0.467950,0
-9.460234,-2.345658,0.662548,-0.348071,0.156447,0.123612,43.393142,4.628947,15.648379,4635731787434164200.000000,-0.718461,-0.037556,-0.680156,0.140680,-9.579092,-0.537126,-2.246949,0.018764,-0.040869,-0.150306,40.223392,-17.618740,16.663105,4635727814052544500.000000,-0.540971,0.432628,-0.644693,-0.323349,-9.263705,1.116516,0.038626,0.773895,-0.188804,-0.033705,42.037339,16.543800,0.926233,4635729747324698600.000000,-0.505264,-0.535603,-0.486638,0.470128,0
-9.516585,-2.416555,0.545677,-0.316146,0.148517,0.133224,43.324074,4.606064,15.817433,4635731787434164200.000000,-0.718156,-0.037070,-0.680774,0.139372,-9.526283,-0.525182,-2.176899,0.026053,-0.049460,-0.145965,40.167655,-17.620582,16.631255,4635727814052544500.000000,-0.541350,0.432898,-0.644353,-0.323030,-9.565921,2.147901,0.022414,0.530985,-0.217776,-0.060300,42.230170,16.609792,0.545532,4635729747324698600.000000,-0.504272,-0.536296,-0.485131,0.471958,0
-9.543852,-2.468233,0.434272,-0.294127,0.147268,0.142018,43.356802,4.437519,15.924949,4635731807996822500.000000,-0.717853,-0.036674,-0.681373,0.138100,-9.477192,-0.464681,-2.173184,0.014722,-0.052339,-0.148101,39.996767,-17.453673,16.565447,4635727814052544500.000000,-0.541719,0.433196,-0.643988,-0.322741,-9.913452,2.898957,-0.247189,0.205670,-0.248969,-0.098886,42.210440,16.560203,0.312149,4635729747324698600.000000,-0.503980,-0.536174,-0.484269,0.473291,0
-9.526972,-2.471092,0.468555,-0.272402,0.158177,0.147563,43.480955,4.292855,16.024938,4635731894808346600.000000,-0.717519,-0.036365,-0.681990,0.136871,-9.480636,-0.406556,-2.124624,-0.005501,-0.052339,-0.151282,39.857709,-17.346720,16.565447,4635727814052544500.000000,-0.542056,0.433547,-0.643589,-0.322500,-10.065380,3.077509,-0.521940,-0.185031,-0.283890,-0.161992,41.951346,16.521100,0.342560,4635729747324698600.000000,-0.504520,-0.535019,-0.484263,0.474029,0
-9.495022,-2.436805,0.483621,-0.244833,0.143609,0.153563,43.405369,4.223762,16.130136,4635731894808346600.000000,-0.717223,-0.036146,-0.682546,0.135704,-9.545650,-0.471301,-2.075258,-0.032204,-0.055125,-0.153141,39.860072,-17.374575,16.597281,4635727814052544500.000000,-0.542354,0.433960,-0.643144,-0.322330,-10.036976,2.863255,-0.698564,-0.610833,-0.321666,-0.246503,41.834770,16.570679,0.502001,4635729747324698600.000000,-0.505940,-0.532696,-0.485231,0.474142,0
-9.478143,-2.421739,0.466218,-0.219563,0.114475,0.156813,43.352637,4.223762,16.199224,4635731894808346600.000000,-0.717007,-0.035996,-0.682998,0.134604,-9.598999,-0.537126,-2.087198,-0.054382,-0.062626,-0.147103,40.046633,-17.376456,16.631267,4635727779047066600.000000,-0.542623,0.434396,-0.642664,-0.322248,-9.986901,2.507247,-0.710520,-1.030986,-0.362430,-0.328511,41.981511,16.702470,0.504239,4635729747324698600.000000,-0.508204,-0.529234,-0.487119,0.473662,0
-9.439184,-2.434471,0.464406,-0.200132,0.099246,0.154927,43.452109,4.193386,16.145483,4635731894808346600.000000,-0.716830,-0.035891,-0.683393,0.133566,-9.611205,-0.541105,-2.119838,-0.058495,-0.068314,-0.140323,40.211185,-17.233417,16.533616,4635727706678362100.000000,-0.542891,0.434816,-0.642176,-0.322201,-9.934837,2.175179,-0.521447,-1.405420,-0.401774,-0.393925,42.012655,16.907489,0.348047,4635729747324698600.000000,-0.511207,-0.524776,-0.489768,0.472658,0
-9.409045,-2.402522,0.403370,-0.179837,0.111767,0.149791,43.564075,4.018339,15.920790,4635731894808346600.000000,-0.716610,-0.035838,-0.683815,0.132600,-9.607499,-0.561268,-2.132317,-0.043565,-0.076463,-0.132198,40.211185,-17.175816,16.404134,4635727706678362100.000000,-0.543197,0.435169,-0.641705,-0.322148,-9.896968,1.916338,-0.156998,-1.723435,-0.431725,-0.445238,41.780495,17.139418,0.342544,4635729747324698600.000000,-0.514832,-0.519461,-0.493061,0.471168,0
-9.460204,-2.392651,0.358684,-0.160771,0.132059,0.145928,43.464623,3.820917,15.949340,4635731894808346600.000000,-0.716327,-0.035842,-0.684286,0.131696,-9.590766,-0.581978,-2.116134,-0.026128,-0.087516,-0.119009,40.239027,-17.171838,16.240650,4635727706678362100.000000,-0.543546,0.435432,-0.641256,-0.322098,-9.911162,1.761615,0.177600,-1.998476,-0.465469,-0.487507,41.663868,17.224646,0.494256,4635729747324698600.000000,-0.519011,-0.513365,-0.496889,0.469240,0
-9.523569,-2.385650,0.385430,-0.147499,0.150310,0.143383,43.322279,3.820917,16.046990,4635731894808346600.000000,-0.715987,-0.035889,-0.684804,0.130835,-9.615181,-0.561816,-2.111605,-0.015626,-0.097477,-0.108651,40.348343,-17.163609,16.206627,4635727706678362100.000000,-0.543927,0.435630,-0.640817,-0.322062,-9.909177,1.543665,0.419745,-2.234481,-0.503243,-0.524999,41.818284,17.224646,0.677353,4635729747324698600.000000,-0.523779,-0.506431,-0.501272,0.466808,0
-9.601481,-2.351361,0.408051,-0.137226,0.155840,0.139927,43.246703,3.774244,16.146983,4635731894808346600.000000,-0.715627,-0.035959,-0.685333,0.130012,-9.615734,-0.537126,-2.172087,-0.024446,-0.109202,-0.100131,40.431473,-17.191447,16.240653,4635727741658072100.000000,-0.544311,0.435809,-0.640355,-0.322089,-9.846162,1.147103,0.600867,-2.415046,-0.543329,-0.555235,41.853974,17.325010,0.806414,4635729679418549200.000000,-0.528899,-0.498909,-0.505931,0.464101,0
-9.685138,-2.324613,0.371429,-0.129497,0.143886,0.141153,43.193921,3.576769,16.254515,4635731894808346600.000000,-0.715300,-0.036050,-0.685821,0.129210,-9.574861,-0.537126,-2.218334,-0.036640,-0.120999,-0.090146,40.354263,-17.276889,16.115178,4635727814052544500.000000,-0.544691,0.435974,-0.639868,-0.322193,-9.799312,0.629180,0.705521,-2.522751,-0.584987,-0.577885,41.675878,17.522307,0.904073,4635729639950516200.000000,-0.534225,-0.490964,-0.510694,0.461248,0
-9.711886,-2.283323,0.341807,-0.125020,0.132702,0.148174,43.279374,3.607107,16.349841,4635731894808346600.000000,-0.715008,-0.036167,-0.686272,0.128401,-9.534547,-0.537126,-2.105062,-0.044391,-0.127433,-0.081601,40.324463,-17.334513,16.023497,4635727814052544500.000000,-0.545062,0.436124,-0.639371,-0.322349,-9.790338,0.087567,0.747885,-2.536943,-0.619214,-0.588723,41.490259,17.703439,1.063494,4635729639950516200.000000,-0.539566,-0.482837,-0.515367,0.458403,0
-9.729842,-2.229289,0.353473,-0.120292,0.129450,0.157583,43.378819,3.735465,16.418957,4635731894808346600.000000,-0.714729,-0.036324,-0.686708,0.127577,-9.493104,-0.537126,-1.969927,-0.058302,-0.132053,-0.073751,40.405946,-17.227164,16.180803,4635727814052544500.000000,-0.545409,0.436279,-0.638858,-0.322567,-9.774899,-0.457237,0.725982,-2.462112,-0.647093,-0.587984,41.377891,17.908440,1.251079,4635729639950516200.000000,-0.544752,-0.474769,-0.519771,0.455717,0
-9.668815,-2.197885,0.412168,-0.117545,0.128886,0.167146,43.493201,3.674859,16.439936,4635731874305186800.000000,-0.714455,-0.036517,-0.687139,0.126733,-9.525467,-0.541101,-1.936720,-0.070051,-0.136698,-0.067343,40.427510,-16.977089,16.306529,4635727779089912800.000000,-0.545739,0.436437,-0.638331,-0.322840,-9.704172,-0.890764,0.715748,-2.310161,-0.654885,-0.578308,41.300162,18.086339,1.441900,4635729639950516200.000000,-0.549611,-0.466998,-0.523791,0.453303,0
-9.600776,-2.143839,0.461003,-0.112203,0.120592,0.181238,43.356979,3.385422,16.531156,4635731787434164200.000000,-0.714210,-0.036761,-0.687540,0.125864,-9.558396,-0.549333,-1.977025,-0.080061,-0.140945,-0.059892,40.397698,-16.919460,16.111234,4635727706678362100.000000,-0.546051,0.436592,-0.637794,-0.323164,-9.583367,-1.133472,0.650776,-2.094259,-0.653031,-0.562790,41.219206,18.286842,1.567743,4635729504180281300.000000,-0.553851,-0.459913,-0.527153,0.451485,0
-9.510116,-2.121757,0.498172,-0.106251,0.109251,0.196395,43.014776,3.230848,16.543362,4635731787434164200.000000,-0.714005,-0.037060,-0.687900,0.124967,-9.562371,-0.545359,-2.030403,-0.083340,-0.147007,-0.050278,40.534822,-16.919460,15.979491,4635727706678362100.000000,-0.546360,0.436720,-0.637255,-0.323530,-9.495396,-1.165456,0.533197,-1.845661,-0.645210,-0.541649,41.041149,18.518771,1.722647,4635729425202151400.000000,-0.557667,-0.453343,-0.530060,0.450027,0
-9.437445,-2.102564,0.481308,-0.098726,0.101270,0.212414,42.992230,3.161717,16.550909,4635731787434164200.000000,-0.713829,-0.037424,-0.688230,0.124046,-9.570604,-0.537126,-2.030689,-0.082918,-0.152347,-0.041708,40.643847,-16.947278,15.979491,4635727706678362100.000000,-0.546673,0.436817,-0.636721,-0.323923,-9.411207,-0.962280,0.387971,-1.605229,-0.636162,-0.511397,40.901818,18.704408,1.856227,4635729425202151400.000000,-0.561041,-0.447375,-0.532460,0.448972,0
-9.320027,-2.070040,0.460992,-0.094503,0.105094,0.228437,43.206100,3.147740,16.596940,4635731787434164200.000000,-0.713648,-0.037848,-0.688566,0.123089,-9.550740,-0.529180,-1.994357,-0.084782,-0.157340,-0.035995,40.453094,-17.032724,15.947708,4635727706678362100.000000,-0.546987,0.436896,-0.636182,-0.324344,-9.282689,-0.646175,0.221570,-1.382236,-0.621258,-0.471818,41.024714,18.816794,1.884431,4635729425202151400.000000,-0.564017,-0.442016,-0.534384,0.448264,0
-9.231682,-2.108995,0.509825,-0.085549,0.128032,0.244664,43.261263,3.074490,16.871296,4635731787434164200.000000,-0.713408,-0.038356,-0.688962,0.122105,-9.497649,-0.520657,-1.969076,-0.081179,-0.161265,-0.032765,40.348286,-17.142013,15.917588,4635727706678362100.000000,-0.547313,0.436953,-0.635645,-0.324769,-8.974142,-0.486334,-0.011073,-1.159601,-0.572321,-0.423689,41.160834,18.848230,1.818206,4635729425202151400.000000,-0.566625,-0.437265,-0.535980,0.447728,0
-9.187516,-2.155491,0.537687,-0.075276,0.142218,0.261549,43.215976,3.012899,16.975754,4635731787434164200.000000,-0.713133,-0.038951,-0.689391,0.121098,-9.504725,-0.537126,-2.005987,-0.082222,-0.164817,-0.030654,40.534783,-17.193447,15.928139,4635727741619421200.000000,-0.547644,0.437002,-0.635102,-0.325208,-8.470955,-0.579641,-0.349104,-0.926784,-0.483134,-0.370389,41.033432,18.940839,1.666521,4635729493082529800.000000,-0.568694,-0.433338,-0.537241,0.447413,0
-9.165431,-2.175808,0.469662,-0.068769,0.146182,0.277775,43.275246,3.019326,16.729924,4635731787434164200.000000,-0.712852,-0.039614,-0.689825,0.120061,-9.562661,-0.537126,-2.006279,-0.080214,-0.171869,-0.028119,40.727283,-16.994757,15.732837,4635727814052544500.000000,-0.547993,0.437029,-0.634550,-0.325660,-8.125533,-0.608415,-0.619459,-0.726147,-0.383983,-0.339551,40.881906,19.195323,1.599170,4635729532576333800.000000,-0.570100,-0.430283,-0.538177,0.447445,0
-9.139250,-2.133967,0.397624,-0.072536,0.140588,0.293235,43.261271,3.041893,16.688162,4635731787434164200.000000,-0.712594,-0.040308,-0.690240,0.118967,-9.542218,-0.529183,-1.977892,-0.071218,-0.183645,-0.028840,40.757134,-16.797973,15.601062,4635727814052544500.000000,-0.548391,0.437022,-0.633982,-0.326108,-8.322397,-0.339094,-0.680393,-0.589914,-0.314466,-0.327187,40.791971,19.404685,1.537455,4635729532576333800.000000,-0.571139,-0.427685,-0.539013,0.447606,0
-9.060791,-2.135726,0.427259,-0.082808,0.143543,0.300150,43.218293,2.765189,16.885784,4635731787434164200.000000,-0.712332,-0.040992,-0.690667,0.117823,-9.549866,-0.516682,-1.921417,-0.074667,-0.191868,-0.027798,40.751105,-16.772384,15.632830,4635727779124369400.000000,-0.548802,0.437008,-0.633391,-0.326583,-8.869866,0.097829,-0.609692,-0.504477,-0.275908,-0.300023,40.768235,19.458601,1.563226,4635729532576333800.000000,-0.571991,-0.425413,-0.539735,0.447813,0
-9.021271,-2.187451,0.427259,-0.091353,0.169126,0.300150,43.271168,2.399031,17.056068,4635731787434164200.000000,-0.711996,-0.041663,-0.691172,0.116649,-9.586782,-0.513008,-1.863465,-0.088526,-0.199640,-0.026330,40.941547,-16.849592,15.635201,4635727706678362100.000000,-0.549206,0.437011,-0.632766,-0.327111,-9.248804,0.345707,-0.573748,-0.440055,-0.249375,-0.248463,40.826727,19.366028,1.714886,4635729532576333800.000000,-0.572864,-0.423333,-0.540405,0.447860,0
-9.044531,-2.197333,0.415629,-0.099694,0.195981,0.300353,43.171761,2.286859,17.065950,4635731787434164200.000000,-0.711583,-0.042323,-0.691759,0.115446,-9.618836,-0.484327,-1.927574,-0.105937,-0.212804,-0.029161,41.035143,-16.935040,15.443859,4635727706678362100.000000,-0.549616,0.437043,-0.632082,-0.327702,-9.300096,0.143805,-0.596888,-0.340704,-0.223460,-0.185277,40.811898,19.358394,1.843989,4635729532576333800.000000,-0.573620,-0.421679,-0.540836,0.447932,0
-9.164271,-2.178731,0.368547,-0.107578,0.205593,0.301218,43.043304,2.309526,17.068275,4635731787434164200.000000,-0.711142,-0.042966,-0.692377,0.114215,-9.684136,-0.495929,-2.078014,-0.119980,-0.227383,-0.032392,40.791027,-17.020483,15.256802,4635727706678362100.000000,-0.550043,0.437095,-0.631338,-0.328349,-9.169645,-0.370221,-0.641222,-0.173723,-0.187309,-0.121472,40.676952,19.477912,1.764246,4635729532576333800.000000,-0.574024,-0.420747,-0.540842,0.448284,0
-9.285781,-2.078736,0.378430,-0.117396,0.192365,0.301014,43.043304,2.079312,17.099095,4635731787434164200.000000,-0.710739,-0.043574,-0.692959,0.112959,-9.713127,-0.533159,-2.185125,-0.114106,-0.244444,-0.031377,40.677805,-17.050391,15.124972,4635727706678362100.000000,-0.550523,0.437107,-0.630564,-0.329014,-9.045027,-0.886724,-0.666912,0.045914,-0.147679,-0.053733,40.660302,19.585829,1.573437,4635729532576333800.000000,-0.574088,-0.420557,-0.540420,0.448888,0
-9.438072,-1.987481,0.371451,-0.128280,0.160271,0.299946,43.029348,1.940977,17.206633,4635731787434164200.000000,-0.710428,-0.044131,-0.693449,0.111680,-9.673161,-0.532850,-2.153400,-0.093466,-0.263322,-0.027078,40.868213,-17.016500,15.093247,4635727741559186400.000000,-0.551084,0.437034,-0.629783,-0.329668,-9.055355,-1.162341,-0.655977,0.283668,-0.115966,0.011383,40.826149,19.617296,1.378068,4635729532576333800.000000,-0.573776,-0.421152,-0.539507,0.449828,0
-9.504334,-1.984573,0.330184,-0.138808,0.136774,0.300912,42.956111,1.910757,17.304280,4635731787434164200.000000,-0.710187,-0.044649,-0.693873,0.110372,-9.603261,-0.549333,-2.071605,-0.072798,-0.281827,-0.023554,41.069047,-17.065950,14.995592,4635727814052544500.000000,-0.551726,0.436879,-0.628992,-0.330309,-9.082308,-1.151284,-0.639275,0.523651,-0.087514,0.078748,40.907009,19.617296,1.244453,4635729532576333800.000000,-0.573102,-0.422524,-0.538091,0.451094,0
-9.538629,-2.021192,0.280770,-0.144961,0.133670,0.310118,42.910756,1.719549,17.385666,4635731787434164200.000000,-0.709957,-0.045173,-0.694287,0.109019,-9.587090,-0.549333,-2.030707,-0.054266,-0.300012,-0.019574,41.098991,-17.014410,14.866220,4635727814052544500.000000,-0.552443,0.436644,-0.628192,-0.330944,-9.074592,-0.979695,-0.619352,0.730206,-0.064753,0.149241,40.860710,19.617296,1.146802,4635729668320800800.000000,-0.572146,-0.424581,-0.536216,0.452607,0
-9.560719,-2.062458,0.280770,-0.154168,0.139062,0.317188,42.970058,1.452681,17.379290,4635731787434164200.000000,-0.709716,-0.045693,-0.694719,0.107617,-9.578536,-0.541402,-1.998359,-0.040991,-0.314995,-0.019948,41.037325,-16.879494,14.670886,4635727814052544500.000000,-0.553222,0.436359,-0.627374,-0.331570,-9.016089,-0.772178,-0.656665,0.955607,-0.051604,0.229863,40.779754,19.470695,1.056863,4635729747324698600.000000,-0.570915,-0.427362,-0.533807,0.454388,0
-9.559001,-2.132768,0.290053,-0.160019,0.141349,0.320903,42.956134,1.452681,17.363476,4635731787434164200.000000,-0.709469,-0.046208,-0.695157,0.106187,-9.622772,-0.520954,-1.965392,-0.038079,-0.330934,-0.019227,41.033048,-16.873342,14.542982,4635727779180089300.000000,-0.554047,0.436042,-0.626523,-0.332218,-9.038660,0.237799,0.010814,1.127802,-0.069671,0.291402,40.848620,19.292766,0.901968,4635729747324698600.000000,-0.569530,-0.430636,-0.530914,0.456419,0
-9.507246,-2.228712,0.334243,-0.158951,0.150655,0.318308,42.913067,1.408569,17.648910,4635731787434164200.000000,-0.709192,-0.046722,-0.695621,0.104765,-9.724060,-0.512711,-1.985205,-0.045416,-0.352321,-0.019573,41.041290,-17.008237,14.487822,4635727706678362100.000000,-0.554913,0.435712,-0.625611,-0.332923,-8.954363,1.653168,-0.881215,1.131754,0.046704,0.395788,41.007315,19.192572,0.714365,4635729747324698600.000000,-0.568064,-0.434362,-0.528088,0.457991,0
-9.506642,-2.251408,0.323849,-0.157680,0.163886,0.318105,42.968343,1.172010,17.898374,4635731787434164200.000000,-0.708874,-0.047245,-0.696122,0.103345,-9.806827,-0.512711,-2.030392,-0.055253,-0.371895,-0.020295,41.092805,-17.010473,14.260802,4635727706678362100.000000,-0.555812,0.435379,-0.624637,-0.333686,-8.192644,1.211772,-4.035141,1.282116,0.065064,0.477538,41.158283,19.165623,0.523553,4635729747324698600.000000,-0.566423,-0.438646,-0.524853,0.459656,0
-9.543869,-2.224068,0.186037,-0.156153,0.162712,0.314600,42.892780,0.948142,17.871133,4635731787434164200.000000,-0.708556,-0.047762,-0.696617,0.101939,-9.762602,-0.512711,-1.983166,-0.043616,-0.390802,-0.019601,41.279230,-16.839575,13.999533,4635727706678362100.000000,-0.556779,0.434990,-0.623636,-0.334454,-7.803754,-0.961021,-3.896942,1.276980,-0.005761,0.405833,41.111894,19.065324,0.274221,4635729747324698600.000000,-0.564786,-0.442616,-0.521569,0.461598,0
-9.527021,-2.245557,0.153450,-0.157830,0.173437,0.302136,42.839814,0.881253,17.731506,4635731787434164200.000000,-0.708200,-0.048242,-0.697146,0.100563,-9.720732,-0.524596,-1.828116,-0.026442,-0.408557,-0.017119,41.448095,-16.779606,13.871572,4635727706678362100.000000,-0.557818,0.434528,-0.622619,-0.335215,-8.553373,-1.094285,-2.231526,1.016692,0.007331,0.367058,40.999492,18.906633,0.001175,4635729747324698600.000000,-0.563501,-0.445913,-0.518865,0.463041,0
-9.508961,-2.274110,0.187751,-0.162305,0.198816,0.295930,42.892782,0.874899,17.847725,4635731787434164200.000000,-0.707767,-0.048701,-0.697751,0.099186,-9.789379,-0.549333,-1.769435,-0.012639,-0.428881,-0.013567,41.349349,-16.978262,13.911519,4635727706678362100.000000,-0.558929,0.433995,-0.621580,-0.335984,-9.108079,-0.614863,-1.689708,0.969018,0.050047,0.404620,41.068333,18.747944,-0.097659,4635729747324698600.000000,-0.562279,-0.449246,-0.516276,0.464198,0
-9.572311,-2.164254,0.200569,-0.168863,0.222581,0.291604,42.825889,0.775541,18.026791,4635731787434164200.000000,-0.707262,-0.049138,-0.698428,0.097799,-9.843771,-0.537447,-1.779281,0.008695,-0.446345,-0.010335,41.102970,-17.151402,13.914082,4635727741529233400.000000,-0.560117,0.433379,-0.620533,-0.336736,-8.547461,-0.517808,-1.388960,1.031279,0.135913,0.385472,41.234731,18.596973,-0.097659,4635729747324698600.000000,-0.560718,-0.452826,-0.513804,0.465348,0
-9.640917,-2.056706,0.159309,-0.180613,0.215383,0.291401,42.819545,0.568146,18.101872,4635731787434164200.000000,-0.706779,-0.049537,-0.699086,0.096379,-9.766894,-0.512711,-1.629488,0.022834,-0.458900,-0.009960,41.104993,-17.095944,13.655399,4635727814052544500.000000,-0.561360,0.432709,-0.619475,-0.337473,-8.279216,0.415289,-1.314563,0.890119,0.156787,0.330498,41.243661,18.442789,-0.159355,4635729747324698600.000000,-0.559266,-0.455986,-0.511751,0.466272,0
-9.680470,-1.963689,0.121459,-0.192362,0.170415,0.290739,42.766557,0.201801,18.042542,4635731787434164200.000000,-0.706426,-0.049881,-0.699615,0.094935,-9.692678,-0.512711,-1.497226,0.015067,-0.467014,-0.011721,41.267650,-16.952769,13.296452,4635727814052544500.000000,-0.562610,0.432049,-0.618383,-0.338240,-8.862037,1.706622,-0.938602,0.656320,0.145549,0.295986,41.212193,18.338081,-0.310991,4635729747324698600.000000,-0.558198,-0.458508,-0.510176,0.466803,0
-9.671205,-1.902039,0.187118,-0.203299,0.140387,0.291199,42.835777,0.073244,18.042542,4635731787434164200.000000,-0.706162,-0.050182,-0.700058,0.093464,-9.724361,-0.504790,-1.541440,0.004330,-0.483324,-0.013886,41.406859,-16.918808,13.134186,4635727814052544500.000000,-0.563884,0.431395,-0.617230,-0.339058,-9.406816,3.078377,-0.557015,0.399790,0.193569,0.277885,41.266174,18.257125,-0.316738,4635729747324698600.000000,-0.557480,-0.460486,-0.509242,0.466735,0
-9.627006,-1.882877,0.256355,-0.210979,0.137994,0.287846,42.821872,0.043116,18.063400,4635731787434164200.000000,-0.705904,-0.050450,-0.700496,0.091981,-9.786379,-0.488296,-1.599170,-0.003118,-0.503992,-0.014579,41.511764,-16.996001,13.240080,4635727814052544500.000000,-0.565197,0.430729,-0.616014,-0.339929,-9.507637,4.268789,-0.738248,0.029212,0.231227,0.266306,41.351620,18.133126,-0.219086,4635729747324698600.000000,-0.557371,-0.461645,-0.509140,0.465830,0
-9.604909,-1.831732,0.254038,-0.219930,0.139062,0.277881,42.732410,-0.115576,18.173264,4635731787434164200.000000,-0.705638,-0.050662,-0.700940,0.090501,-9.782090,-0.496216,-1.599170,-0.008227,-0.524260,-0.018101,41.682683,-17.053741,13.179357,4635727814052544500.000000,-0.566555,0.430054,-0.614735,-0.340839,-9.169004,4.828372,-1.839586,-0.452712,0.237804,0.237800,41.383099,18.079165,-0.244799,4635729747324698600.000000,-0.558105,-0.461652,-0.510026,0.463972,0
-9.592703,-1.773018,0.244148,-0.230205,0.140535,0.261861,42.617731,-0.260359,18.262276,4635731787434164200.000000,-0.705363,-0.050798,-0.701395,0.089037,-9.786378,-0.512711,-1.563536,-0.002569,-0.545304,-0.023124,41.798149,-17.026027,12.852084,4635727814052544500.000000,-0.567981,0.429346,-0.613401,-0.341759,-9.023206,3.435764,-2.408074,-0.780956,0.245619,0.168588,41.437077,18.079165,-0.103406,4635729747324698600.000000,-0.559310,-0.460766,-0.511689,0.461564,0
-9.594386,-1.738081,0.244148,-0.239357,0.142929,0.245840,42.693287,-0.345804,18.262276,4635731787434164200.000000,-0.705075,-0.050861,-0.701862,0.087593,-9.770213,-0.520628,-1.465553,0.013941,-0.562768,-0.024221,41.770441,-16.912874,12.688447,4635727814052544500.000000,-0.569479,0.428574,-0.612045,-0.342664,-9.138202,0.674695,-1.461072,-0.766203,0.342366,0.066565,41.483967,17.924972,0.416320,4635729747324698600.000000,-0.560106,-0.459846,-0.513768,0.459200,0
-9.648480,-1.764813,0.246464,-0.249689,0.140240,0.229411,42.762535,-0.398841,18.262276,4635731787434164200.000000,-0.704789,-0.050845,-0.702326,0.086167,-9.785382,-0.533167,-1.392309,0.044283,-0.579483,-0.023846,41.740404,-16.825095,12.563081,4635727814052544500.000000,-0.571071,0.427703,-0.610689,-0.343520,-9.022587,-0.157460,-0.756885,-0.642868,0.500156,-0.028324,41.500673,17.835016,0.836496,4635729747324698600.000000,-0.560207,-0.459234,-0.516221,0.456933,0
-9.675206,-1.794488,0.263298,-0.254164,0.129413,0.210445,42.718563,-0.343486,18.317820,4635731787434164200.000000,-0.704528,-0.050756,-0.702763,0.084786,-9.855332,-0.517003,-1.342814,0.061231,-0.597295,-0.025260,41.853558,-16.934290,12.344357,4635727814052544500.000000,-0.572737,0.426768,-0.609310,-0.344360,-8.877361,1.094614,-1.326634,-0.703329,0.609341,-0.086122,41.505173,17.888976,0.939970,4635729747324698600.000000,-0.560072,-0.458558,-0.519147,0.454456,0
-9.714138,-1.787549,0.286038,-0.259909,0.115416,0.189028,42.530594,-0.432915,18.592263,4635731787434164200.000000,-0.704300,-0.050582,-0.703163,0.083454,-9.875452,-0.496547,-1.334901,0.061606,-0.611614,-0.026357,41.996750,-17.069233,12.055359,4635727814052544500.000000,-0.574438,0.425811,-0.607890,-0.345219,-9.073889,1.771989,-2.009634,-0.885008,0.636335,-0.108218,41.512880,17.866514,1.178906,4635729747324698600.000000,-0.560173,-0.457453,-0.522514,0.451578,0
-9.765281,-1.741674,0.251729,-0.265362,0.112909,0.171938,42.560665,-0.593925,18.769077,4635731787434164200.000000,-0.704073,-0.050341,-0.703561,0.082156,-9.892291,-0.488296,-1.302574,0.061231,-0.623275,-0.028405,42.078243,-17.099293,11.802294,4635727814052544500.000000,-0.576166,0.424840,-0.606435,-0.346093,-9.481837,0.946709,-1.545437,-0.959084,0.636897,-0.151269,41.517380,17.935209,1.557319,4635729747324698600.000000,-0.560320,-0.456072,-0.526092,0.448628,0
-9.814753,-1.667789,0.243505,-0.261348,0.124951,0.154848,42.705479,-0.746321,18.850543,4635731787434164200.000000,-0.703802,-0.050066,-0.703994,0.080918,-9.879745,-0.500162,-1.230016,0.065760,-0.642124,-0.035219,42.104018,-17.013847,11.575349,4635727779261918200.000000,-0.577956,0.423846,-0.604924,-0.346969,-9.666970,0.212754,-0.432030,-0.917105,0.664659,-0.228732,41.424895,18.140147,1.935749,4635729747324698600.000000,-0.560050,-0.454803,-0.529669,0.446037,0
-9.824000,-1.627192,0.304538,-0.255085,0.146369,0.140389,42.728503,-0.838056,18.844254,4635731787434164200.000000,-0.703461,-0.049775,-0.704490,0.079735,-9.891951,-0.524918,-1.127721,0.076471,-0.658957,-0.037731,42.054504,-16.928399,11.282383,4635727706678362100.000000,-0.579807,0.422804,-0.603380,-0.347840,-9.711295,0.412316,0.493194,-0.871000,0.693222,-0.292320,41.332360,18.171710,2.375799,4635729747324698600.000000,-0.559618,-0.453403,-0.533457,0.443482,0
-9.879772,-1.512691,0.363266,-0.255231,0.157996,0.137386,42.500527,-0.992782,18.774986,4635731807777797100.000000,-0.703084,-0.049477,-0.705020,0.078559,-9.876478,-0.520964,-1.086459,0.088822,-0.669954,-0.037069,42.054504,-16.842951,11.021052,4635727706678362100.000000,-0.581702,0.421712,-0.601823,-0.348699,-10.176227,0.648898,1.312962,-0.816988,0.673735,-0.316225,41.371498,18.093968,2.913511,4635729747324698600.000000,-0.559071,-0.452030,-0.537134,0.441130,0
-9.965216,-1.392293,0.405156,-0.260369,0.143416,0.135250,42.401950,-1.078226,18.758805,4635731894808346600.000000,-0.702749,-0.049154,-0.705507,0.077376,-9.830914,-0.516666,-1.058775,0.112924,-0.683841,-0.034527,42.105918,-16.812864,10.829680,4635727706678362100.000000,-0.583665,0.420531,-0.600267,-0.349524,-10.737849,0.640585,1.823931,-0.734581,0.630335,-0.344323,41.461450,18.259598,3.294619,4635729747324698600.000000,-0.558403,-0.450697,-0.540601,0.439101,0
-10.062223,-1.326634,0.458968,-0.256552,0.120555,0.133316,42.576822,-1.161364,18.689535,4635731894808346600.000000,-0.702478,-0.048828,-0.705926,0.076215,-9.882660,-0.509103,-0.985192,0.132857,-0.698071,-0.035249,42.323909,-16.894355,10.678215,4635727706678362100.000000,-0.585695,0.419280,-0.598700,-0.350320,-11.845687,-0.301986,2.842427,-0.646098,0.481375,-0.397325,41.338870,18.518531,3.516933,4635729747324698600.000000,-0.557798,-0.449171,-0.543649,0.437667,0
-10.224868,-1.192676,0.709368,-0.216485,0.114754,0.132248,42.730848,-1.250773,18.744980,4635731894808346600.000000,-0.702215,-0.048615,-0.706314,0.075176,-10.020890,-0.460275,-1.003572,0.118176,-0.714063,-0.034903,42.471986,-16.892482,10.553233,4635727706678362100.000000,-0.587734,0.418036,-0.597067,-0.351178,-13.746446,-2.044159,4.671246,-0.348584,0.508247,-0.419782,41.202592,18.604082,3.712243,4635729747324698600.000000,-0.556529,-0.448329,-0.546254,0.436903,0
-10.477601,-0.818526,0.974282,-0.179594,0.103059,0.128956,42.496596,-1.395608,19.019475,4635731894808346600.000000,-0.701977,-0.048496,-0.706656,0.074257,-10.167360,-0.447019,-1.217576,0.097832,-0.738098,-0.035910,41.919266,-16.492735,10.278549,4635727706678362100.000000,-0.589792,0.416805,-0.595338,-0.352123,-12.990482,-0.897668,2.728136,-0.034918,0.625274,-0.389447,41.229501,18.650307,3.838224,4635729747324698600.000000,-0.554456,-0.448492,-0.548497,0.436560,0
-10.812478,-0.331227,0.915870,-0.190652,0.046300,0.112702,42.344857,-1.448717,19.159348,4635731894808346600.000000,-0.701902,-0.048279,-0.706838,0.073365,-10.282228,-0.480395,-1.397018,0.109832,-0.763003,-0.038830,40.933169,-15.557892,9.895151,4635727706678362100.000000,-0.591932,0.415512,-0.593555,-0.353071,-11.854233,-0.125018,0.415689,0.046221,0.678200,-0.349472,41.207101,18.823688,3.992999,4635729747324698600.000000,-0.552179,-0.449025,-0.550634,0.436207,0
-11.089936,-0.019795,0.629491,-0.225063,-0.051939,0.078695,42.558971,-1.395606,19.043213,4635731894808346600.000000,-0.702113,-0.047832,-0.706750,0.072490,-10.299458,-0.487578,-1.215354,0.139079,-0.762689,-0.036348,40.686560,-14.825532,9.617279,4635727706678362100.000000,-0.594112,0.414136,-0.591813,-0.353948,-11.865459,-0.805860,-0.505180,0.097484,0.719679,-0.375558,40.936788,19.001699,4.303849,4635729747324698600.000000,-0.549656,-0.449688,-0.552817,0.435950,0
-11.230153,-0.018479,0.279118,-0.270560,-0.155633,0.027048,42.595915,-1.481057,18.868684,4635731894808346600.000000,-0.702621,-0.047068,-0.706381,0.071653,-10.313820,-0.473934,-0.871391,0.186172,-0.760867,-0.036254,41.182755,-14.923194,9.429859,4635727706678362100.000000,-0.596362,0.412642,-0.590140,-0.354703,-11.488887,-1.206504,-0.600914,0.212260,0.755220,-0.392353,40.697008,19.155891,4.628359,4635729747324698600.000000,-0.547161,-0.450174,-0.555270,0.435470,0
-11.302784,-0.132374,0.231305,-0.307364,-0.198306,-0.047987,42.473548,-1.550340,18.780886,4635731874451829800.000000,-0.703239,-0.045962,-0.705911,0.070936,-10.401067,-0.290464,-0.474293,0.206718,-0.755715,-0.045773,41.450597,-15.396767,9.187865,4635727706678362100.000000,-0.598643,0.411123,-0.588487,-0.355370,-10.825861,-0.869126,-0.827133,0.301337,0.768557,-0.369939,40.638447,19.306862,4.790378,4635729611854164000.000000,-0.544082,-0.451464,-0.557110,0.435641,0
-11.434099,-0.354791,0.259952,-0.371559,-0.225200,-0.135881,42.556679,-1.536461,18.683237,4635731787434164200.000000,-0.703920,-0.044402,-0.705397,0.070292,-10.344701,-0.206805,-0.337138,0.185010,-0.741703,-0.060758,41.095885,-15.241325,8.793294,4635727706678362100.000000,-0.600868,0.409712,-0.586805,-0.356026,-10.403532,-0.457690,-1.525906,0.343302,0.743859,-0.368330,40.484451,19.407140,4.829624,4635729532576333800.000000,-0.540966,-0.452817,-0.558796,0.435960,0
-11.588809,-0.717665,0.140836,-0.416578,-0.319566,-0.216192,42.616043,-1.477096,18.585579,4635731787434164200.000000,-0.704859,-0.042446,-0.704630,0.069769,-10.235205,-0.201083,-0.378430,0.159472,-0.734290,-0.072539,40.971897,-14.976982,8.497079,4635727706678362100.000000,-0.603042,0.408400,-0.585077,-0.356699,-10.021317,-0.523430,-1.803502,0.365012,0.732520,-0.403499,40.348093,19.534295,4.949642,4635729532576333800.000000,-0.537832,-0.454022,-0.560546,0.436337,0
-11.591023,-0.947923,0.095438,-0.402821,-0.467258,-0.296152,42.646099,-1.490968,18.487928,4635731787434164200.000000,-0.706202,-0.040252,-0.703435,0.069547,-10.164090,-0.105190,-0.366587,0.131574,-0.725304,-0.085260,41.976026,-15.783250,8.431733,4635727706678362100.000000,-0.605160,0.407198,-0.583304,-0.357389,-9.809686,-0.199112,-1.355624,0.350831,0.737580,-0.440387,40.274858,19.692975,5.202028,4635729532576333800.000000,-0.534638,-0.455111,-0.562394,0.436749,0
-11.169925,-1.107272,0.606618,-0.335850,-0.499999,-0.363237,42.790930,-1.536465,18.390263,4635731787434164200.000000,-0.707605,-0.038049,-0.702130,0.069723,-10.272489,-0.146489,-0.322072,0.114420,-0.723827,-0.104141,42.939867,-16.730571,8.307911,4635727706678362100.000000,-0.607268,0.406084,-0.581471,-0.358067,-9.893604,0.841754,-0.836924,0.239584,0.729054,-0.476076,40.255508,19.897846,5.602756,4635729532576333800.000000,-0.531602,-0.455847,-0.564486,0.436989,0
-10.492066,-1.226358,1.292672,-0.300005,-0.326116,-0.390336,42.841710,-1.430891,18.274142,4635731787434164200.000000,-0.708479,-0.035923,-0.701326,0.070056,-10.456338,-0.170174,-0.253137,0.104710,-0.728726,-0.119537,42.948927,-16.684366,8.019234,4635727706678362100.000000,-0.609389,0.405021,-0.579580,-0.358735,-9.776482,1.460158,-0.637425,0.046865,0.723810,-0.521939,40.260017,20.029708,5.897275,4635729600289202200.000000,-0.528853,-0.456032,-0.566996,0.436881,0
-10.009725,-1.385058,1.285361,-0.280050,-0.070280,-0.384503,42.762535,-1.216774,18.094991,4635731787434164200.000000,-0.708602,-0.033947,-0.701267,0.070391,-10.720845,-0.109229,-0.108494,0.098398,-0.734573,-0.137782,42.749590,-16.318087,7.718020,4635727706678362100.000000,-0.611534,0.404005,-0.577628,-0.359378,-9.414250,1.019221,-0.556489,-0.106805,0.727572,-0.543850,40.159950,20.102948,5.969420,4635729639950516200.000000,-0.526340,-0.455828,-0.569827,0.436445,0
-9.816703,-1.513718,0.744581,-0.201261,0.084118,-0.367007,42.778714,-1.131316,18.024411,4635731787434164200.000000,-0.708265,-0.032300,-0.701636,0.070883,-11.332956,0.106288,0.002206,0.093868,-0.718214,-0.166848,42.854408,-16.311567,7.428990,4635727706678362100.000000,-0.613670,0.403091,-0.575656,-0.359927,-9.072998,-0.015473,-0.378679,-0.152629,0.747729,-0.533028,39.855020,20.268551,6.154144,4635729639950516200.000000,-0.523879,-0.455578,-0.572757,0.435831,0
-9.628990,-1.488306,0.396911,-0.124479,0.011072,-0.347580,42.847984,-1.048183,18.119750,4635731787434164200.000000,-0.708134,-0.030915,-0.701762,0.071552,-11.853389,-0.033300,-0.221465,0.120497,-0.678629,-0.170029,42.997681,-16.391334,7.144284,4635727706678362100.000000,-0.615754,0.402172,-0.573815,-0.360334,-8.921745,-0.785866,-0.400746,-0.108685,0.752323,-0.508016,39.564424,20.495999,6.501028,4635729639950516200.000000,-0.521360,-0.455486,-0.575562,0.435253,0
-9.446876,-1.330922,0.591600,-0.074306,-0.222101,-0.323444,42.847984,-0.956457,18.223685,4635731787434164200.000000,-0.708685,-0.029679,-0.701181,0.072326,-11.782385,-0.268189,-0.362651,0.177760,-0.643039,-0.152876,43.106791,-16.333506,6.914456,4635727776070892500.000000,-0.617819,0.401116,-0.572175,-0.360585,-8.922286,-1.381319,-0.494667,-0.035107,0.750118,-0.452636,39.578796,20.735611,6.817846,4635729639950516200.000000,-0.518697,-0.455813,-0.578006,0.434852,0
-9.392113,-1.049172,1.183465,-0.044660,-0.418773,-0.278208,42.847984,-0.817896,18.319020,4635731787434164200.000000,-0.709817,-0.028603,-0.700001,0.073077,-11.606050,-0.336358,-0.365093,0.238639,-0.611556,-0.136263,43.241813,-16.305900,6.820748,4635727921426726900.000000,-0.619881,0.399907,-0.570731,-0.360679,-9.089726,-2.188530,-0.728181,0.088811,0.769762,-0.373670,39.691306,20.918174,7.037028,4635729639950516200.000000,-0.515991,-0.456491,-0.580220,0.434412,0
-9.451132,-0.647074,1.613014,-0.042987,-0.468234,-0.207411,42.877980,-0.836354,18.001387,4635731787434164200.000000,-0.711112,-0.027723,-0.698663,0.073629,-11.429894,-0.407541,-0.506508,0.288826,-0.588813,-0.116182,43.272054,-16.220449,6.699803,4635727921426726900.000000,-0.621936,0.398552,-0.569450,-0.360664,-9.572431,-2.703926,-1.316240,0.238190,0.767349,-0.282948,39.622850,21.026186,7.227835,4635729639950516200.000000,-0.513164,-0.457700,-0.581978,0.434138,0
-9.656355,-0.181545,1.640108,-0.044165,-0.407296,-0.109921,43.020528,-0.885557,17.541440,4635731787434164200.000000,-0.712256,-0.027143,-0.697492,0.073881,-11.040010,-0.342560,-0.721921,0.305211,-0.569389,-0.105155,43.186602,-16.107391,6.500541,4635727921426726900.000000,-0.623952,0.397154,-0.568258,-0.360604,-10.194961,-2.538397,-1.848574,0.339128,0.747334,-0.189910,39.471861,21.050076,7.477000,4635729639950516200.000000,-0.510355,-0.459308,-0.583326,0.433941,0
-9.851684,0.329552,1.466888,-0.071966,-0.319645,-0.007889,43.079926,-0.708387,17.256961,4635731787434164200.000000,-0.713179,-0.026803,-0.696577,0.073740,-10.675473,-0.289034,-0.839497,0.298769,-0.560219,-0.092716,43.211574,-15.991698,6.332451,4635727921426726900.000000,-0.625912,0.395755,-0.567096,-0.360574,-10.555919,-2.103463,-2.286689,0.363009,0.718010,-0.119596,39.363847,21.145584,7.703900,4635729639950516200.000000,-0.507693,-0.461079,-0.584427,0.433705,0
-10.053887,0.755781,1.274584,-0.106756,-0.240178,0.066179,43.079926,-0.532789,17.416305,4635731787434164200.000000,-0.713897,-0.026599,-0.695899,0.073269,-10.444297,-0.292600,-0.816006,0.283456,-0.537330,-0.075035,43.436374,-16.019300,6.274605,4635727921426726900.000000,-0.627762,0.394385,-0.565997,-0.360586,-10.555700,-1.656269,-2.507552,0.314576,0.689492,-0.076724,39.339947,21.250429,7.891538,4635729639950516200.000000,-0.505186,-0.462902,-0.585382,0.433402,0
-10.285844,1.043206,1.072617,-0.106243,-0.181593,0.125108,43.096075,-0.733697,17.470812,4635731787434164200.000000,-0.714462,-0.026586,-0.695388,0.072617,-10.132026,-0.337101,-1.077930,0.246042,-0.498848,-0.048713,43.488625,-15.994375,6.243072,4635727921426726900.000000,-0.629417,0.393106,-0.564982,-0.360690,-10.302849,-0.950757,-2.516059,0.206550,0.647424,-0.056011,39.344460,21.277504,8.082324,4635729639950516200.000000,-0.503102,-0.464361,-0.586482,0.432776,0
-10.520069,1.181134,1.033967,-0.077785,-0.149742,0.168008,43.179213,-0.968726,17.285412,4635731787434164200.000000,-0.714944,-0.026791,-0.694957,0.071917,-9.856084,-0.421782,-1.418465,0.207346,-0.462877,-0.028529,43.372906,-15.741971,6.109946,4635727921426726900.000000,-0.630890,0.391934,-0.564033,-0.360877,-10.004048,-0.304010,-2.340976,0.068287,0.599801,-0.051944,39.244459,21.323658,8.216085,4635729639950516200.000000,-0.501345,-0.465536,-0.587654,0.431964,0
-10.734241,1.225352,1.134610,-0.040020,-0.159890,0.196705,43.238621,-0.816268,17.126987,4635731787434164200.000000,-0.715458,-0.027189,-0.694482,0.071241,-9.795044,-0.686146,-1.636293,0.152101,-0.424868,-0.030809,43.428089,-15.655481,5.910295,4635727921426726900.000000,-0.632184,0.390968,-0.563096,-0.361125,-9.846351,-0.102173,-2.130762,-0.046977,0.561667,-0.057725,39.039590,21.443068,8.375299,4635729639950516200.000000,-0.499896,-0.466377,-0.588966,0.430948,0
-10.787411,1.222097,1.142613,-0.013779,-0.218911,0.218792,43.238621,-0.816811,17.147740,4635731787434164200.000000,-0.716147,-0.027711,-0.693819,0.070582,-9.667020,-1.258694,-2.029302,0.093888,-0.387629,-0.046485,43.598977,-15.848380,5.695673,4635727852103181300.000000,-0.633318,0.390246,-0.562141,-0.361406,-9.876296,-0.251519,-2.055358,-0.103510,0.523449,-0.062231,38.969209,21.451079,8.747549,4635729504618333200.000000,-0.498655,-0.466999,-0.590321,0.429856,0
-10.674295,1.100026,0.922885,0.016674,-0.319777,0.231788,43.238621,-1.122668,17.220714,4635731787434164200.000000,-0.717125,-0.028332,-0.692843,0.069984,-9.410279,-1.700770,-2.474635,0.075906,-0.364130,-0.059026,43.687126,-15.878661,5.474013,4635727706678362100.000000,-0.634384,0.389636,-0.561200,-0.361656,-9.935486,-0.511021,-2.050844,-0.099208,0.488248,-0.067059,38.985931,21.324003,9.100516,4635729425202151400.000000,-0.497497,-0.467531,-0.591620,0.428834,0
-10.437768,0.975659,0.753869,0.053451,-0.406544,0.232796,43.252447,-1.314476,17.096097,4635731787434164200.000000,-0.718348,-0.029041,-0.691594,0.069499,-9.142899,-1.791771,-2.851487,0.083631,-0.336151,-0.062710,43.601682,-15.820795,5.344844,4635727706678362100.000000,-0.635402,0.389055,-0.560337,-0.361833,-9.925958,-0.648830,-1.920082,-0.053380,0.460914,-0.070776,38.882760,21.311448,9.150539,4635729425202151400.000000,-0.496301,-0.468107,-0.592777,0.427991,0
-10.183722,0.845989,0.807306,0.083599,-0.421752,0.241161,43.327996,-1.247459,16.803125,4635731787434164200.000000,-0.719610,-0.029859,-0.690288,0.069077,-8.812960,-2.174094,-3.374752,0.129624,-0.292914,-0.066018,43.571373,-15.848359,5.181059,4635727706678362100.000000,-0.636397,0.388425,-0.559651,-0.361823,-9.904721,-0.556048,-1.789484,0.002948,0.443751,-0.074931,38.765707,21.384684,9.057405,4635729425202151400.000000,-0.495012,-0.468782,-0.593785,0.427348,0
-9.962627,0.736133,0.848302,0.095408,-0.337820,0.263932,43.397320,-1.257362,16.565447,4635731787434164200.000000,-0.720634,-0.030802,-0.689225,0.068611,-8.637725,-2.651767,-3.843761,0.186135,-0.228409,-0.081455,43.629261,-15.878679,5.146408,4635727706678362100.000000,-0.637355,0.387777,-0.559196,-0.361535,-9.907894,-0.396022,-1.865519,0.044357,0.418151,-0.082289,38.841744,21.419474,9.198129,4635729425202151400.000000,-0.493691,-0.469477,-0.594679,0.426870,0
-9.852069,0.633177,0.709198,0.104295,-0.251520,0.294786,43.397320,-1.287297,16.604591,4635731787434164200.000000,-0.721415,-0.031885,-0.688412,0.068065,-8.684187,-2.860484,-3.856349,0.242231,-0.155776,-0.086520,43.652890,-15.765659,5.244067,4635727775959508000.000000,-0.638241,0.387101,-0.559009,-0.360985,-9.920101,-0.303360,-2.044112,0.057957,0.387057,-0.092180,38.812721,21.370166,9.540416,4635729425202151400.000000,-0.492450,-0.470050,-0.595556,0.426449,0
-9.791037,0.573748,0.428660,0.117636,-0.227498,0.332894,43.427238,-1.462087,16.738451,4635731787434164200.000000,-0.722134,-0.033125,-0.687660,0.067441,-8.642841,-3.180204,-3.489422,0.333973,-0.111092,-0.083420,43.674949,-15.622337,5.274793,4635727921426726900.000000,-0.639165,0.386240,-0.559082,-0.360157,-9.916929,-0.319218,-2.188776,0.045291,0.356476,-0.104207,38.666231,21.284715,9.865019,4635729492837706800.000000,-0.491288,-0.470511,-0.596416,0.426079,0
-9.732303,0.578350,0.311191,0.125253,-0.209603,0.365341,43.585930,-1.660207,16.553042,4635731787434164200.000000,-0.722808,-0.034485,-0.686954,0.066737,-8.760931,-3.303871,-2.789712,0.400211,-0.076601,-0.086206,43.593433,-15.591993,5.204290,4635727921426726900.000000,-0.640118,0.385260,-0.559341,-0.359111,-9.858585,-0.326428,-2.233955,0.012490,0.324154,-0.111642,38.612015,21.253090,9.973449,4635729532576333800.000000,-0.490256,-0.470829,-0.597280,0.425706,0
-9.690378,0.623462,0.234241,0.136661,-0.186833,0.398713,43.730810,-1.646407,16.410642,4635731787434164200.000000,-0.723422,-0.035981,-0.686306,0.065962,-9.123189,-3.379444,-1.758500,0.368496,-0.043351,-0.147757,43.539873,-15.598731,5.240109,4635727921426726900.000000,-0.641033,0.384557,-0.559541,-0.357920,-9.734696,-0.325081,-2.172446,-0.037119,0.293062,-0.113896,38.612015,21.353041,9.858120,4635729532576333800.000000,-0.489393,-0.470983,-0.598173,0.425274,0
-9.678170,0.764648,0.230347,0.143008,-0.158999,0.426408,43.784061,-1.649069,16.466192,4635731787434164200.000000,-0.723960,-0.037583,-0.685733,0.065118,-9.335541,-3.491723,-0.822766,0.215236,-0.012247,-0.281841,43.610278,-15.436121,5.329484,4635727921426726900.000000,-0.641828,0.384621,-0.559379,-0.356677,-9.618974,-0.467968,-2.105547,-0.079877,0.267193,-0.111601,38.558207,21.511718,9.790338,4635729532576333800.000000,-0.488614,-0.471106,-0.599007,0.424860,0
-9.659059,0.953973,0.143290,0.154295,-0.136907,0.443964,43.700904,-1.978694,16.374533,4635731787434164200.000000,-0.724434,-0.039275,-0.685218,0.064249,-9.041564,-3.407887,-0.642950,-0.088861,0.053961,-0.403944,43.830830,-15.320292,5.332722,4635727921426726900.000000,-0.642161,0.385880,-0.558745,-0.355710,-9.575124,-0.726146,-2.110529,-0.099655,0.243693,-0.103293,38.480440,21.562794,9.905650,4635729532576333800.000000,-0.487975,-0.471127,-0.599843,0.424392,0
-9.624033,1.222504,0.015216,0.167173,-0.117265,0.458715,43.641468,-2.230064,16.233546,4635731787434164200.000000,-0.724852,-0.041053,-0.684754,0.063368,-8.474390,-3.000622,-1.146780,-0.471781,0.171574,-0.468903,43.919121,-15.292761,5.168890,4635727921426726900.000000,-0.641697,0.388487,-0.557751,-0.355269,-9.647466,-0.983827,-2.077971,-0.104955,0.218852,-0.086559,38.453320,21.612077,10.034938,4635729532576333800.000000,-0.487440,-0.471131,-0.600607,0.423921,0
-9.666833,1.479548,-0.012922,0.173706,-0.082623,0.471594,43.641468,-2.176800,16.207549,4635731787434164200.000000,-0.725170,-0.042897,-0.684388,0.062461,-8.270396,-1.980160,-1.975619,-0.892018,0.301918,-0.492380,43.857266,-15.073611,5.130221,4635727921426726900.000000,-0.640276,0.392460,-0.556438,-0.355526,-9.761836,-1.304777,-1.943265,-0.081541,0.205323,-0.058200,38.499426,21.689831,9.948161,4635729532576333800.000000,-0.486930,-0.471247,-0.601231,0.423493,0
-9.784306,1.675575,0.045814,0.170564,-0.061438,0.480139,43.641468,-2.308207,16.122102,4635731787434164200.000000,-0.725427,-0.044761,-0.684082,0.061516,-8.032611,-0.881923,-2.717771,-1.314744,0.418405,-0.505222,43.868659,-14.624201,5.188147,4635727921426726900.000000,-0.637895,0.397751,-0.554772,-0.356528,-9.833279,-1.379004,-1.933726,-0.035022,0.194880,-0.029122,38.472779,21.770756,9.875790,4635729532576333800.000000,-0.486395,-0.471527,-0.601683,0.423154,0
-9.877355,1.808262,0.080861,0.162888,-0.091085,0.488481,43.627694,-2.621673,16.091759,4635731787434164200.000000,-0.725769,-0.046617,-0.683683,0.060528,-7.721062,-0.349431,-2.967219,-1.696580,0.494086,-0.545214,43.937557,-14.420056,5.156687,4635727921426726900.000000,-0.634734,0.404243,-0.552647,-0.358165,-9.836007,-1.119989,-1.942341,-0.004593,0.180046,-0.007797,38.295123,21.840840,10.060197,4635729532576333800.000000,-0.485885,-0.471881,-0.602021,0.422865,0
-9.934531,1.874619,0.051855,0.155146,-0.135473,0.497766,43.568222,-2.835979,16.260262,4635731787434164200.000000,-0.726237,-0.048465,-0.683147,0.059499,-7.565908,-0.142142,-2.783934,-2.024485,0.530922,-0.600712,44.022993,-14.505494,5.090487,4635727921426726900.000000,-0.630974,0.411757,-0.549997,-0.360321,-9.780863,-0.881242,-1.851942,0.000792,0.174780,0.003638,38.370508,21.671390,10.406931,4635729532576333800.000000,-0.485420,-0.472233,-0.602340,0.422550,0
-9.906254,1.890581,0.016799,0.151677,-0.164769,0.515459,43.581996,-2.919135,16.244192,4635731787434164200.000000,-0.726791,-0.050346,-0.682517,0.058411,-7.471345,-0.264831,-2.392452,-2.295861,0.558659,-0.650827,44.108449,-14.535915,5.090487,4635727921426726900.000000,-0.626701,0.420102,-0.546876,-0.362887,-9.707616,-0.787164,-1.883527,0.001345,0.170470,0.012459,39.080175,21.035823,10.539514,4635729532576333800.000000,-0.485008,-0.472562,-0.602663,0.422196,0
-9.804004,1.810450,0.048100,0.152480,-0.172967,0.532942,43.657537,-3.010744,16.140375,4635731787434164200.000000,-0.727367,-0.052276,-0.681853,0.057275,-7.438653,-0.566925,-2.101739,-2.528165,0.592008,-0.675377,44.162454,-14.422940,5.059035,4635727852266106900.000000,-0.621911,0.429111,-0.543385,-0.365818,-9.649740,-0.607729,-2.020962,-0.003242,0.157616,0.014678,39.749429,20.390131,10.473528,4635729532576333800.000000,-0.484641,-0.472864,-0.602964,0.421851,0
-9.686523,1.695996,0.122907,0.155146,-0.159209,0.536475,43.710851,-3.195416,15.975631,4635731787434164200.000000,-0.727901,-0.054228,-0.681226,0.056131,-7.441753,-0.850358,-1.969738,-2.712145,0.636721,-0.673803,44.181691,-14.279563,4.961384,4635727706678362100.000000,-0.616605,0.438605,-0.539659,-0.369041,-9.616279,-0.336042,-2.075258,-0.033965,0.133530,0.007165,39.822879,20.283220,10.437330,4635729532576333800.000000,-0.484381,-0.473042,-0.603284,0.421491,0
-9.595757,1.561730,0.245704,0.153283,-0.139189,0.529594,43.641468,-3.393658,15.906246,4635731787434164200.000000,-0.728372,-0.056158,-0.680658,0.054999,-7.502788,-1.169406,-2.031784,-2.840594,0.689783,-0.655791,44.263208,-14.170535,4.895169,4635727706678362100.000000,-0.610826,0.448404,-0.535825,-0.372447,-9.630268,-0.193537,-2.144385,-0.097247,0.108724,-0.000828,39.713429,20.483468,10.491095,4635729465018090500.000000,-0.484294,-0.473029,-0.603681,0.421037,0
-9.543896,1.425166,0.309771,0.162630,-0.132586,0.509029,43.657518,-3.409709,15.906246,4635731787434164200.000000,-0.728814,-0.058060,-0.680109,0.053953,-7.563818,-1.357685,-2.256260,-2.909376,0.740741,-0.626684,44.308945,-13.952930,4.895169,4635727706678362100.000000,-0.604662,0.458321,-0.531982,-0.375926,-9.628485,-0.270765,-2.177444,-0.164630,0.090324,-0.009254,39.732359,20.569475,10.584234,4635729425202151400.000000,-0.484372,-0.472826,-0.604175,0.420466,0
-9.531688,1.283254,0.327306,0.173843,-0.141605,0.476445,43.726917,-3.508930,15.908540,4635731787434164200.000000,-0.729267,-0.059902,-0.679535,0.053041,-7.632705,-1.495459,-2.411864,-2.908780,0.786398,-0.591475,44.277101,-13.697556,4.891241,4635727706678362100.000000,-0.598243,0.468155,-0.528236,-0.379344,-9.596392,-0.421764,-1.965549,-0.187994,0.081696,-0.010130,39.713431,20.569475,10.681884,4635729425202151400.000000,-0.484515,-0.472559,-0.604694,0.419856,0
-9.514896,1.181826,0.321978,0.178917,-0.163502,0.435322,43.697113,-3.685952,15.920747,4635731787434164200.000000,-0.729769,-0.061637,-0.678900,0.052272,-7.749584,-1.670297,-2.454535,-2.841428,0.815991,-0.554433,44.199926,-13.671445,4.851537,4635727706678362100.000000,-0.591737,0.477711,-0.524658,-0.382588,-9.544415,-0.552881,-1.635978,-0.165148,0.082127,-0.006529,39.786097,20.577154,10.771855,4635729425202151400.000000,-0.484618,-0.472347,-0.605167,0.419294,0
-9.473690,1.183373,0.355562,0.188666,-0.193345,0.386053,43.568222,-3.923962,15.896276,4635731787434164200.000000,-0.730340,-0.063255,-0.678182,0.051689,-7.932696,-1.908402,-2.334154,-2.716777,0.818619,-0.513991,44.220533,-13.670056,4.757806,4635727706678362100.000000,-0.585319,0.486804,-0.521286,-0.385595,-9.529455,-0.728726,-1.506038,-0.122780,0.092724,-0.001981,39.852643,20.527920,10.864993,4635729425202151400.000000,-0.484618,-0.472250,-0.605578,0.418809,0
-9.396618,1.235239,0.431092,0.203218,-0.224114,0.333386,43.584262,-4.052858,15.747550,4635731787434164200.000000,-0.730979,-0.064763,-0.677379,0.051315,-8.131490,-2.274152,-2.122301,-2.539934,0.812935,-0.455242,44.386120,-13.562425,4.668438,4635727706678362100.000000,-0.579099,0.495263,-0.518233,-0.388322,-9.587734,-0.798010,-1.685804,-0.086933,0.095582,0.009407,39.757345,20.442477,10.847459,4635729425202151400.000000,-0.484561,-0.472259,-0.605909,0.418385,0
-9.250118,1.245155,0.514258,0.215034,-0.240338,0.290727,43.667429,-4.068904,15.729211,4635731787434164200.000000,-0.731650,-0.066182,-0.676533,0.051108,-8.343812,-2.582343,-1.926966,-2.327691,0.804808,-0.370694,44.335061,-13.613482,4.633611,4635727706678362100.000000,-0.573129,0.502956,-0.515617,-0.390765,-9.627112,-0.778126,-1.786811,-0.061059,0.089294,0.016969,39.698475,20.364712,10.754337,4635729425202151400.000000,-0.484481,-0.472329,-0.606167,0.418024,0
-9.099061,1.249737,0.592077,0.223512,-0.245398,0.259021,43.726917,-4.170386,15.633853,4635731787434164200.000000,-0.732323,-0.067536,-0.675677,0.051023,-8.491147,-2.673421,-1.774853,-2.094193,0.792028,-0.270098,44.199932,-13.725048,4.758756,4635727706678362100.000000,-0.567457,0.509805,-0.513511,-0.392935,-9.539508,-0.761389,-1.766925,-0.038231,0.092566,0.023533,39.690797,20.383600,10.718101,4635729425202151400.000000,-0.484360,-0.472467,-0.606380,0.417701,0
-8.937322,1.271861,0.682863,0.233323,-0.191784,0.235390,43.726917,-4.309213,15.546109,4635731787434164200.000000,-0.732835,-0.068865,-0.674986,0.051022,-8.549537,-2.602752,-1.737377,-1.861550,0.780854,-0.159400,44.193010,-13.650882,4.945778,4635727706678362100.000000,-0.562076,0.515808,-0.511954,-0.394862,-9.523541,-0.703114,-1.826966,-0.024534,0.094118,0.032078,39.640200,20.510590,10.894689,4635729425202151400.000000,-0.484223,-0.472657,-0.606554,0.417392,0
-8.824416,1.270324,0.704957,0.231923,-0.119361,0.221038,43.742952,-4.309213,15.448455,4635731787434164200.000000,-0.733140,-0.070165,-0.674520,0.051040,-8.529049,-2.351611,-1.733880,-1.643460,0.775588,-0.051711,44.300667,-13.531938,5.046871,4635727706678362100.000000,-0.556961,0.521029,-0.510942,-0.396561,-9.584574,-0.694438,-1.883086,-0.019348,0.090914,0.038608,39.620701,20.523413,11.006547,4635729492726519800.000000,-0.484094,-0.472868,-0.606701,0.417089,0
-8.767204,1.209298,0.576801,0.237730,-0.090059,0.207689,43.810082,-4.309213,15.350812,4635731787434164200.000000,-0.733356,-0.071451,-0.674145,0.051107,-8.528618,-2.081337,-1.673706,-1.436934,0.763914,0.048272,44.277113,-13.698909,4.980620,4635727706678362100.000000,-0.552126,0.525512,-0.510435,-0.398058,-9.561169,-0.685000,-1.869119,-0.023532,0.095098,0.043948,39.725024,20.396438,10.949667,4635729532576333800.000000,-0.483973,-0.473091,-0.606852,0.416756,0
-8.786280,1.145967,0.548573,0.239332,-0.061751,0.186591,43.786426,-4.325239,15.273751,4635731787434164200.000000,-0.733487,-0.072689,-0.673861,0.051235,-8.553031,-1.894749,-1.579547,-1.243542,0.749267,0.147754,44.199949,-13.861517,5.074811,4635727706678362100.000000,-0.547558,0.529292,-0.510411,-0.399388,-9.549334,-0.617673,-1.870878,-0.034764,0.098270,0.049960,39.684136,20.383592,11.089974,4635729532576333800.000000,-0.483876,-0.473312,-0.607017,0.416377,0
-8.846544,1.072731,0.595875,0.231589,-0.026706,0.160225,43.726917,-4.408393,15.265365,4635731787434164200.000000,-0.733514,-0.073836,-0.673693,0.051410,-8.600994,-1.741734,-1.526359,-1.083016,0.745072,0.236142,44.118424,-14.059893,5.367788,4635727706678362100.000000,-0.543186,0.532493,-0.510823,-0.400574,-9.550721,-0.539903,-1.895291,-0.047581,0.098270,0.051668,39.533126,20.410778,11.316995,4635729532576333800.000000,-0.483807,-0.473512,-0.607201,0.415961,0
-8.954114,1.001781,0.565374,0.215433,0.002669,0.126848,43.756646,-4.467910,15.186009,4635731787434164200.000000,-0.733456,-0.074846,-0.673627,0.051633,-8.663332,-1.823706,-1.489738,-0.938173,0.761972,0.319455,44.068726,-14.288770,5.601893,4635727706678362100.000000,-0.538946,0.535202,-0.511684,-0.401592,-9.515490,-0.551085,-1.881330,-0.050325,0.101627,0.051943,39.578516,20.364729,11.266710,4635729532576333800.000000,-0.483735,-0.473712,-0.607396,0.415532,0
