Accelerometer-X,Accelerometer-Y,Accelerometer-Z,Gyroscope-X,Gyroscope-Y,Gyroscope-Z,Magnetometer-X,Magnetometer-Y,Magnetometer-Z,Barometer-pressure,Orientation-S,Orientation-X,Orientation-Y,Orientation-Z,Accelerometer-X,Accelerometer-Y,Accelerometer-Z,Gyroscope-X,Gyroscope-Y,Gyroscope-Z,Magnetometer-X,Magnetometer-Y,Magnetometer-Z,Barometer-pressure,Orientation-S,Orientation-X,Orientation-Y,Orientation-Z,Accelerometer-X,Accelerometer-Y,Accelerometer-Z,Gyroscope-X,Gyroscope-Y,Gyroscope-Z,Magnetometer-X,Magnetometer-Y,Magnetometer-Z,Barometer-pressure,Orientation-S,Orientation-X,Orientation-Y,Orientation-Z,jump
-9.333352,0.838549,0.005642,0.936792,0.271500,-0.140586,42.078918,18.660731,-1.042018,4635731894808346600.000000,0.488800,0.472711,0.538282,-0.497867,-11.667090,0.501125,0.964977,0.838620,0.102549,0.587551,39.883876,6.450099,23.847169,4635727706678362100.000000,0.645578,0.177560,0.737202,-0.090748,-9.387376,0.391457,-2.716206,0.127007,-0.183680,0.222185,45.111697,-0.554675,-9.533045,4635729210453786600.000000,0.026587,0.806279,-0.005384,-0.590913,0
-9.471371,0.762186,0.115496,0.916280,0.252770,-0.152745,42.075165,18.584047,-1.123707,4635731894808346600.000000,0.486220,0.474682,0.537242,-0.499639,-12.817303,1.988327,2.527202,0.889014,0.046719,0.551435,39.877787,6.311227,23.767815,4635727706678362100.000000,0.645059,0.181594,0.736515,-0.092021,-9.387612,0.299141,-2.679822,0.152071,-0.188523,0.218991,45.185763,-0.556208,-9.679996,4635729210453786600.000000,0.026713,0.805802,-0.006606,-0.591545,0
-9.678272,0.621649,0.218482,0.892807,0.204675,-0.151815,42.005051,18.673251,-1.140293,4635731894808346600.000000,0.483790,0.476498,0.536144,-0.501444,-11.061018,1.598565,0.925779,0.625302,0.114751,0.526470,39.792334,6.311227,23.767815,4635727706678362100.000000,0.644513,0.184865,0.736119,-0.092500,-9.399457,0.262763,-2.673178,0.177206,-0.194350,0.222650,45.137299,-0.397531,-9.729300,4635729210453786600.000000,0.026764,0.805312,-0.007903,-0.592194,0
-9.869211,0.363419,0.193442,0.889658,0.177586,-0.133383,41.997844,18.828194,-1.237951,4635731894808346600.000000,0.481461,0.478286,0.534955,-0.503250,-9.380672,1.101461,-0.597312,0.444766,0.163817,0.469876,39.706884,6.311227,23.786106,4635727706678362100.000000,0.643928,0.187495,0.735961,-0.092538,-9.436201,0.177555,-2.709922,0.199098,-0.200801,0.230170,45.172706,-0.395950,-9.777644,4635729210453786600.000000,0.026761,0.804806,-0.009282,-0.592861,0
-9.981563,0.074841,0.160569,0.887849,0.182817,-0.109394,42.070805,18.900529,-1.339969,4635731894808346600.000000,0.479169,0.480126,0.533726,-0.504988,-9.352128,2.449408,-1.023796,0.335868,0.207021,0.346849,39.637440,6.327223,23.865473,4635727706678362100.000000,0.643245,0.189470,0.736052,-0.092539,-9.460616,0.158331,-2.643693,0.217828,-0.202409,0.234432,45.337446,-0.627161,-9.778616,4635729210453786600.000000,0.026705,0.804297,-0.010721,-0.593531,0
-10.140900,-0.127702,0.197820,0.892232,0.184052,-0.076278,41.915845,18.733986,-1.518721,4635731889307593700.000000,0.476930,0.482046,0.532416,-0.506659,-10.099228,3.704833,-1.149298,0.106853,0.207552,0.240036,39.637440,6.410384,23.865473,4635727706678362100.000000,0.642699,0.190503,0.736315,-0.092124,-9.485031,0.279919,-2.424568,0.230667,-0.198718,0.239244,45.230375,-0.902132,-9.771601,4635729210453786600.000000,0.026619,0.803795,-0.012209,-0.594185,0
-10.308652,-0.230073,0.245393,0.898421,0.147830,-0.043446,41.842864,18.657270,-1.606396,4635731787434164200.000000,0.474824,0.483966,0.530948,-0.508344,-10.322894,3.810475,-0.525768,-0.148872,0.217228,0.145103,39.653433,6.440222,23.883751,4635727706678362100.000000,0.642289,0.190562,0.736776,-0.091170,-9.497360,0.493123,-2.252570,0.229716,-0.194403,0.240344,44.912253,-0.989164,-9.857053,4635729210453786600.000000,0.026540,0.803302,-0.013698,-0.594823,0
-10.412915,-0.191583,0.264205,0.900449,0.094826,-0.016110,41.997201,18.742099,-1.523680,4635731787434164200.000000,0.472885,0.485829,0.529311,-0.510078,-10.264248,3.052371,-0.356193,-0.342524,0.233455,0.042711,39.709195,6.263297,23.981392,4635727706678362100.000000,0.641942,0.189795,0.737434,-0.089884,-9.509443,0.682992,-2.239872,0.210556,-0.191231,0.235036,44.867502,-0.952177,-9.900204,4635729104174602200.000000,0.026512,0.802813,-0.015121,-0.595450,0
-10.400463,-0.119584,0.180621,0.900176,0.070116,0.002572,42.062976,18.807251,-1.723356,4635731787434164200.000000,0.471037,0.487674,0.527581,-0.511817,-10.043022,2.139671,-0.588833,-0.481839,0.233065,-0.049100,39.619972,6.038893,24.097314,4635727706678362100.000000,0.641670,0.188371,0.738213,-0.088417,-9.533856,0.708407,-2.288573,0.187036,-0.189580,0.227020,44.989944,-1.066951,-9.948530,4635728995705421800.000000,0.026544,0.802324,-0.016460,-0.596072,0
-10.157560,-0.068886,0.134281,0.894563,0.064110,0.010518,41.992843,18.726156,-1.994788,4635731787434164200.000000,0.469224,0.489506,0.525827,-0.513535,-9.819320,1.591615,-0.891845,-0.524137,0.217641,-0.113470,39.458981,5.953435,24.274380,4635727706678362100.000000,0.641452,0.186628,0.739013,-0.087004,-9.540148,0.629117,-2.361697,0.170958,-0.190141,0.220071,45.033112,-1.298906,-10.088485,4635728995705421800.000000,0.026613,0.801830,-0.017737,-0.596696,0
-9.939695,0.017811,0.132414,0.883664,0.086127,0.007096,41.977523,18.722421,-2.087466,4635731781957861400.000000,0.467374,0.491350,0.524141,-0.515183,-9.848295,1.386500,-1.042085,-0.490787,0.207021,-0.156869,39.306353,5.852019,24.335513,4635727706678362100.000000,0.641220,0.184836,0.739802,-0.085819,-9.533982,0.549711,-2.453184,0.159749,-0.193291,0.215777,45.111640,-1.410018,-10.277626,4635728995705421800.000000,0.026709,0.801326,-0.018972,-0.597330,0
-9.760320,0.129544,0.095169,0.868655,0.119981,-0.000381,41.908016,18.656647,-2.087466,4635731680059981800.000000,0.465461,0.493212,0.522563,-0.516736,-9.862904,0.991450,-1.289176,-0.409845,0.202360,-0.181644,39.262771,5.713065,24.256111,4635727706678362100.000000,0.640929,0.183180,0.740566,-0.084953,-9.521902,0.524791,-2.544798,0.145357,-0.202364,0.213641,45.185767,-1.367612,-10.424613,4635728995705421800.000000,0.026847,0.800796,-0.020166,-0.597995,0
-9.652330,0.279742,0.045103,0.852635,0.146880,-0.008455,41.907395,18.738578,-2.098024,4635731680059981800.000000,0.463503,0.495076,0.521083,-0.518206,-9.742306,0.470154,-1.632599,-0.287471,0.181266,-0.194792,39.329971,5.729038,24.274366,4635727706678362100.000000,0.640603,0.181802,0.741237,-0.084517,-9.515607,0.543166,-2.600049,0.125096,-0.207749,0.207805,45.064840,-1.372887,-10.467912,4635728995705421800.000000,0.027038,0.800250,-0.021291,-0.598679,0
-9.580952,0.501309,-0.023175,0.836072,0.158102,-0.027625,41.900147,18.970304,-2.304906,4635731680059981800.000000,0.461507,0.496886,0.519693,-0.519649,-9.672163,0.234220,-1.853905,-0.168505,0.159296,-0.212220,39.304089,5.814473,24.387961,4635727706678362100.000000,0.640247,0.180679,0.741820,-0.084512,-9.515735,0.603686,-2.606345,0.095785,-0.213045,0.198721,44.869149,-1.530805,-10.504019,4635728995705421800.000000,0.027305,0.799686,-0.022313,-0.599382,0
-9.543091,0.755185,-0.001859,0.808881,0.178598,-0.046380,41.985596,18.962250,-2.484734,4635731680059981800.000000,0.459479,0.498641,0.518434,-0.521021,-9.569133,0.246428,-1.939506,-0.083354,0.147417,-0.220836,39.218635,5.913605,24.555118,4635727706678362100.000000,0.639859,0.179751,0.742346,-0.084803,-9.509567,0.701469,-2.582061,0.057368,-0.224243,0.190704,44.795002,-1.726500,-10.547196,4635728995705421800.000000,0.027678,0.799089,-0.023215,-0.600126,0
-9.479588,0.960215,-0.044042,0.772189,0.181625,-0.076339,42.066711,18.799244,-2.379825,4635731680059981800.000000,0.457454,0.500260,0.517319,-0.522357,-9.514129,0.240391,-1.852572,-0.035671,0.131323,-0.224910,39.149143,6.074594,24.650505,4635727666557986800.000000,0.639484,0.178932,0.742815,-0.085265,-9.521644,0.732575,-2.551478,0.018881,-0.230720,0.184812,44.801170,-1.848965,-10.595504,4635728995705421800.000000,0.028165,0.798471,-0.024002,-0.600895,0
-9.371568,1.113972,-0.183731,0.728607,0.162413,-0.106723,42.058037,18.575516,-2.373193,4635731680059981800.000000,0.455492,0.501683,0.516322,-0.523692,-9.552218,0.138991,-1.681024,-0.006023,0.119575,-0.226119,39.165099,6.181656,24.704036,4635727491929997300.000000,0.639122,0.178184,0.743241,-0.085832,-9.509831,0.684010,-2.490838,-0.011083,-0.234946,0.180540,44.795133,-1.849883,-10.783725,4635728995705421800.000000,0.028741,0.797838,-0.024701,-0.601680,0
-9.303895,1.170674,-0.195318,0.689145,0.163913,-0.125081,41.900136,18.738519,-2.467132,4635731680059981800.000000,0.453568,0.502989,0.515448,-0.524969,-9.643039,-0.029633,-1.409371,0.014001,0.109421,-0.219241,39.234592,6.042665,24.652776,4635727491929997300.000000,0.638778,0.177506,0.743627,-0.086450,-9.467041,0.695289,-2.399221,-0.032479,-0.241378,0.173098,44.825184,-1.806696,-10.973922,4635728995705421800.000000,0.029369,0.797185,-0.025323,-0.602488,0
-9.342981,1.143795,-0.197786,0.650857,0.173580,-0.126678,41.976941,18.970304,-2.494628,4635731680059981800.000000,0.451697,0.504236,0.514675,-0.526141,-9.688120,-0.183767,-1.184273,0.038098,0.106017,-0.214968,39.218639,6.074573,24.729920,4635727491929997300.000000,0.638427,0.176903,0.743991,-0.087135,-9.442493,0.750689,-2.301695,-0.048525,-0.243009,0.164530,44.862206,-1.885177,-10.974989,4635728995705421800.000000,0.030029,0.796526,-0.025876,-0.603304,0
-9.429679,1.066833,-0.241675,0.616037,0.184911,-0.117320,41.895809,18.965977,-2.585653,4635731680059981800.000000,0.449895,0.505458,0.513978,-0.527194,-9.677375,-0.279310,-0.998086,0.061610,0.103738,-0.209101,39.133197,6.229514,24.701768,4635727491929997300.000000,0.638069,0.176380,0.744336,-0.087879,-9.436323,0.750823,-2.215981,-0.058713,-0.242998,0.158121,44.904460,-2.001610,-11.022207,4635728995705421800.000000,0.030707,0.795864,-0.026384,-0.604120,0
-9.538309,0.921582,-0.199027,0.588847,0.208302,-0.092699,41.903844,18.881145,-2.761192,4635731690932664300.000000,0.448150,0.506731,0.513327,-0.528091,-9.707983,-0.199234,-0.881211,0.068832,0.109948,-0.197480,39.093300,6.283076,24.640554,4635727471895577600.000000,0.637689,0.175914,0.744685,-0.088611,-9.430287,0.750687,-2.124769,-0.064065,-0.243538,0.153297,44.899373,-2.038636,-11.259762,4635728995705421800.000000,0.031391,0.795200,-0.026862,-0.604938,0
-9.627433,0.800766,-0.273486,0.551515,0.228745,-0.067123,42.050812,18.815301,-2.565916,4635731894808346600.000000,0.446498,0.508027,0.512743,-0.528812,-9.668263,-0.114419,-0.868378,0.064632,0.115885,-0.192067,39.222385,6.213568,24.774622,4635727424598886400.000000,0.637295,0.175455,0.745046,-0.089312,-9.406009,0.726681,-2.075122,-0.065697,-0.243010,0.147980,44.813786,-2.038636,-11.401714,4635728995705421800.000000,0.032067,0.794536,-0.027319,-0.605754,0
-9.781213,0.704329,-0.367455,0.495437,0.231248,-0.042769,41.964608,18.884853,-2.390310,4635731894808346600.000000,0.445014,0.509272,0.512235,-0.529358,-9.672813,-0.111534,-0.762242,0.055889,0.124827,-0.190999,39.192813,6.229492,25.031168,4635727599304179700.000000,0.636881,0.174980,0.745432,-0.089977,-9.375423,0.713927,-2.099536,-0.066213,-0.241413,0.141560,44.740546,-2.080880,-11.353436,4635728995705421800.000000,0.032730,0.793875,-0.027754,-0.606565,0
-9.841628,0.634170,-0.389406,0.449350,0.221268,-0.022423,41.651661,18.884853,-2.589913,4635731894808346600.000000,0.443692,0.510451,0.511763,-0.529789,-9.685857,-0.016755,-0.734718,0.043490,0.134911,-0.188141,39.031856,6.312663,25.074246,4635727599304179700.000000,0.636444,0.174483,0.745847,-0.090589,-9.393249,0.780717,-2.129983,-0.072045,-0.243501,0.133051,44.739716,-2.160293,-11.346294,4635728995705421800.000000,0.033390,0.793208,-0.028147,-0.607383,0
-9.888612,0.625655,-0.373607,0.400592,0.224473,-0.001275,41.667662,18.884853,-2.852224,4635731894808346600.000000,0.442510,0.511592,0.511356,-0.530069,-9.644684,-0.034348,-0.756024,0.017728,0.143185,-0.178653,38.906435,6.404108,24.931231,4635727599304179700.000000,0.636004,0.173951,0.746286,-0.091091,-9.430149,0.842170,-2.166603,-0.082186,-0.244630,0.123942,44.855190,-2.197333,-11.486041,4635728995705421800.000000,0.034061,0.792536,-0.028484,-0.608207,0
-9.900204,0.689178,-0.517657,0.359195,0.226920,0.015279,41.969670,18.881144,-2.751298,4635731894808346600.000000,0.441449,0.512694,0.511010,-0.530223,-9.599564,-0.038049,-0.812506,-0.012647,0.153342,-0.174182,38.950124,6.559075,25.018940,4635727619291861000.000000,0.635555,0.173355,0.746759,-0.091479,-9.436323,0.836422,-2.173061,-0.094977,-0.242470,0.117006,44.893227,-2.233524,-11.584826,4635728995705421800.000000,0.034756,0.791867,-0.028766,-0.609025,0
-9.899586,0.792245,-0.609752,0.323094,0.216469,0.021417,41.985585,18.807282,-2.380444,4635731894808346600.000000,0.440505,0.513714,0.510713,-0.530307,-9.605792,-0.115848,-0.855952,-0.041018,0.157143,-0.167448,38.866939,6.642262,25.080232,4635727706678362100.000000,0.635117,0.172707,0.747248,-0.091760,-9.442354,0.842021,-2.172773,-0.113624,-0.244580,0.107419,44.735406,-2.312795,-11.578795,4635729048754684900.000000,0.035490,0.791190,-0.028971,-0.609852,0
-9.886146,0.761665,-0.599396,0.290730,0.228842,0.022161,42.066095,18.729857,-2.390313,4635731894808346600.000000,0.439605,0.514701,0.510508,-0.530293,-9.548462,-0.220322,-0.936013,-0.068214,0.163154,-0.154432,38.836884,6.701864,25.037130,4635727706678362100.000000,0.634684,0.172028,0.747753,-0.091917,-9.454561,0.933069,-2.124813,-0.140277,-0.247798,0.097252,44.654245,-2.356029,-11.669117,4635729103079604200.000000,0.036284,0.790500,-0.029074,-0.610694,0
-9.851993,0.614541,-0.617632,0.252272,0.212872,0.016874,42.046468,18.800019,-2.570816,4635731894808346600.000000,0.438809,0.515572,0.510368,-0.530242,-9.567480,-0.343226,-1.041318,-0.078496,0.166830,-0.139952,38.963759,6.717761,25.214248,4635727706678362100.000000,0.634252,0.171369,0.748260,-0.092002,-9.484859,0.964824,-2.050990,-0.167558,-0.249934,0.086597,44.727487,-2.277633,-11.912668,4635729103079604200.000000,0.037142,0.789801,-0.029074,-0.611547,0
-9.859873,0.455847,-0.527391,0.215225,0.198405,0.012493,41.892101,18.815936,-2.468214,4635731894808346600.000000,0.438114,0.516331,0.510294,-0.530150,-9.611771,-0.414205,-1.117690,-0.084855,0.168097,-0.121270,38.924286,6.819126,25.273290,4635727706678362100.000000,0.633827,0.170751,0.748759,-0.092018,-9.533686,0.849376,-2.038636,-0.185252,-0.250487,0.078001,44.643955,-2.275719,-12.103122,4635729103079604200.000000,0.038036,0.789097,-0.029001,-0.612404,0
-9.788492,0.299647,-0.580517,0.204438,0.193550,0.005601,41.830563,18.900752,-2.293245,4635731894808346600.000000,0.437441,0.517041,0.510251,-0.530055,-9.638456,-0.475239,-1.142953,-0.079067,0.169836,-0.096232,38.779227,6.958220,25.220218,4635727706678362100.000000,0.633402,0.170226,0.749242,-0.091985,-9.570456,0.811274,-2.026577,-0.196474,-0.250474,0.072673,44.411866,-2.476623,-12.092099,4635729103079604200.000000,0.038954,0.788390,-0.028883,-0.613262,0
-9.754332,0.189768,-0.702479,0.191943,0.197931,-0.010585,41.981258,18.961670,-2.494627,4635731894808346600.000000,0.436748,0.517704,0.510276,-0.529955,-9.663724,-0.522649,-1.125351,-0.061781,0.170828,-0.072812,38.725561,6.942334,25.415504,4635727706678362100.000000,0.632971,0.169821,0.749704,-0.091943,-9.564727,0.806292,-2.008193,-0.200298,-0.249432,0.066265,44.300667,-2.636347,-11.988274,4635729103079604200.000000,0.039868,0.787684,-0.028734,-0.614116,0
-9.772089,0.080518,-0.596313,0.185696,0.201750,-0.029272,41.973242,18.791384,-2.570212,4635731894808346600.000000,0.436018,0.518325,0.510360,-0.529868,-9.641578,-0.514982,-1.139830,-0.042429,0.176170,-0.045832,38.792857,6.902287,25.538180,4635727706678362100.000000,0.632519,0.169552,0.750152,-0.091888,-9.540162,0.756859,-1.953794,-0.201313,-0.246755,0.061966,44.372997,-2.558899,-12.083501,4635729103079604200.000000,0.040775,0.786984,-0.028568,-0.614962,0
-9.892918,-0.015899,-0.562771,0.182599,0.156624,-0.037708,41.826254,18.645012,-2.461589,4635731889397121000.000000,0.435374,0.518819,0.510389,-0.529886,-9.640722,-0.513568,-1.150623,-0.021438,0.181709,-0.022532,38.737518,7.047355,25.376922,4635727706678362100.000000,0.632043,0.169413,0.750591,-0.091834,-9.558095,0.805085,-1.832016,-0.205599,-0.244619,0.057192,44.441127,-2.363113,-12.328270,4635729103079604200.000000,0.041684,0.786287,-0.028375,-0.615801,0
-9.986884,-0.087907,-0.582886,0.181854,0.108306,-0.044170,41.903790,18.734137,-2.385355,4635731787434164200.000000,0.434822,0.519190,0.510346,-0.530018,-9.694079,-0.459345,-1.101802,-0.014907,0.188315,-0.001296,38.495680,7.069288,25.385128,4635727706678362100.000000,0.631550,0.169360,0.751029,-0.091741,-9.564729,0.824381,-1.727728,-0.208275,-0.239318,0.053407,44.392755,-2.240592,-12.475357,4635728997045344300.000000,0.042592,0.785602,-0.028163,-0.616622,0
-10.013762,-0.137357,-0.523073,0.187087,0.096779,-0.051594,42.050814,18.884853,-2.487945,4635731787434164200.000000,0.434266,0.519529,0.510286,-0.530199,-9.765062,-0.437197,-1.062044,-0.004348,0.195396,0.014132,38.336331,6.846945,25.448759,4635727706678362100.000000,0.631034,0.169386,0.751471,-0.091635,-9.534136,0.883883,-1.660668,-0.214103,-0.234465,0.052353,44.427845,-2.233493,-12.621224,4635728888331239400.000000,0.043518,0.784926,-0.027931,-0.617428,0
-10.084540,-0.191031,-0.487071,0.189916,0.108897,-0.057841,41.984933,18.880566,-2.668522,4635731787434164200.000000,0.433664,0.519886,0.510254,-0.530372,-9.810215,-0.404570,-1.064313,0.000199,0.201133,0.027545,38.481409,6.803199,25.379192,4635727706678362100.000000,0.630501,0.169467,0.751915,-0.091504,-9.533828,0.958512,-1.611531,-0.220552,-0.231815,0.050216,44.502165,-2.312765,-12.810516,4635728888331239400.000000,0.044460,0.784255,-0.027676,-0.618224,0
-10.111413,-0.108025,-0.459585,0.185750,0.107024,-0.060992,42.050821,18.803697,-2.565941,4635731782035174400.000000,0.433070,0.520223,0.510235,-0.530546,-9.785803,-0.271173,-1.074252,-0.000321,0.208411,0.042177,38.519235,6.870500,25.413204,4635727706678362100.000000,0.629951,0.169595,0.752369,-0.091329,-9.564267,0.837527,-1.665457,-0.211629,-0.227543,0.047026,44.381489,-2.398211,-12.848991,4635728888331239400.000000,0.045365,0.783595,-0.027433,-0.619005,0
-10.182815,-0.068949,-0.377816,0.183829,0.089504,-0.062860,41.973281,18.884853,-2.380444,4635731680059981800.000000,0.432516,0.520511,0.510194,-0.530754,-9.763656,-0.126607,-1.087851,-0.008392,0.215811,0.050126,38.348345,6.876426,25.598567,4635727706678362100.000000,0.629386,0.169729,0.752838,-0.091103,-9.582811,0.678216,-1.757553,-0.186577,-0.228015,0.048553,44.306222,-2.441481,-12.751181,4635728888331239400.000000,0.046192,0.782937,-0.027261,-0.619784,0
-10.215153,0.018928,-0.368055,0.185537,0.063446,-0.059228,41.822563,18.881188,-2.385331,4635731680059981800.000000,0.432023,0.520750,0.510096,-0.531016,-9.751448,-0.153291,-1.154298,-0.017289,0.226371,0.055071,38.240916,6.946012,25.739482,4635727726622595100.000000,0.628796,0.169860,0.753335,-0.090829,-9.576786,0.628603,-1.782281,-0.156683,-0.229138,0.052866,44.421799,-2.399303,-12.804312,4635728888331239400.000000,0.046933,0.782280,-0.027179,-0.620561,0
-10.165093,0.148938,-0.403457,0.178806,0.029905,-0.047317,41.830524,18.811609,-2.473204,4635731680059981800.000000,0.431642,0.520928,0.509925,-0.531315,-9.732444,-0.167249,-1.188650,-0.019150,0.231116,0.059068,38.334757,6.946012,25.714346,4635727814052544500.000000,0.628193,0.169999,0.753842,-0.090536,-9.570604,0.670933,-1.782281,-0.130452,-0.229624,0.053935,44.375493,-2.356029,-13.041791,4635728888331239400.000000,0.047591,0.781626,-0.027170,-0.621336,0
-10.089401,0.197767,-0.408930,0.166310,0.009613,-0.032523,41.969014,18.815282,-2.390239,4635731680059981800.000000,0.431366,0.521068,0.509714,-0.531604,-9.690414,-0.099924,-1.228916,-0.023697,0.233253,0.065950,38.106486,6.898452,26.005030,4635727814052544500.000000,0.627589,0.170148,0.754350,-0.090210,-9.576628,0.744173,-1.770233,-0.111199,-0.233896,0.055530,44.137385,-2.319886,-13.226162,4635728888331239400.000000,0.048190,0.780962,-0.027217,-0.622121,0
-9.968573,0.243539,-0.288102,0.159849,0.010840,-0.020830,41.732844,18.893386,-2.575762,4635731680059981800.000000,0.431127,0.521224,0.509494,-0.531856,-9.671412,-0.100808,-1.341045,-0.023775,0.234794,0.069231,37.993082,6.644366,26.235974,4635727814052544500.000000,0.626981,0.170308,0.754859,-0.089874,-9.564740,0.805369,-1.745818,-0.100434,-0.237115,0.057139,44.134351,-2.282784,-13.227280,4635728888331239400.000000,0.048758,0.780291,-0.027298,-0.622915,0
-9.874568,0.227054,-0.197151,0.153066,0.034020,-0.010094,41.655936,19.059421,-2.576373,4635731685432556500.000000,0.430879,0.521441,0.509307,-0.532023,-9.620325,-0.049720,-1.460844,-0.018314,0.232934,0.068163,38.062683,6.459089,26.227810,4635727814052544500.000000,0.626375,0.170478,0.755362,-0.089559,-9.534143,0.842150,-1.715382,-0.098797,-0.239251,0.057153,44.330139,-2.355062,-13.183995,4635728888331239400.000000,0.049320,0.779614,-0.027384,-0.623714,0
-9.848937,0.130015,-0.228893,0.160221,0.029590,0.001601,41.732844,19.125345,-2.587360,4635731787434164200.000000,0.430652,0.521684,0.509071,-0.532194,-9.572868,0.022633,-1.557130,-0.009019,0.228188,0.066105,38.030997,6.566284,26.164101,4635727814052544500.000000,0.625775,0.170663,0.755849,-0.089283,-9.521774,0.848496,-1.672739,-0.097230,-0.240860,0.056612,44.374399,-2.471430,-13.226152,4635728888331239400.000000,0.049875,0.778932,-0.027472,-0.624518,0
-9.797659,0.043333,-0.167850,0.182067,0.002617,0.011910,41.643721,19.047205,-2.580037,4635731787434164200.000000,0.430459,0.521928,0.508717,-0.532451,-9.580548,0.135654,-1.596016,-0.006607,0.225655,0.059300,37.891781,6.775109,26.251816,4635727814052544500.000000,0.625179,0.170832,0.756334,-0.089035,-9.515752,0.860378,-1.623910,-0.096646,-0.242982,0.058193,44.258997,-2.478591,-13.317626,4635728941303189500.000000,0.050432,0.778243,-0.027568,-0.625328,0
-9.700021,-0.065293,-0.105002,0.212930,-0.009024,0.014794,41.500866,18.889110,-2.656958,4635731787434164200.000000,0.430230,0.522206,0.508267,-0.532793,-9.561551,0.195318,-1.644845,-0.007477,0.221185,0.049963,37.907624,6.727579,26.351739,4635727814052544500.000000,0.624594,0.170967,0.756813,-0.088812,-9.497524,0.896998,-1.593148,-0.100377,-0.244606,0.060870,44.130419,-2.399329,-13.457432,4635728995705421800.000000,0.051008,0.777547,-0.027663,-0.626142,0
-9.603570,-0.151974,-0.007941,0.242626,-0.017092,0.011696,41.659583,18.973961,-2.580637,4635731787434164200.000000,0.429948,0.522511,0.507744,-0.533220,-9.514984,0.195318,-1.682358,-0.007477,0.216438,0.037739,37.977230,6.489330,26.441235,4635727794144574500.000000,0.624018,0.171062,0.757288,-0.088624,-9.430964,0.855346,-1.599004,-0.099908,-0.245660,0.063533,44.044808,-2.398175,-13.550218,4635728995705421800.000000,0.051589,0.776847,-0.027768,-0.626958,0
-9.531545,-0.255746,0.079337,0.288556,0.003844,0.010681,41.810356,19.039893,-2.683170,4635731787434164200.000000,0.429520,0.522942,0.507158,-0.533700,-9.487415,0.202108,-1.670151,-0.006883,0.213312,0.027928,37.961389,6.405318,26.420867,4635727706678362100.000000,0.623449,0.171126,0.757761,-0.088467,-9.393349,0.769398,-1.599335,-0.095621,-0.251484,0.068845,44.007690,-2.477606,-13.598385,4635728995705421800.000000,0.052170,0.776131,-0.027903,-0.627790,0
-9.485759,-0.242935,0.200777,0.334052,0.016235,0.010894,41.810356,18.961813,-2.872986,4635731787434164200.000000,0.428967,0.523482,0.506490,-0.534248,-9.513191,0.227417,-1.655684,-0.002096,0.206825,0.017644,37.875949,6.635868,26.349462,4635727706678362100.000000,0.622892,0.171167,0.758222,-0.088357,-9.466083,0.792808,-1.562884,-0.097684,-0.258462,0.075268,43.965553,-2.556861,-13.738169,4635728995705421800.000000,0.052772,0.775394,-0.028055,-0.628643,0
-9.494928,-0.221557,0.307617,0.371069,0.020827,0.014954,41.814612,18.795145,-2.949328,4635731787434164200.000000,0.428332,0.524106,0.505739,-0.534857,-9.612193,0.203006,-1.629012,0.009652,0.205282,0.008704,37.790507,6.757028,26.499092,4635727706678362100.000000,0.622328,0.171210,0.758681,-0.088308,-9.593999,0.932592,-1.496002,-0.116747,-0.263788,0.084294,43.916219,-2.558046,-13.969419,4635728995705421800.000000,0.053459,0.774637,-0.028188,-0.629512,0
-9.445491,-0.264258,0.352191,0.400711,0.032572,0.014848,41.891554,18.714557,-2.846806,4635731787434164200.000000,0.427609,0.524807,0.504943,-0.535501,-9.755061,0.176334,-1.592393,0.022785,0.206943,-0.001384,37.736688,6.663896,26.827788,4635727686809049100.000000,0.621745,0.171255,0.759146,-0.088326,-9.626127,1.085617,-1.392486,-0.150885,-0.265984,0.097113,43.952165,-2.478608,-14.069622,4635728995705421800.000000,0.054290,0.773862,-0.028273,-0.630389,0
-9.385674,-0.418690,0.317999,0.425593,0.065992,0.012924,41.814601,18.729795,-2.661214,4635731787434164200.000000,0.426759,0.525618,0.504158,-0.536123,-9.814753,0.148748,-1.551253,0.041023,0.211018,-0.009058,37.806328,6.633571,26.881181,4635727599304179700.000000,0.621134,0.171325,0.759620,-0.088420,-9.528643,1.057215,-1.372738,-0.185635,-0.265427,0.114143,43.953350,-2.441481,-14.026306,4635728889825768400.000000,0.055277,0.773078,-0.028321,-0.631263,0
-9.349661,-0.494951,0.332020,0.456990,0.124478,0.015060,41.899439,18.803636,-2.675734,4635731787434164200.000000,0.425722,0.526617,0.503400,-0.536678,-9.803458,0.165473,-1.501511,0.052537,0.214618,-0.017603,37.774703,6.762901,26.755890,4635727599304179700.000000,0.620499,0.171398,0.760105,-0.088569,-9.460911,0.850057,-1.476232,-0.216622,-0.271234,0.144981,43.867909,-2.483602,-14.164704,4635728780957057000.000000,0.056444,0.772266,-0.028389,-0.632150,0
-9.325246,-0.623183,0.382664,0.496458,0.156373,0.017249,41.964817,18.884853,-2.963871,4635731787434164200.000000,0.424534,0.527763,0.502602,-0.537241,-9.724353,0.193060,-1.501511,0.053605,0.219168,-0.026741,37.619615,6.747091,26.923186,4635727599304179700.000000,0.619845,0.171447,0.760607,-0.088743,-9.436497,0.636180,-1.556182,-0.244949,-0.286126,0.182409,43.830594,-2.599131,-14.349192,4635728780957057000.000000,0.057799,0.771400,-0.028507,-0.633078,0
-9.299627,-0.629957,0.468106,0.533428,0.164442,0.020189,41.879981,18.880629,-3.144682,4635731787434164200.000000,0.423252,0.528997,0.501726,-0.537857,-9.567929,0.196656,-1.494738,0.052698,0.222409,-0.038490,37.549973,6.693252,26.984716,4635727599304179700.000000,0.619177,0.171457,0.761125,-0.088943,-9.454194,0.386730,-1.586787,-0.266914,-0.301141,0.226589,43.914989,-2.673421,-14.398544,4635728780957057000.000000,0.059339,0.770481,-0.028712,-0.634045,0
-9.247190,-0.534115,0.551742,0.541024,0.163585,0.017737,41.814571,18.799400,-3.047033,4635731787434164200.000000,0.421950,0.530234,0.500836,-0.538492,-9.459816,0.267642,-1.458117,0.043677,0.233054,-0.051622,37.504828,6.747101,26.923175,4635727619158224900.000000,0.618477,0.171406,0.761683,-0.089140,-9.557333,0.105624,-1.581125,-0.286635,-0.315506,0.287904,43.947360,-2.673421,-14.543082,4635728780957057000.000000,0.061102,0.769509,-0.029066,-0.635042,0
-9.126913,-0.471261,0.596352,0.530605,0.166737,0.009772,41.903654,18.795176,-2.954192,4635731787434164200.000000,0.420646,0.531438,0.499992,-0.539108,-9.525361,0.339955,-1.423754,0.031346,0.236096,-0.070057,37.260698,6.661656,27.002775,4635727706678362100.000000,0.617768,0.171266,0.762265,-0.089344,-9.757958,-0.349229,-1.514427,-0.292224,-0.335243,0.358897,43.861732,-2.715527,-14.775732,4635728780957057000.000000,0.063068,0.768469,-0.029638,-0.636081,0
-9.043278,-0.368797,0.551306,0.525581,0.168662,0.013345,42.050290,18.709735,-2.958406,4635731787434164200.000000,0.419357,0.532643,0.499153,-0.539701,-9.583733,0.437209,-1.412880,-0.007505,0.248242,-0.085605,37.093277,6.607798,26.984718,4635727706678362100.000000,0.617041,0.170981,0.762904,-0.089456,-10.020313,-1.056504,-1.434817,-0.242058,-0.359236,0.439436,43.788492,-2.873146,-14.820502,4635728780957057000.000000,0.065084,0.767364,-0.030607,-0.637166,0
-8.995055,-0.169295,0.347407,0.525651,0.166946,0.024025,41.965447,18.624894,-3.034838,4635731787434164200.000000,0.418094,0.533864,0.498285,-0.540277,-9.536238,0.400187,-1.463961,-0.045919,0.260942,-0.103367,37.230322,6.693242,26.938957,4635727706678362100.000000,0.616295,0.170545,0.763602,-0.089483,-10.186628,-1.464528,-1.361756,-0.101299,-0.387517,0.534911,43.715253,-3.147168,-14.813053,4635728780957057000.000000,0.066899,0.766203,-0.032263,-0.638292,0
-8.956622,0.105485,0.214917,0.506001,0.174357,0.034391,41.895809,18.551038,-2.946198,4635731787434164200.000000,0.416882,0.535086,0.497450,-0.540774,-9.564237,0.276258,-1.513718,-0.074365,0.269208,-0.118600,37.204580,6.760645,27.142373,4635727706678362100.000000,0.615536,0.169991,0.764341,-0.089454,-10.247665,-1.507344,-1.246236,0.117293,-0.413742,0.632208,43.714172,-3.344288,-14.946614,4635728780957057000.000000,0.068270,0.765013,-0.034818,-0.639439,0
-8.883386,0.257557,0.112464,0.478127,0.202109,0.038558,41.903617,18.474005,-3.037647,4635731787434164200.000000,0.415683,0.536328,0.496714,-0.541142,-9.659639,0.224775,-1.524997,-0.097120,0.279181,-0.129559,37.150712,6.766484,27.417298,4635727706678362100.000000,0.614756,0.169346,0.765121,-0.089373,-10.170401,-1.261358,-1.105769,0.339261,-0.416179,0.725625,43.787411,-3.417528,-15.087624,4635728780957057000.000000,0.069181,0.763856,-0.038263,-0.640527,0
-8.811343,0.281971,-0.077448,0.447326,0.251541,0.040957,42.050300,18.563059,-3.225353,4635731787434164200.000000,0.414452,0.537633,0.496125,-0.541331,-9.733809,0.069672,-1.590535,-0.099107,0.280923,-0.136444,37.204592,6.820366,27.558490,4635727706678362100.000000,0.613968,0.168675,0.765909,-0.089303,-9.788386,-0.495863,-1.157858,0.504775,-0.389606,0.815435,43.752441,-3.689141,-15.227352,4635728780957057000.000000,0.069809,0.762790,-0.042427,-0.641466,0
-8.764915,0.301590,-0.157498,0.398950,0.328839,0.049430,41.965456,18.722338,-3.030656,4635731787434164200.000000,0.413191,0.539042,0.495760,-0.541229,-9.742450,0.013519,-1.689497,-0.081953,0.280134,-0.140125,37.089860,6.734922,27.496890,4635727706678362100.000000,0.613168,0.168036,0.766691,-0.089298,-9.317202,0.469074,-1.408017,0.613539,-0.362247,0.866139,43.563872,-4.165228,-15.452542,4635728780957057000.000000,0.070229,0.761804,-0.047034,-0.642270,0
-8.775100,0.225950,-0.146862,0.346362,0.432174,0.078250,41.900003,18.877065,-2.851740,4635731787434164200.000000,0.411899,0.540649,0.495627,-0.540733,-9.665641,0.154356,-1.785107,-0.056085,0.276847,-0.141981,36.904292,6.696785,27.628346,4635727706678362100.000000,0.612358,0.167455,0.767455,-0.089383,-9.161010,1.102278,-1.405882,0.688997,-0.340917,0.856403,43.374011,-4.563170,-15.630934,4635728780957057000.000000,0.070387,0.760881,-0.051805,-0.642979,0
-8.985593,0.103889,-0.417537,0.331806,0.483392,0.128007,41.977074,18.717787,-2.763058,4635731787434164200.000000,0.410644,0.542446,0.495499,-0.540003,-9.483110,0.463149,-1.638045,-0.087221,0.279295,-0.147322,36.995556,6.851916,27.875317,4635727706678362100.000000,0.611559,0.166779,0.768239,-0.089380,-9.252467,1.353719,-1.089250,0.712601,-0.300063,0.810605,43.221521,-4.916607,-15.710370,4635728780957057000.000000,0.070354,0.760068,-0.056482,-0.643551,0
-9.246994,-0.013405,-0.956144,0.344697,0.426939,0.190071,41.895809,18.547465,-2.839533,4635731787434164200.000000,0.409613,0.544264,0.495103,-0.539320,-9.172856,0.111286,-1.659259,-0.162317,0.285475,-0.151283,37.089884,6.890071,27.918924,4635727706678362100.000000,0.610790,0.165900,0.769068,-0.089144,-9.338105,1.813136,-0.807177,0.637625,-0.247100,0.762967,43.068835,-5.349318,-15.837710,4635728780957057000.000000,0.070442,0.759370,-0.060790,-0.643972,0
-9.358904,-0.038411,-1.280303,0.336881,0.313796,0.253467,41.903561,18.392383,-2.750840,4635731787434164200.000000,0.408975,0.545942,0.494386,-0.538766,-8.988422,-0.487353,-1.760851,-0.226112,0.282780,-0.145795,36.861487,6.750694,27.759636,4635727706678362100.000000,0.610074,0.164876,0.769909,-0.088691,-9.429375,2.545910,-0.677980,0.492562,-0.211674,0.738156,42.958414,-5.783309,-15.924651,4635728780957057000.000000,0.070930,0.758717,-0.064619,-0.644315,0
-9.265074,-0.075038,-1.496476,0.301733,0.248782,0.302630,42.066458,18.306922,-2.827336,4635731787434164200.000000,0.408658,0.547514,0.493523,-0.538202,-8.726285,-0.541629,-2.034839,-0.310591,0.285279,-0.121365,36.729823,6.811488,27.811423,4635727706678362100.000000,0.609415,0.163715,0.770768,-0.087903,-9.449101,2.983472,-0.665018,0.322403,-0.186074,0.716994,42.963290,-6.095789,-15.918454,4635728780957057000.000000,0.071905,0.758079,-0.067915,-0.644619,0
-9.016490,-0.108672,-1.631012,0.268725,0.294727,0.330162,42.299250,18.222067,-2.729678,4635731787434164200.000000,0.408384,0.549187,0.492748,-0.537416,-8.458781,-0.554786,-2.177664,-0.361293,0.281711,-0.077851,36.688345,7.080294,28.112457,4635727706678362100.000000,0.608816,0.162564,0.771605,-0.086845,-9.357832,2.979940,-0.767733,0.167614,-0.163034,0.684916,43.048741,-6.291678,-15.918454,4635728780957057000.000000,0.073288,0.757457,-0.070687,-0.644896,0
-8.928965,-0.083668,-1.530401,0.237912,0.422590,0.331205,42.303128,18.140513,-2.636204,4635731787434164200.000000,0.407917,0.551093,0.492256,-0.536269,-8.645893,-0.520416,-1.834213,-0.389012,0.287362,-0.032824,36.519698,7.001497,28.449053,4635727706678362100.000000,0.608230,0.161488,0.772433,-0.085581,-9.284016,2.676849,-0.908595,0.067334,-0.150659,0.647647,42.977971,-6.528485,-16.002573,4635728780957057000.000000,0.074891,0.756842,-0.073068,-0.645169,0
-9.044781,-0.050614,-1.387170,0.211233,0.517975,0.309661,42.152164,17.908260,-2.610910,4635731787434164200.000000,0.407265,0.553119,0.492032,-0.534882,-9.358969,-0.507254,-1.375556,-0.420230,0.302261,-0.000054,36.376769,6.623783,28.510700,4635727706678362100.000000,0.607627,0.160443,0.773286,-0.084122,-9.295458,2.387603,-0.994424,0.012035,-0.140045,0.602262,42.782091,-6.767758,-16.137420,4635728780957057000.000000,0.076549,0.756245,-0.075153,-0.645435,0
-9.282706,-0.087836,-1.548266,0.205996,0.490822,0.263830,42.168259,17.912433,-2.334880,4635731787434164200.000000,0.406578,0.554976,0.491880,-0.533620,-9.824710,-0.537126,-1.252573,-0.405079,0.330707,0.015658,36.301275,6.492089,28.467040,4635727706678362100.000000,0.606924,0.159497,0.774191,-0.082654,-9.344479,2.475608,-1.061468,-0.000626,-0.127194,0.562114,42.779596,-6.920446,-16.187017,4635728780957057000.000000,0.078142,0.755686,-0.077072,-0.645672,0
-9.636048,-0.136062,-1.743879,0.201858,0.393042,0.220669,42.485322,17.985406,-2.160117,4635731787434164200.000000,0.406005,0.556517,0.491669,-0.532645,-9.808007,-0.537126,-1.586951,-0.385518,0.355833,0.029992,36.218081,6.466392,28.662335,4635727706678362100.000000,0.606130,0.158653,0.775141,-0.081196,-9.507247,2.690862,-0.960505,-0.021991,-0.122294,0.517949,42.902241,-7.108976,-16.229066,4635728780957057000.000000,0.079685,0.755143,-0.078794,-0.645911,0
-9.979679,-0.169714,-1.703684,0.179372,0.306873,0.190626,42.547276,17.815077,-2.152666,4635731787434164200.000000,0.405591,0.557765,0.491431,-0.531874,-9.825322,-0.541620,-1.985617,-0.345750,0.371237,0.066417,36.129115,6.367465,28.839658,4635727706678362100.000000,0.605268,0.158033,0.776089,-0.079765,-9.758163,2.698616,-0.793871,-0.050728,-0.113377,0.473988,42.909608,-7.304864,-16.224418,4635728780957057000.000000,0.081202,0.754625,-0.080296,-0.646143,0
-10.358104,-0.150651,-1.597981,0.155509,0.269905,0.179501,42.396313,17.664112,-2.224441,4635731787434164200.000000,0.405282,0.558868,0.491208,-0.531158,-10.056958,-0.561541,-2.064022,-0.281804,0.373065,0.106108,35.970419,6.206522,28.937316,4635727706678362100.000000,0.604369,0.157702,0.776991,-0.078439,-9.791507,2.643000,-0.895198,-0.017110,-0.083639,0.435094,42.794319,-7.391485,-16.222859,4635728780957057000.000000,0.082519,0.754208,-0.081755,-0.646280,0
-10.733490,-0.237860,-1.577715,0.124281,0.242729,0.180206,42.400456,17.656417,-2.029166,4635731787434164200.000000,0.405103,0.559856,0.491007,-0.530438,-10.127349,-0.552553,-2.007481,-0.199952,0.369776,0.136101,35.854417,6.051351,29.052950,4635727706678362100.000000,0.603435,0.157672,0.777837,-0.077305,-9.867232,2.552721,-1.091483,0.016057,-0.065648,0.393388,42.719709,-7.469753,-16.218418,4635728780957057000.000000,0.083624,0.753861,-0.083167,-0.646361,0
-11.050919,-0.354015,-1.638165,0.086713,0.249316,0.173952,42.485915,17.497111,-1.838571,4635731787434164200.000000,0.404986,0.560781,0.490916,-0.529635,-9.961927,-0.499235,-2.009044,-0.130656,0.368289,0.160948,35.929903,5.997350,29.230285,4635727706678362100.000000,0.602466,0.157897,0.778638,-0.076334,-10.178403,2.315775,-1.147694,0.021767,-0.072039,0.364920,42.767945,-7.658267,-16.162601,4635728780957057000.000000,0.084633,0.753508,-0.084506,-0.646469,0
-11.369494,-0.348083,-1.679283,0.024087,0.279669,0.170644,42.575519,17.330954,-1.736168,4635731787434164200.000000,0.404945,0.561659,0.491021,-0.528637,-9.795803,-0.401264,-2.206931,-0.116763,0.352520,0.179757,35.970419,6.051349,29.325705,4635727706678362100.000000,0.601543,0.158212,0.779381,-0.075372,-10.351680,1.968556,-1.171317,0.043569,-0.067432,0.352541,42.733301,-7.782121,-16.210640,4635728780957057000.000000,0.085541,0.753176,-0.085863,-0.646557,0
-11.705319,-0.218362,-1.571803,-0.051683,0.294259,0.164891,42.741660,17.265401,-1.546208,4635731787434164200.000000,0.405039,0.562426,0.491332,-0.527459,-9.756935,-0.207224,-2.531057,-0.126159,0.324664,0.186841,35.825207,5.965899,29.431379,4635727726442220500.000000,0.600717,0.158517,0.780050,-0.074379,-10.237999,1.812102,-1.346627,0.065035,-0.049292,0.346132,42.568609,-7.752299,-16.302290,4635728780957057000.000000,0.086370,0.752901,-0.087252,-0.646581,0
-11.919740,0.066543,-1.519032,-0.126143,0.233187,0.150644,42.815496,17.342587,-1.469022,4635731787434164200.000000,0.405400,0.562904,0.491737,-0.526294,-9.701369,-0.041502,-2.885053,-0.092963,0.300773,0.188840,35.755486,5.864728,29.608716,4635727814052544500.000000,0.599947,0.158904,0.780647,-0.073506,-10.107730,1.855525,-1.597364,0.065805,-0.041623,0.336572,42.445743,-7.829143,-16.387737,4635728833761497100.000000,0.087174,0.752649,-0.088609,-0.646583,0
-12.011273,0.425704,-1.616483,-0.193425,0.062090,0.128709,42.893266,17.253576,-1.545606,4635731787434164200.000000,0.406219,0.562847,0.492050,-0.525430,-9.627143,0.297484,-3.196415,-0.072185,0.273951,0.175626,35.771228,5.696036,29.672661,4635727814052544500.000000,0.599245,0.159292,0.781178,-0.072750,-10.083716,1.789488,-1.775073,0.075032,-0.040642,0.331108,42.492566,-8.175147,-16.479192,4635728888331239400.000000,0.087934,0.752402,-0.089973,-0.646578,0
-11.730937,0.630653,-1.462338,-0.239711,-0.125455,0.096582,42.815896,17.098439,-1.443236,4635731787434164200.000000,0.407462,0.562232,0.492223,-0.524963,-9.600477,0.716071,-3.257751,-0.083399,0.242692,0.160277,35.811686,5.580075,29.636701,4635727814052544500.000000,0.598646,0.159592,0.781643,-0.072018,-10.022884,1.589186,-1.963371,0.130203,-0.035284,0.327992,42.543407,-8.530954,-16.432782,4635728888331239400.000000,0.088515,0.752190,-0.091474,-0.646536,0
-11.220048,0.536965,-1.157186,-0.292546,-0.151105,0.083714,42.664875,17.025366,-1.252651,4635731787434164200.000000,0.408854,0.561442,0.492499,-0.524468,-9.570604,0.776456,-3.036753,-0.074517,0.215710,0.141811,35.666498,5.639820,29.822043,4635727814052544500.000000,0.598123,0.159846,0.782050,-0.071378,-9.967652,1.560702,-2.027454,0.164059,-0.033113,0.318923,42.434164,-8.655049,-16.237487,4635728888331239400.000000,0.088965,0.751997,-0.093036,-0.646475,0
-10.755126,0.273502,-0.856693,-0.332607,-0.050896,0.069465,42.660744,17.191565,-1.160293,4635731787434164200.000000,0.410103,0.560770,0.493066,-0.523677,-9.586345,0.633500,-2.830190,-0.056050,0.192210,0.118030,35.596786,5.608338,29.999372,4635727814052544500.000000,0.597657,0.160061,0.782409,-0.070874,-9.919032,1.888430,-1.887386,0.140235,-0.044663,0.311410,42.437695,-8.613046,-16.138187,4635728888331239400.000000,0.089465,0.751765,-0.094515,-0.646461,0
-10.525126,-0.131550,-0.663302,-0.340585,0.039256,0.047802,42.579422,17.265371,-1.181288,4635731787434164200.000000,0.411137,0.560235,0.493854,-0.522696,-9.674044,0.533276,-2.959006,-0.058299,0.168318,0.097343,35.596786,5.455426,30.043067,4635727814052544500.000000,0.597264,0.160196,0.782722,-0.070430,-9.762003,2.297872,-1.680702,0.077671,-0.071836,0.299770,42.632381,-8.683591,-16.282181,4635728888331239400.000000,0.090119,0.751440,-0.095798,-0.646560,0
-10.572786,-0.577989,-0.748764,-0.336764,0.006341,0.019718,42.587059,17.334971,-1.375453,4635731787434164200.000000,0.412165,0.559577,0.494639,-0.521848,-9.755963,0.347273,-3.117687,-0.033846,0.140916,0.076487,35.581056,5.424886,29.865745,4635727814052544500.000000,0.596937,0.160316,0.782973,-0.070135,-9.517661,2.730269,-1.394367,-0.027795,-0.118033,0.270065,42.594354,-8.921517,-16.515150,4635728888331239400.000000,0.091004,0.750961,-0.096721,-0.646855,0
-10.587804,-0.914507,-0.837151,-0.321821,-0.127216,-0.015130,42.745752,17.094349,-1.533434,4635731787434164200.000000,0.413354,0.558582,0.495240,-0.521403,-9.747945,0.306156,-3.251664,-0.017175,0.104094,0.064567,35.497854,5.538638,29.804042,4635727814052544500.000000,0.596715,0.160427,0.783136,-0.069950,-9.483686,3.122581,-1.088973,-0.150089,-0.179985,0.235231,42.282961,-9.045686,-16.554077,4635728888331239400.000000,0.092152,0.750280,-0.097229,-0.647406,0
-10.413431,-1.145811,-0.976592,-0.328484,-0.236629,-0.063186,42.889217,16.943945,-1.431705,4635731787434164200.000000,0.414680,0.557236,0.495779,-0.521279,-9.645794,0.229392,-3.255855,-0.004364,0.062070,0.059593,35.438091,5.439706,29.883722,4635727814052544500.000000,0.596620,0.160542,0.783193,-0.069847,-9.792539,3.565498,-1.005951,-0.256124,-0.220416,0.216908,42.163739,-9.009696,-16.456423,4635728888331239400.000000,0.093566,0.749455,-0.097409,-0.648131,0
-10.172185,-1.361467,-0.973077,-0.339825,-0.266251,-0.110335,42.730500,17.199743,-1.253261,4635731787434164200.000000,0.415992,0.555703,0.496401,-0.521278,-9.532715,0.127833,-3.192869,0.037632,0.029465,0.048742,35.438091,5.310220,29.868002,4635727814052544500.000000,0.596601,0.160716,0.783165,-0.069929,-10.094239,3.581902,-1.416068,-0.337423,-0.230176,0.208888,42.314932,-9.122361,-16.550673,4635728835584670700.000000,0.095207,0.748573,-0.097347,-0.648921,0
-9.997279,-1.485797,-0.906855,-0.342671,-0.203686,-0.138865,42.582929,17.428082,-1.176586,4635731787434164200.000000,0.417119,0.554238,0.497202,-0.521173,-9.490911,0.227738,-3.193560,0.064558,0.002650,0.044640,35.422371,5.355136,29.831958,4635727814052544500.000000,0.596649,0.160937,0.783065,-0.070128,-9.934894,2.666126,-2.063914,-0.372296,-0.207632,0.197214,42.199060,-9.127708,-16.741705,4635728886449742800.000000,0.096934,0.747738,-0.097145,-0.649657,0
-9.991486,-1.409062,-0.985338,-0.337838,-0.109758,-0.161191,42.656749,17.339140,-1.273651,4635731787434164200.000000,0.417989,0.552938,0.498205,-0.520900,-9.577341,0.310656,-3.032621,0.101156,-0.027232,0.032216,35.352638,5.570087,29.981382,4635727814052544500.000000,0.596767,0.161198,0.782888,-0.070497,-9.326875,1.900497,-2.632094,-0.349640,-0.135447,0.183290,41.435126,-8.486703,-16.731208,4635728995705421800.000000,0.098581,0.747111,-0.096932,-0.650162,0
-10.117643,-1.263739,-1.166118,-0.323295,-0.062412,-0.181180,42.734036,17.191523,-1.355022,4635731787434164200.000000,0.418681,0.551723,0.499301,-0.520582,-9.596005,0.240373,-2.848269,0.140942,-0.047329,0.022517,35.368349,5.592690,29.929764,4635727814052544500.000000,0.596921,0.161522,0.782656,-0.071033,-8.738166,1.979935,-3.085243,-0.336859,-0.035610,0.162622,40.816852,-7.833741,-16.675312,4635728995705421800.000000,0.100172,0.746765,-0.096647,-0.650359,0
-10.320516,-1.142820,-1.293400,-0.338148,-0.075606,-0.194556,42.640979,17.269451,-1.350931,4635731787434164200.000000,0.419404,0.550424,0.500435,-0.520286,-9.525991,0.020640,-2.527814,0.214692,-0.064199,0.016391,35.453802,5.369999,29.664704,4635727814052544500.000000,0.597077,0.162003,0.782364,-0.071836,-8.520767,2.431178,-3.373517,-0.387509,0.063241,0.120122,40.736103,-7.750409,-16.675312,4635728995705421800.000000,0.101845,0.746681,-0.096052,-0.650284,0
-10.427454,-1.049254,-1.283527,-0.349740,-0.163245,-0.197811,42.405021,17.432173,-1.274234,4635731787434164200.000000,0.420329,0.548904,0.501448,-0.520171,-9.427348,-0.165428,-1.922494,0.295052,-0.065699,0.010116,35.537006,5.370802,29.520999,4635727814052544500.000000,0.597182,0.162664,0.782047,-0.072918,-8.520767,2.721378,-3.551045,-0.490279,0.151495,0.064061,40.424385,-7.794972,-16.663323,4635728995705421800.000000,0.103720,0.746811,-0.094965,-0.649998,0
-10.456463,-1.033548,-1.315485,-0.336821,-0.315989,-0.202237,42.338772,17.435671,-1.371893,4635731787434164200.000000,0.421532,0.547064,0.502172,-0.520437,-9.400943,-0.208768,-1.634793,0.314319,-0.045212,0.019052,35.610237,5.686895,29.590746,4635727814052544500.000000,0.597209,0.163407,0.781767,-0.074025,-8.448842,2.777074,-3.541685,-0.617771,0.233699,0.009550,40.299116,-7.877791,-16.656892,4635728995705421800.000000,0.105876,0.747125,-0.093326,-0.649527,0
-10.080399,-0.948688,-1.246314,-0.321258,-0.462203,-0.209662,42.412590,17.525188,-1.461399,4635731787434164200.000000,0.422986,0.544915,0.502620,-0.521080,-9.483163,-0.225954,-1.729473,0.299646,-0.025025,0.029342,35.685731,5.896176,29.608686,4635727794327338000.000000,0.597182,0.164154,0.781534,-0.075046,-8.278377,2.837233,-3.322831,-0.766537,0.317034,-0.046460,41.247402,-8.319517,-16.723043,4635728995705421800.000000,0.108374,0.747613,-0.091073,-0.648873,0
-9.504973,-0.871391,-1.018460,-0.293997,-0.471269,-0.215715,42.485846,17.923949,-1.400927,4635731787434164200.000000,0.424384,0.542775,0.503003,-0.521806,-9.587294,0.012688,-1.971356,0.228766,-0.010268,0.037886,35.742037,5.864797,29.688404,4635727706678362100.000000,0.597158,0.164757,0.781353,-0.075804,-8.143001,2.887161,-3.036305,-0.934654,0.390361,-0.107846,42.257607,-8.726966,-16.749221,4635728995705421800.000000,0.111256,0.748235,-0.088139,-0.648073,0
-8.907329,-0.706280,-0.878933,-0.277515,-0.338854,-0.214749,42.323067,17.989643,-1.595685,4635731787434164200.000000,0.425465,0.540952,0.503578,-0.522263,-9.591537,0.265561,-2.169676,0.112425,0.003618,0.044274,35.650861,5.756651,29.670473,4635727706678362100.000000,0.597170,0.165096,0.781238,-0.076157,-8.123695,2.803037,-2.707147,-1.106140,0.453402,-0.170867,42.386318,-8.615752,-16.568100,4635728995705421800.000000,0.114524,0.748953,-0.084514,-0.647156,0
-8.581224,-0.420879,-0.889374,-0.273395,-0.166087,-0.215766,42.327127,17.912321,-1.766013,4635731787434164200.000000,0.426169,0.539510,0.504449,-0.522342,-9.508326,0.450914,-2.216264,-0.008079,0.018288,0.040481,35.511337,5.896176,29.590746,4635727706678362100.000000,0.597215,0.165127,0.781200,-0.076118,-8.142338,2.656327,-2.407071,-1.264944,0.507488,-0.229168,42.339941,-8.225336,-16.335054,4635729048419663900.000000,0.118145,0.749740,-0.080249,-0.646136,0
-8.575963,-0.291820,-1.104454,-0.272631,-0.023463,-0.215867,42.408520,17.994292,-1.675362,4635731787434164200.000000,0.426570,0.538377,0.505570,-0.522100,-9.437326,0.567794,-2.252885,-0.119276,0.035269,0.033876,35.527023,5.849118,29.608672,4635727706678362100.000000,0.597280,0.164865,0.781244,-0.075721,-8.172296,2.587970,-2.121010,-1.402389,0.550267,-0.280996,42.456676,-7.942372,-16.295987,4635729103079604200.000000,0.122065,0.750563,-0.075428,-0.645031,0
-8.718961,-0.270303,-1.225381,-0.278531,0.041861,-0.218004,42.400978,18.005920,-1.484662,4635731787434164200.000000,0.426842,0.537367,0.506824,-0.521701,-9.405403,0.313507,-2.300694,-0.177490,0.044862,0.026597,35.596786,5.624149,29.706314,4635727706678362100.000000,0.597350,0.164437,0.781336,-0.075146,-8.263284,2.677833,-1.845349,-1.530520,0.583496,-0.327527,42.487978,-7.747741,-16.303777,4635729103079604200.000000,0.126266,0.751391,-0.070096,-0.643860,0
-9.040410,-0.310405,-1.317240,-0.295570,0.044763,-0.219582,42.245765,18.017520,-1.392224,4635731787434164200.000000,0.427142,0.536328,0.508123,-0.521261,-9.494112,-0.002464,-2.398363,-0.157008,0.043098,0.022539,35.567668,5.554368,29.821903,4635727686976559100.000000,0.597411,0.164047,0.781419,-0.074649,-8.349416,2.872938,-1.643577,-1.663463,0.607580,-0.370779,42.559655,-7.360004,-16.170387,4635729103079604200.000000,0.130767,0.752185,-0.064255,-0.642642,0
-9.437968,-0.414475,-1.292253,-0.312447,0.019393,-0.209718,42.160331,18.257572,-1.399234,4635731787434164200.000000,0.427552,0.535223,0.509389,-0.520824,-9.527263,-0.131033,-2.475863,-0.087041,0.031525,0.028360,35.451529,5.554368,29.981382,4635727599304179700.000000,0.597463,0.163846,0.781448,-0.074374,-8.434181,3.002567,-1.508409,-1.801722,0.624223,-0.412472,42.796205,-6.960490,-15.945366,4635729103079604200.000000,0.135586,0.752913,-0.057899,-0.641394,0
-9.723443,-0.400535,-1.252167,-0.346982,-0.022113,-0.194259,42.078918,18.405300,-1.301574,4635731787434164200.000000,0.428160,0.533996,0.510621,-0.520378,-9.492883,-0.175381,-2.456942,0.007516,0.011624,0.031368,35.527006,5.570038,29.963475,4635727599304179700.000000,0.597515,0.163884,0.781396,-0.074412,-8.598173,3.093320,-1.428952,-1.946902,0.634924,-0.449894,43.071651,-6.722347,-15.718746,4635729103079604200.000000,0.140753,0.753542,-0.051027,-0.640124,0
-9.850217,-0.349965,-1.142867,-0.387682,-0.058444,-0.168266,42.086440,18.343041,-1.213740,4635731787434164200.000000,0.428991,0.532671,0.511817,-0.519877,-9.468469,-0.170699,-2.426019,0.089814,-0.005359,0.033700,35.610216,5.671154,29.830006,4635727599304179700.000000,0.597567,0.164130,0.781275,-0.074724,-8.775761,3.239590,-1.379664,-2.097500,0.647158,-0.481476,43.225734,-6.292717,-15.451761,4635729103079604200.000000,0.146299,0.754059,-0.043642,-0.638817,0
-9.821766,-0.261060,-1.049837,-0.409547,-0.051077,-0.135460,42.245116,18.494217,-1.323017,4635731787434164200.000000,0.429922,0.531391,0.512996,-0.519255,-9.453004,-0.025245,-2.468132,0.143859,-0.017303,0.034751,35.670033,5.810724,29.590746,4635727599304179700.000000,0.597622,0.164509,0.781107,-0.075217,-8.886304,3.146720,-1.373219,-2.235018,0.656871,-0.507150,43.179185,-5.741821,-15.175630,4635729103079604200.000000,0.152196,0.754452,-0.035800,-0.637461,0
-9.710760,-0.099502,-1.049261,-0.440933,-0.024426,-0.108860,42.385373,18.486732,-1.406270,4635731787434164200.000000,0.430919,0.530169,0.514229,-0.518459,-9.472945,0.156648,-2.478103,0.174622,-0.030512,0.025423,35.656612,5.779410,29.626533,4635727618977851400.000000,0.597695,0.164931,0.780901,-0.075843,-8.905646,2.666964,-1.361470,-2.335315,0.666907,-0.529600,43.092133,-5.391754,-15.124053,4635729050404018200.000000,0.158334,0.754732,-0.027609,-0.636041,0
-9.580503,0.120831,-1.038206,-0.460356,0.003585,-0.084492,42.160909,18.331480,-1.194684,4635731787434164200.000000,0.431950,0.529019,0.515498,-0.517512,-9.466238,0.301071,-2.473631,0.188655,-0.043508,0.012411,35.581137,5.624170,29.821837,4635727706678362100.000000,0.597796,0.165341,0.780668,-0.076555,-8.863035,2.158402,-1.330837,-2.395977,0.685026,-0.552535,43.277782,-4.998118,-15.137870,4635728995705421800.000000,0.164586,0.754939,-0.019170,-0.634517,0
-9.533982,0.352720,-1.049837,-0.506465,0.079205,-0.064805,42.094572,18.265576,-0.916704,4635731787434164200.000000,0.432962,0.527988,0.516959,-0.516261,-9.427376,0.540764,-2.431321,0.168897,-0.045629,-0.002846,35.511337,5.570025,29.963489,4635727706678362100.000000,0.597912,0.165652,0.780445,-0.077242,-8.868100,1.809473,-1.294448,-2.428766,0.705843,-0.572909,43.620263,-4.328827,-14.974810,4635728995705421800.000000,0.170869,0.755092,-0.010562,-0.632874,0
-9.532831,0.578929,-1.054442,-0.577585,0.146850,-0.057781,42.160341,18.587728,-0.935940,4635731787434164200.000000,0.433995,0.526986,0.518676,-0.514694,-9.383023,0.700120,-2.324908,0.119452,-0.037957,-0.023815,35.526983,5.655467,29.847958,4635727706678362100.000000,0.598030,0.165774,0.780272,-0.077815,-8.959069,1.600334,-1.275557,-2.440173,0.724062,-0.586311,43.733838,-3.739192,-14.658598,4635728995705421800.000000,0.177133,0.755195,-0.001867,-0.631111,0
-9.506689,0.687069,-1.149798,-0.640041,0.132834,-0.060421,42.072011,18.746543,-0.844732,4635731787434164200.000000,0.435186,0.525831,0.520502,-0.513024,-9.378716,0.563455,-2.297226,0.061534,-0.030585,-0.043431,35.625830,5.772187,29.688404,4635727706678362100.000000,0.598158,0.165690,0.780149,-0.078244,-9.105092,1.472273,-1.245854,-2.433383,0.739540,-0.591754,43.816028,-3.498236,-14.286156,4635728995705421800.000000,0.183339,0.755254,0.006840,-0.629231,0
-9.443936,0.756859,-1.199771,-0.713722,0.075286,-0.073137,41.932430,18.661674,-0.642398,4635731787434164200.000000,0.436631,0.524385,0.522405,-0.511339,-9.452998,0.385288,-2.296030,0.036094,-0.028840,-0.065380,35.739849,5.995030,29.706274,4635727706678362100.000000,0.598290,0.165472,0.780054,-0.078643,-9.270000,1.343986,-1.154654,-2.411621,0.755561,-0.589659,43.898759,-3.149383,-14.057645,4635728995705421800.000000,0.189460,0.755282,0.015496,-0.627228,0
-9.349149,0.752840,-1.277608,-0.808987,0.065747,-0.083617,41.935875,18.603358,-0.541295,4635731787434164200.000000,0.438276,0.522716,0.524510,-0.509481,-9.466248,0.553938,-2.266253,0.006256,-0.027082,-0.089163,35.641013,6.023620,29.803922,4635727706678362100.000000,0.598429,0.165103,0.779989,-0.079003,-9.428686,1.197977,-1.020851,-2.372831,0.771582,-0.583291,43.364144,-2.077910,-13.966213,4635728995705421800.000000,0.195452,0.755294,0.024042,-0.625101,0
-9.319391,0.662837,-1.453043,-0.908252,0.098838,-0.089974,42.009675,18.847450,-0.369860,4635731787434164200.000000,0.440045,0.520914,0.526893,-0.507340,-9.438554,0.630061,-2.362723,-0.037971,-0.022155,-0.109652,35.540345,5.854960,29.865871,4635727706678362100.000000,0.598575,0.164559,0.779965,-0.079267,-9.581431,0.979123,-0.868106,-2.313204,0.783940,-0.574220,42.620647,-0.802916,-13.730792,4635728995705421800.000000,0.201256,0.755303,0.032413,-0.622867,0
-9.430970,0.481441,-1.710750,-1.006871,0.085607,-0.095315,42.095124,19.076744,-0.186178,4635731787434164200.000000,0.442036,0.518881,0.529462,-0.505012,-9.461924,0.383940,-2.403813,-0.040199,-0.038765,-0.130235,35.670033,5.740898,29.750347,4635727706678362100.000000,0.598769,0.163938,0.779914,-0.079586,-9.721956,0.770420,-0.739563,-2.232734,0.786720,-0.560411,42.533652,-0.251041,-13.310356,4635728995705421800.000000,0.206820,0.755307,0.040532,-0.620559,0
-9.576873,0.336109,-1.735971,-1.112456,0.020208,-0.100107,42.177148,18.999519,0.017666,4635731787434164200.000000,0.444379,0.516493,0.532132,-0.502592,-9.530699,0.351784,-2.462613,-0.041967,-0.056037,-0.146543,35.654414,5.886582,29.588515,4635727706678362100.000000,0.599014,0.163253,0.779832,-0.079952,-9.826278,0.671861,-0.575792,-2.142471,0.778799,-0.538061,42.737438,0.020101,-12.942345,4635728995705421800.000000,0.212137,0.755297,0.048338,-0.618213,0
-9.707734,0.213465,-1.534714,-1.213652,-0.050140,-0.093847,42.184797,18.848230,0.396093,4635731787434164200.000000,0.447098,0.513767,0.534859,-0.500073,-9.572835,0.310572,-2.489131,-0.056313,-0.066144,-0.160337,35.582348,6.270398,29.578539,4635727706678362100.000000,0.599297,0.162484,0.779738,-0.080312,-9.875564,0.760819,-0.344064,-2.063749,0.770174,-0.511355,42.684878,0.675718,-12.763629,4635728995705421800.000000,0.217258,0.755270,0.055846,-0.615831,0
-9.762512,0.081473,-1.460341,-1.286550,-0.114540,-0.091041,42.099922,18.848230,0.761406,4635731787434164200.000000,0.450110,0.510760,0.537597,-0.497509,-9.587273,0.177596,-2.431504,-0.049032,-0.084796,-0.178690,35.587989,6.456539,29.578539,4635727706678362100.000000,0.599629,0.161669,0.779607,-0.080754,-9.917948,0.992747,-0.123890,-1.997508,0.759612,-0.485702,42.747375,1.302560,-12.588330,4635728995705421800.000000,0.222218,0.755216,0.063090,-0.613423,0
-9.688699,0.001705,-1.364387,-1.342863,-0.118538,-0.096084,42.030090,18.848230,0.854518,4635731787434164200.000000,0.453224,0.507609,0.540438,-0.494821,-9.598309,0.243196,-2.443710,-0.048671,-0.108087,-0.196549,35.673431,6.365468,29.614209,4635727706678362100.000000,0.600029,0.160788,0.779429,-0.081258,-9.984966,1.140817,0.023495,-1.933931,0.742524,-0.462709,43.268346,1.243996,-12.271890,4635728995705421800.000000,0.227023,0.755121,0.070079,-0.611017,0
-9.603808,0.038901,-1.317588,-1.392124,-0.095585,-0.094616,42.030090,18.852219,0.859077,4635731787434164200.000000,0.456374,0.504400,0.543399,-0.491957,-9.533883,0.422900,-2.453688,-0.078102,-0.120709,-0.209662,35.743279,6.225776,29.758258,4635727706678362100.000000,0.600484,0.159786,0.779238,-0.081707,-10.034257,1.177900,0.103192,-1.857825,0.724908,-0.445538,44.006823,0.677121,-11.905647,4635728995705421800.000000,0.231620,0.755001,0.076800,-0.608628,0
-9.533414,0.085452,-1.557160,-1.422228,-0.083638,-0.084457,42.034069,18.937662,0.965249,4635731787434164200.000000,0.459562,0.501161,0.546402,-0.488963,-9.417427,0.506023,-2.460376,-0.119373,-0.133240,-0.229086,35.743279,6.225776,29.634899,4635727706678362100.000000,0.601000,0.158613,0.779041,-0.082078,-10.016749,1.208073,0.134281,-1.766514,0.704655,-0.426432,44.619679,0.485997,-11.539446,4635729048381250600.000000,0.235967,0.754870,0.083205,-0.606273,0
-9.524042,0.086019,-1.701365,-1.457050,-0.067667,-0.062352,42.115540,19.015733,1.245989,4635731787434164200.000000,0.462813,0.497917,0.549440,-0.485796,-9.414231,0.476089,-2.483626,-0.158111,-0.151015,-0.250353,35.743279,6.225776,29.377602,4635727706678362100.000000,0.601589,0.157268,0.778826,-0.082389,-9.985656,1.208999,0.188167,-1.668901,0.676988,-0.398181,44.862206,0.837885,-11.173268,4635729103079604200.000000,0.240073,0.754728,0.089244,-0.603975,0
-9.571173,0.094250,-1.795625,-1.504674,-0.053109,-0.025411,42.119517,18.949868,1.522810,4635731787434164200.000000,0.466184,0.494673,0.552505,-0.482400,-9.533982,0.516196,-2.442547,-0.197844,-0.173532,-0.275209,35.714312,6.241373,29.315593,4635727706678362100.000000,0.602267,0.155734,0.778582,-0.082647,-9.937758,1.112271,0.333957,-1.552194,0.641779,-0.365109,44.826283,1.152086,-10.890867,4635729103079604200.000000,0.243894,0.754585,0.094846,-0.601766,0
-9.579419,0.015933,-1.817207,-1.542376,-0.046355,0.001909,42.200993,19.027383,1.713560,4635731787434164200.000000,0.469650,0.491411,0.555578,-0.478830,-9.520615,0.713645,-2.379284,-0.259608,-0.181102,-0.296376,35.568985,6.324595,29.393200,4635727706678362100.000000,0.603001,0.153974,0.778352,-0.082763,-9.798199,0.935858,0.505084,-1.402506,0.606492,-0.328290,44.753043,1.268867,-10.701547,4635729103079604200.000000,0.247338,0.754483,0.099918,-0.599662,0
-9.504477,-0.166048,-1.780584,-1.564313,-0.031925,0.019276,42.194206,18.942497,1.820269,4635731787434164200.000000,0.473138,0.488152,0.558662,-0.475126,-9.465191,0.744493,-2.339447,-0.328735,-0.184890,-0.316864,35.528077,6.386699,29.401034,4635727706678362100.000000,0.603780,0.151972,0.778147,-0.082707,-9.651014,0.746303,0.633842,-1.214350,0.572857,-0.285126,44.751633,1.461822,-10.470561,4635728997779974100.000000,0.250303,0.754481,0.104347,-0.597677,0
-9.399133,-0.323061,-1.746792,-1.576064,-0.006634,0.019600,42.047135,18.872646,2.112711,4635731787434164200.000000,0.476570,0.484897,0.561793,-0.471322,-9.496285,0.469257,-2.444858,-0.386884,-0.194027,-0.337447,35.688996,6.381094,29.483105,4635727706678362100.000000,0.604616,0.149753,0.777949,-0.082521,-9.571076,0.623285,0.791359,-0.987750,0.541295,-0.239154,44.866778,1.857030,-10.195776,4635728888331239400.000000,0.252676,0.754636,0.108032,-0.595826,0
-9.388624,-0.441728,-1.771770,-1.588307,0.010236,0.004500,41.895809,18.869254,2.394013,4635731787434164200.000000,0.479934,0.481591,0.564988,-0.467464,-9.546189,0.210833,-2.505825,-0.421834,-0.214219,-0.351421,35.842078,6.342377,29.457486,4635727706678362100.000000,0.605529,0.147392,0.777716,-0.082268,-9.516260,0.687714,1.017078,-0.733675,0.517169,-0.201121,45.025473,2.135588,-9.969114,4635728888331239400.000000,0.254350,0.755000,0.110940,-0.594115,0
-9.415856,-0.492808,-1.808388,-1.610439,0.000032,-0.013509,41.899757,18.795452,2.682445,4635731787434164200.000000,0.483307,0.478154,0.568215,-0.463589,-9.550637,0.139767,-2.463671,-0.447948,-0.228199,-0.352199,35.886405,6.482131,29.297768,4635727706678362100.000000,0.606499,0.144958,0.777452,-0.081941,-9.491138,1.062809,1.243019,-0.491371,0.498467,-0.173268,45.070445,2.172918,-9.827909,4635728888331239400.000000,0.255336,0.755579,0.113141,-0.592539,0
-9.503564,-0.592723,-1.843882,-1.625820,-0.022202,-0.028512,41.985206,18.714513,2.886224,4635731787434164200.000000,0.486709,0.474584,0.571430,-0.459731,-9.581729,-0.040050,-2.444788,-0.458525,-0.238592,-0.356667,35.847671,6.450981,29.315568,4635727706678362100.000000,0.607502,0.142477,0.777164,-0.081596,-9.545235,1.695889,1.504629,-0.309006,0.472456,-0.149771,45.033112,2.208824,-9.778130,4635728888331239400.000000,0.255816,0.756294,0.114789,-0.591102,0
-9.637845,-0.738648,-1.856653,-1.627709,-0.039571,-0.044090,42.066711,18.734052,3.269165,4635731787434164200.000000,0.490101,0.470914,0.574618,-0.455912,-9.633865,-0.237521,-2.393741,-0.452307,-0.252670,-0.360839,36.018556,6.297886,29.362075,4635727706678362100.000000,0.608540,0.139993,0.776835,-0.081290,-9.708707,2.272477,1.935452,-0.179537,0.415240,-0.148786,45.110898,2.210261,-9.736245,4635728888331239400.000000,0.255915,0.757002,0.116055,-0.589904,0
-9.770435,-0.872366,-1.878248,-1.624159,-0.039652,-0.050450,42.055995,18.901008,3.736230,4635731787434164200.000000,0.493451,0.467209,0.577785,-0.452091,-9.632735,-0.324060,-2.354934,-0.434243,-0.265873,-0.358604,36.171664,6.266877,29.176755,4635727706678362100.000000,0.609607,0.137557,0.776460,-0.081043,-10.676625,2.328754,3.119282,-0.053140,0.296888,-0.162316,45.155905,2.208819,-9.501204,4635728888331239400.000000,0.255639,0.757546,0.116927,-0.589153,0
-9.867529,-0.989928,-1.844446,-1.613774,-0.019604,-0.055889,41.834770,18.974616,4.004592,4635731787434164200.000000,0.496697,0.463526,0.580956,-0.448247,-9.578364,-0.360686,-2.422649,-0.401806,-0.272966,-0.351905,36.216005,6.412246,29.032565,4635727706678362100.000000,0.610675,0.135221,0.776047,-0.080888,-11.500575,3.207839,4.124661,0.052148,0.214216,-0.134652,44.735611,2.545342,-9.062698,4635728888331239400.000000,0.255138,0.758011,0.117366,-0.588685,0
-9.953534,-1.015465,-1.870545,-1.610339,-0.005341,-0.063365,41.838708,18.800358,4.021299,4635731787434164200.000000,0.499859,0.459838,0.584136,-0.444381,-9.576183,-0.386190,-2.511411,-0.368599,-0.288697,-0.351424,36.117220,6.466568,29.120236,4635727687122992100.000000,0.611770,0.132965,0.775578,-0.080847,-10.570929,4.715755,3.415688,0.088154,0.201548,-0.092618,43.900593,3.227424,-8.765889,4635728888331239400.000000,0.254631,0.758503,0.117570,-0.588229,0
-10.049505,-1.060919,-1.928770,-1.623831,-0.006030,-0.071088,41.920223,18.564086,4.139039,4635731787434164200.000000,0.503009,0.456080,0.587326,-0.440479,-9.673825,-0.339569,-2.566895,-0.344623,-0.308309,-0.362200,36.002974,6.367805,29.166793,4635727638377453600.000000,0.612908,0.130728,0.775052,-0.080921,-9.411033,4.655010,2.055806,0.040981,0.182300,-0.086937,43.356417,3.768926,-8.901531,4635728888331239400.000000,0.254296,0.758901,0.117852,-0.587804,0
-10.104364,-1.036507,-1.928209,-1.629171,-0.022209,-0.084395,41.913491,18.494217,4.424825,4635731787434164200.000000,0.506157,0.452224,0.590488,-0.436603,-9.753716,-0.188621,-2.647911,-0.349681,-0.329091,-0.370554,36.103989,6.237983,28.963662,4635727814052544500.000000,0.614107,0.128443,0.774475,-0.081010,-8.904060,3.581972,-0.006228,0.089380,0.202352,-0.102874,43.382681,3.853016,-9.046659,4635728888331239400.000000,0.253759,0.759390,0.118088,-0.587357,0
-10.030008,-1.013774,-1.916562,-1.634119,-0.062932,-0.107990,41.769817,18.494777,4.810942,4635731787434164200.000000,0.509347,0.448200,0.593591,-0.432819,-9.753716,-0.055496,-2.713391,-0.380649,-0.345305,-0.386478,36.241559,6.269092,28.724020,4635727814052544500.000000,0.615365,0.126021,0.773870,-0.081049,-8.290229,1.675315,-2.902216,0.392629,0.270011,-0.131016,43.513167,3.813952,-8.859301,4635728888331239400.000000,0.252159,0.760350,0.117742,-0.586873,0
-9.936266,-1.024861,-1.910952,-1.630571,-0.083119,-0.133579,41.692770,18.502497,5.107878,4635731787434164200.000000,0.512508,0.444060,0.596664,-0.429114,-9.758157,-0.107658,-2.781067,-0.367241,-0.355112,-0.399101,36.233792,6.393343,28.724020,4635727794520595500.000000,0.616638,0.123588,0.773237,-0.081167,-7.850598,-0.592050,-4.661781,0.725964,0.334857,-0.200295,43.561252,3.857539,-8.674227,4635728888331239400.000000,0.249299,0.761780,0.116868,-0.586416,0
-9.926857,-1.016013,-1.785535,-1.620331,-0.079386,-0.157850,41.793217,18.421531,5.486265,4635731787434164200.000000,0.515570,0.439864,0.599743,-0.425459,-9.780349,-0.158693,-2.779959,-0.285874,-0.380067,-0.425706,36.257100,6.354510,28.670748,4635727706678362100.000000,0.617935,0.121269,0.772520,-0.081628,-8.278676,-1.250602,-5.298794,0.932961,0.403438,-0.299196,43.963638,3.480805,-8.630634,4635728888331239400.000000,0.245503,0.763533,0.115873,-0.585935,0
-9.979604,-1.079847,-1.581824,-1.619802,-0.088331,-0.175666,41.948554,18.437097,5.851823,4635731787434164200.000000,0.518597,0.435585,0.602806,-0.421839,-9.805878,0.163160,-2.819910,-0.215181,-0.426970,-0.475522,36.345885,6.525419,28.362220,4635727706678362100.000000,0.619325,0.118955,0.771677,-0.082467,-9.291583,-0.880925,-5.955224,1.029433,0.463751,-0.394757,44.731916,2.795492,-8.636613,4635728888331239400.000000,0.241132,0.765469,0.115005,-0.585394,0
-10.112196,-1.192976,-1.196737,-1.630970,-0.129119,-0.186493,42.022834,18.521980,5.948913,4635731787434164200.000000,0.521698,0.431162,0.605790,-0.418269,-9.911257,0.689079,-2.828777,-0.147620,-0.477451,-0.527455,36.491237,6.694060,28.068130,4635727706678362100.000000,0.620820,0.116630,0.770700,-0.083681,-9.892472,-0.135601,-5.511117,0.960906,0.425238,-0.474690,45.214720,2.639771,-8.559143,4635728888331239400.000000,0.236797,0.767187,0.114518,-0.585010,0
-10.204270,-1.113569,-0.686310,-1.652189,-0.196566,-0.201115,41.860204,18.592435,6.043886,4635731787434164200.000000,0.524954,0.426516,0.608658,-0.414780,-10.075544,1.075299,-2.904227,-0.059340,-0.527560,-0.607953,36.574480,6.823938,28.155809,4635727706678362100.000000,0.622397,0.114256,0.769593,-0.085411,-10.272371,1.643139,-3.329283,0.817816,0.344927,-0.469684,45.331317,2.837344,-8.376283,4635728888331239400.000000,0.232965,0.768556,0.114283,-0.584798,0
-10.170927,-0.900485,-0.489412,-1.670931,-0.264565,-0.231556,41.627805,18.596268,6.332365,4635731787434164200.000000,0.528333,0.421610,0.611433,-0.411409,-10.099958,1.558019,-3.068493,-0.003885,-0.591452,-0.736515,36.649940,6.854982,28.164767,4635727706678362100.000000,0.624097,0.111589,0.768351,-0.087680,-10.655551,3.118293,-1.433626,0.726457,0.318919,-0.398579,45.416763,2.767370,-8.228797,4635728888331239400.000000,0.229607,0.769796,0.114016,-0.584547,0
-9.948403,-0.568653,-0.508804,-1.701663,-0.277559,-0.273996,41.650617,18.425924,6.527684,4635731787434164200.000000,0.531697,0.416482,0.614274,-0.408054,-10.124368,1.984245,-3.081827,-0.006788,-0.652523,-0.858552,36.748667,7.056870,27.809643,4635727726163450900.000000,0.625937,0.108500,0.766994,-0.090283,-10.455366,2.928721,-0.974311,0.689589,0.312489,-0.380451,45.143589,3.025557,-8.178960,4635728888331239400.000000,0.226412,0.770984,0.113773,-0.584276,0
-9.669309,-0.191900,-0.425027,-1.726811,-0.227943,-0.333281,41.876347,18.282296,6.723001,4635731787434164200.000000,0.534845,0.411205,0.617336,-0.404657,-10.133270,1.978758,-3.051851,-0.032620,-0.707582,-0.988488,36.920679,7.396494,27.649769,4635727814052544500.000000,0.627901,0.104905,0.765543,-0.093166,-9.863977,2.087607,-1.994851,0.666903,0.306625,-0.414607,44.371134,3.943984,-8.178960,4635728888331239400.000000,0.223205,0.772111,0.113689,-0.584037,0
-9.426862,0.146525,-0.376760,-1.740984,-0.191195,-0.403331,41.713772,18.449283,6.922191,4635731787434164200.000000,0.537771,0.405755,0.620587,-0.401295,-10.105477,1.759066,-3.023040,-0.049046,-0.776620,-1.126470,37.139315,7.697276,27.614310,4635727814052544500.000000,0.630018,0.100797,0.763955,-0.096384,-9.349021,1.698634,-3.581288,0.600791,0.259962,-0.432077,43.916005,4.605846,-7.945943,4635728888331239400.000000,0.220188,0.773046,0.113777,-0.583927,0
-9.221598,0.406721,-0.351775,-1.738896,-0.170415,-0.463184,41.473556,18.530838,7.194591,4635731787434164200.000000,0.540506,0.400163,0.623945,-0.398015,-10.225324,1.473798,-2.851070,-0.013714,-0.855069,-1.266478,37.238193,7.912463,27.419011,4635727814052544500.000000,0.632289,0.096301,0.762177,-0.100111,-9.077630,1.402285,-3.967396,0.498891,0.184379,-0.436236,44.280681,4.425562,-7.661053,4635728888331239400.000000,0.217522,0.773696,0.114057,-0.584011,0
-9.062349,0.490511,-0.567631,-1.737586,-0.208718,-0.500814,41.329257,18.538590,7.296125,4635731787434164200.000000,0.543241,0.394389,0.627239,-0.394864,-10.348477,1.439287,-2.605846,0.037187,-0.937418,-1.408836,37.065076,8.387304,27.201549,4635727794572131300.000000,0.634712,0.091448,0.760183,-0.104402,-8.925427,1.387236,-3.112867,0.391031,0.148041,-0.449509,44.971307,3.815192,-7.713004,4635728888331239400.000000,0.215187,0.774148,0.114609,-0.584169,0
-8.883733,0.549276,-0.703002,-1.731999,-0.291333,-0.521396,41.477441,18.705608,7.479215,4635731787434164200.000000,0.546114,0.388413,0.630332,-0.391888,-10.549278,1.610238,-2.280769,0.043994,-1.003062,-1.537488,36.957245,9.089825,26.870905,4635727706678362100.000000,0.637248,0.086173,0.758018,-0.109074,-8.802320,1.814210,-2.066986,0.279473,0.154630,-0.457713,45.295701,3.581178,-7.908311,4635728888331239400.000000,0.213187,0.774508,0.115464,-0.584257,0
-8.531981,0.815079,-0.856175,-1.744039,-0.425828,-0.548728,41.397018,18.787193,7.667298,4635731787434164200.000000,0.549279,0.382093,0.633142,-0.389137,-10.803483,1.576103,-1.885645,0.023242,-1.050852,-1.658492,37.189181,9.584818,26.480277,4635727706678362100.000000,0.639846,0.080433,0.755731,-0.114012,-8.800755,1.763864,-1.455550,0.200723,0.188583,-0.455077,45.205839,3.847393,-7.960270,4635728888331239400.000000,0.211429,0.774879,0.116532,-0.584192,0
-7.964293,1.024840,-0.872317,-1.762006,-0.528254,-0.590000,41.175571,18.791069,7.951449,4635731787434164200.000000,0.552639,0.375429,0.635773,-0.386569,-10.922268,1.101195,-1.642429,-0.055948,-1.067667,-1.752689,37.392344,10.046297,26.071972,4635727706678362100.000000,0.642431,0.074171,0.753413,-0.118949,-8.891920,1.268029,-1.169066,0.173699,0.237627,-0.453417,45.160375,4.118304,-7.778984,4635728888331239400.000000,0.209737,0.775342,0.117704,-0.583952,0
-7.275791,1.282790,-0.475538,-1.777864,-0.464851,-0.646302,41.182732,18.883663,8.052390,4635731787434164200.000000,0.555726,0.368655,0.638618,-0.383965,-11.026433,0.651488,-1.641429,-0.193556,-1.073452,-1.822917,37.450099,10.686770,25.616837,4635727706678362100.000000,0.644992,0.067312,0.751112,-0.123634,-9.007745,0.978174,-1.019186,0.176060,0.292073,-0.446125,45.281648,4.241150,-7.504481,4635728888331239400.000000,0.208027,0.775940,0.118894,-0.583529,0
-6.759596,1.572464,-0.473797,-1.835063,-0.279723,-0.720094,41.327105,19.124505,8.237067,4635731787434164200.000000,0.558248,0.361823,0.642050,-0.381070,-11.805072,1.134398,-1.218400,-0.361228,-1.179165,-1.869903,37.466647,11.171731,25.313900,4635727706678362100.000000,0.647850,0.059796,0.748563,-0.127939,-8.998447,0.777954,-1.150815,0.226587,0.349180,-0.443165,45.129837,4.356452,-7.307324,4635728888331239400.000000,0.206130,0.776718,0.120001,-0.582940,0
-6.702358,1.792221,-0.678092,-1.883564,-0.091688,-0.818471,41.168393,19.299293,8.703820,4635731787434164200.000000,0.560141,0.354884,0.646098,-0.377963,-14.646408,4.046045,0.587224,-0.750274,-1.426248,-1.943921,37.615335,11.573486,25.003259,4635727726124790800.000000,0.651469,0.050861,0.745497,-0.131279,-8.881814,0.664906,-1.329546,0.280168,0.409496,-0.449145,44.492528,4.879122,-7.245226,4635728888331239400.000000,0.204013,0.777681,0.121049,-0.582184,0
-6.995765,2.006972,-0.558786,-1.964341,-0.000900,-0.918383,41.009715,19.551213,8.964640,4635731787434164200.000000,0.561704,0.347603,0.650579,-0.374710,-17.262147,5.052173,2.917745,-1.561041,-1.533867,-2.048297,37.760773,11.884350,24.647984,4635727814052544500.000000,0.655448,0.039334,0.742505,-0.132389,-8.987420,0.600029,-1.707809,0.271207,0.453683,-0.448123,44.140637,6.075232,-7.167345,4635728993360557100.000000,0.201903,0.778737,0.122152,-0.581276,0
-7.566669,2.108025,-0.513723,-2.056900,-0.074893,-1.007577,40.843856,19.710461,9.074968,4635731787434164200.000000,0.563408,0.339717,0.655100,-0.371492,-15.714146,2.724670,2.273681,-2.542792,-1.385376,-1.951231,37.843997,12.024292,24.505724,4635727814052544500.000000,0.659057,0.025501,0.740308,-0.130148,-9.412012,0.548533,-2.415037,0.203998,0.465213,-0.453277,44.507496,7.033168,-7.008916,4635729103079604200.000000,0.199991,0.779757,0.123444,-0.580296,0
-8.340138,2.013211,-0.808352,-2.096276,-0.290754,-1.083383,40.526467,19.873653,9.453947,4635731787434164200.000000,0.565584,0.331163,0.659219,-0.368615,-13.688918,1.197550,0.351805,-3.113626,-1.306427,-1.952110,37.919454,12.039758,24.550360,4635727814052544500.000000,0.662321,0.010134,0.738461,-0.126110,-9.967317,0.806860,-2.956696,0.097939,0.451561,-0.454625,45.040520,6.480749,-6.963390,4635729103079604200.000000,0.198425,0.780650,0.124985,-0.579303,0
-9.210604,1.721367,-1.115940,-2.133166,-0.501228,-1.109010,40.226688,19.874203,9.830805,4635731787434164200.000000,0.568289,0.322089,0.662864,-0.365948,-13.538738,0.007683,0.253404,-3.254850,-1.319945,-2.029278,37.989441,12.109744,24.339560,4635727814052544500.000000,0.665406,-0.005871,0.736452,-0.121816,-10.469127,1.359991,-3.190761,-0.042510,0.419682,-0.442876,45.276992,5.228986,-6.995110,4635729103079604200.000000,0.197359,0.781350,0.126801,-0.578328,0
-10.164869,1.453381,-0.953974,-2.183782,-0.545904,-1.039833,40.289515,19.892984,9.921179,4635731787434164200.000000,0.571226,0.312982,0.666314,-0.362999,-12.625428,0.649644,-0.161944,-3.418284,-1.297207,-2.045174,37.976193,12.063377,24.091958,4635727814052544500.000000,0.668207,-0.022365,0.734372,-0.117029,-10.711594,1.804283,-3.414588,-0.202327,0.371803,-0.427993,45.325284,4.981497,-6.851302,4635729103079604200.000000,0.196872,0.781807,0.128913,-0.577408,0
-11.178063,1.203590,-0.736289,-2.267047,-0.399751,-0.882821,40.127508,20.059385,10.124207,4635731787434164200.000000,0.574038,0.304300,0.669959,-0.359217,-11.714784,3.449953,-0.397626,-3.873634,-1.191613,-2.089725,37.933868,11.793742,24.049518,4635727814052544500.000000,0.670394,-0.040205,0.732562,-0.110945,-10.509456,1.725556,-3.761806,-0.342552,0.313628,-0.416625,45.362709,5.415775,-6.529035,4635729103079604200.000000,0.196898,0.782010,0.131278,-0.576591,0
-12.459919,1.102492,-0.829372,-2.371750,-0.146577,-0.679599,39.906002,20.367599,10.495812,4635731787434164200.000000,0.576514,0.296282,0.674033,-0.354300,-10.314128,4.851680,-1.394860,-4.647486,-1.020636,-2.138077,38.042567,11.495077,24.254826,4635727775199451100.000000,0.671623,-0.060258,0.731274,-0.102616,-10.129429,1.472212,-3.949231,-0.453442,0.251204,-0.417052,45.326901,5.651215,-6.287897,4635729103079604200.000000,0.197317,0.781967,0.133859,-0.575913,0
-14.002211,1.189049,-1.089591,-2.476405,0.052401,-0.446718,39.909837,20.223832,10.979230,4635731787434164200.000000,0.578837,0.288925,0.678377,-0.348246,-9.296597,5.169633,-2.616223,-5.522370,-0.837514,-2.105332,38.143866,11.303311,24.450110,4635727599304179700.000000,0.671715,-0.082549,0.730485,-0.091522,-10.021189,1.445896,-3.775902,-0.529704,0.183440,-0.420304,45.205921,5.760260,-6.237983,4635729103079604200.000000,0.198011,0.781690,0.136578,-0.575411,0
-15.335951,1.284696,-1.436277,-2.556762,0.016155,-0.214366,39.992001,20.142762,11.353791,4635731787434164200.000000,0.581625,0.281945,0.682391,-0.341411,-9.137123,5.778383,-3.131451,-6.257821,-0.676834,-2.100342,37.974121,10.901877,24.665310,4635727599304179700.000000,0.670597,-0.106764,0.729926,-0.078169,-10.166575,1.310027,-3.398315,-0.585790,0.122866,-0.404143,45.124529,5.990274,-6.058981,4635729103079604200.000000,0.198959,0.781224,0.139328,-0.575058,0
-15.910446,1.067336,-1.876474,-2.619161,-0.319559,0.006086,40.000384,20.143496,11.655510,4635731787434164200.000000,0.585680,0.274931,0.685338,-0.334220,-8.669018,5.817929,-3.438812,-6.781273,-0.575294,-2.123079,37.767646,10.170969,25.021208,4635727599304179700.000000,0.668370,-0.132389,0.729213,-0.063270,-10.248528,0.711702,-3.054880,-0.622537,0.089893,-0.367877,45.124804,6.265885,-5.824033,4635729103079604200.000000,0.200129,0.780663,0.142021,-0.574755,0
-15.416855,0.639579,-2.059236,-2.667337,-0.744834,0.188405,39.934231,19.888473,12.135577,4635731787434164200.000000,0.591124,0.267805,0.686972,-0.326990,-8.114987,5.220374,-3.749580,-7.107672,-0.535747,-2.121304,37.682927,9.154542,25.593915,4635727599304179700.000000,0.665221,-0.158785,0.728029,-0.047339,-10.098568,0.041883,-2.905639,-0.590562,0.085901,-0.336211,45.076805,6.497812,-5.917268,4635729103079604200.000000,0.201271,0.780131,0.144530,-0.574454,0
-14.007575,0.200611,-1.966672,-2.694921,-0.977978,0.339924,40.019694,19.400124,12.428229,4635731787434164200.000000,0.597387,0.260687,0.687805,-0.319523,-7.783050,4.207080,-4.023714,-7.226269,-0.522593,-2.061341,37.847359,8.129906,26.051462,4635727599304179700.000000,0.661312,-0.185170,0.726242,-0.030846,-9.830005,-0.141631,-2.845432,-0.497330,0.087115,-0.314775,45.033112,6.580621,-6.108836,4635729103079604200.000000,0.202158,0.779687,0.146746,-0.574183,0
-12.239675,-0.218969,-1.723098,-2.716891,-0.911294,0.463595,40.105133,18.915157,12.457000,4635731787434164200.000000,0.603558,0.253918,0.688600,-0.311566,-7.610652,3.323516,-4.261263,-7.154084,-0.553016,-1.966205,37.825454,7.382992,26.241356,4635727599304179700.000000,0.656912,-0.210892,0.723732,-0.014257,-9.603210,-0.001948,-2.711992,-0.397901,0.089081,-0.297662,45.152403,6.543168,-6.021311,4635729103079604200.000000,0.202760,0.779338,0.148671,-0.573949,0
-10.805386,-0.457902,-1.505316,-2.705260,-0.651525,0.558005,40.191120,18.496889,12.587215,4635731787434164200.000000,0.609005,0.247748,0.689836,-0.303085,-7.717118,2.525721,-4.435696,-6.944391,-0.643251,-1.840221,37.626607,6.582134,26.351209,4635727599304179700.000000,0.652357,-0.235469,0.720403,0.002137,-9.342581,0.180873,-2.648447,-0.314322,0.098693,-0.295730,45.235513,6.698227,-5.788548,4635729103079604200.000000,0.203088,0.779081,0.150398,-0.573733,0
-10.049638,-0.318703,-1.597314,-2.673355,-0.394891,0.614261,40.295873,18.005272,12.896790,4635731787434164200.000000,0.613666,0.242109,0.691531,-0.294248,-7.823932,1.716702,-4.413835,-6.637948,-0.780022,-1.680339,37.637276,5.552557,26.447845,4635727599304179700.000000,0.647941,-0.258529,0.716244,0.018178,-9.030576,0.471635,-2.792712,-0.246927,0.104654,-0.318465,45.114269,6.973886,-5.640934,4635729103079604200.000000,0.203137,0.778878,0.152043,-0.573557,0
-9.853001,-0.071899,-1.825950,-2.645375,-0.324926,0.638041,40.555423,17.447110,13.290870,4635731777897810900.000000,0.618044,0.236662,0.693257,-0.285320,-7.726432,1.000484,-4.177467,-6.270788,-0.941711,-1.494585,37.962159,4.423628,26.446995,4635727599304179700.000000,0.643877,-0.279829,0.711320,0.033786,-8.892953,0.957671,-2.965280,-0.209479,0.094266,-0.359925,44.997328,7.086538,-5.549244,4635729103079604200.000000,0.202970,0.778654,0.153724,-0.573472,0
-9.889627,0.230060,-1.978143,-2.635808,-0.452814,0.620400,40.877997,16.962019,13.498420,4635731572685799400.000000,0.622678,0.231003,0.694569,-0.276555,-7.545368,0.504625,-3.927752,-5.880549,-1.105503,-1.296600,38.453968,3.509850,26.258487,4635727599304179700.000000,0.640273,-0.299278,0.705754,0.048935,-9.024406,1.442195,-2.878095,-0.240536,0.071292,-0.409078,45.031413,7.163767,-5.505539,4635729103079604200.000000,0.202800,0.778314,0.155620,-0.573482,0
-9.922445,0.457108,-1.986003,-2.628024,-0.640138,0.566682,41.037486,16.540449,13.702684,4635731572685799400.000000,0.627700,0.224961,0.695348,-0.268096,-7.515162,-0.061456,-3.710242,-5.431879,-1.272591,-1.106681,38.782529,2.920745,25.954722,4635727599304179700.000000,0.637287,-0.316756,0.699646,0.063452,-9.286724,1.755039,-2.704647,-0.328870,0.053556,-0.459753,45.142129,7.364482,-5.553238,4635729103079604200.000000,0.202804,0.777821,0.157876,-0.573533,0
-9.873079,0.579710,-1.891888,-2.637327,-0.761684,0.482522,40.956379,15.985477,13.835866,4635731572685799400.000000,0.632903,0.218483,0.695807,-0.259908,-7.649238,-0.467083,-3.559959,-4.929347,-1.444188,-0.915701,38.993849,2.199938,25.508472,4635727599304179700.000000,0.635080,-0.332135,0.693108,0.077206,-9.495655,2.070712,-2.721114,-0.431406,0.034479,-0.511071,45.179600,7.560639,-5.609160,4635729103079604200.000000,0.203029,0.777157,0.160526,-0.573617,0
-9.814753,0.707487,-1.618706,-2.663959,-0.761497,0.379696,40.978885,15.570967,13.945733,4635731572685799400.000000,0.637930,0.211606,0.696295,-0.251878,-7.873551,-0.530528,-3.669806,-4.452997,-1.602073,-0.721188,38.989010,1.245288,25.142314,4635727599304179700.000000,0.633645,-0.345495,0.686276,0.090285,-9.636174,2.294420,-2.800885,-0.541766,0.005194,-0.551336,45.137873,7.713365,-5.520032,4635729103079604200.000000,0.203531,0.776296,0.163545,-0.573753,0
-9.821796,0.693113,-1.519136,-2.711266,-0.712100,0.271363,41.215985,15.164336,14.056140,4635731572685799400.000000,0.642651,0.204310,0.696965,-0.243921,-8.023248,-0.529108,-3.775283,-3.995400,-1.745063,-0.554503,39.254760,0.546771,24.758453,4635727599304179700.000000,0.632979,-0.356991,0.679230,0.102670,-9.734690,2.075011,-2.963257,-0.669197,-0.023224,-0.580747,45.016656,7.865815,-5.372400,4635729103079604200.000000,0.204391,0.775230,0.166939,-0.573911,0
-9.982051,0.640699,-1.636330,-2.741855,-0.682654,0.177883,41.301409,14.679434,14.169569,4635731572685799400.000000,0.647126,0.196660,0.697729,-0.236067,-8.234176,-0.767004,-3.862933,-3.542844,-1.865203,-0.396129,39.829700,0.045285,24.276981,4635727599304179700.000000,0.633060,-0.366683,0.672090,0.114341,-9.688450,1.568607,-3.082802,-0.802775,-0.043071,-0.604344,44.893735,8.137721,-5.328387,4635729103079604200.000000,0.205636,0.773974,0.170709,-0.574053,0
-10.179521,0.774443,-1.644773,-2.764098,-0.712699,0.119619,41.394390,14.271907,14.108154,4635731572685799400.000000,0.651555,0.188722,0.698384,-0.228297,-8.288522,-1.261760,-3.975975,-3.148866,-1.968265,-0.176124,40.295199,-0.593161,23.682513,4635727599304179700.000000,0.633758,-0.374576,0.665029,0.125617,-9.517857,1.210865,-2.903194,-0.917955,-0.062219,-0.623569,44.808294,8.486605,-5.239308,4635729103079604200.000000,0.207214,0.772544,0.174798,-0.574180,0
-10.417228,0.897609,-1.570982,-2.783296,-0.816526,0.096746,41.642688,14.027733,14.299721,4635731572685799400.000000,0.656184,0.180538,0.698694,-0.220582,-7.779450,-1.174032,-4.123904,-2.913190,-2.044442,0.089818,40.519102,-1.507199,22.918071,4635727599304179700.000000,0.634748,-0.380985,0.658154,0.137035,-9.441991,0.991701,-2.603368,-1.004264,-0.077352,-0.629762,44.764549,8.720304,-5.097606,4635729103079604200.000000,0.209061,0.770982,0.179097,-0.574286,0
-10.510037,1.039780,-1.488228,-2.825184,-0.945634,0.111713,41.709471,13.776088,14.405273,4635731572685799400.000000,0.661131,0.172136,0.698573,-0.212768,-7.236792,-0.615466,-4.072126,-2.839886,-2.090730,0.306208,40.901680,-2.034757,22.063589,4635727599304179700.000000,0.635717,-0.386496,0.651401,0.148869,-9.478612,0.622449,-2.400358,-1.058648,-0.085871,-0.618115,44.758591,8.956445,-5.149192,4635729103079604200.000000,0.211109,0.769341,0.183478,-0.574354,0
-10.490324,1.088067,-1.465961,-2.871567,-1.022734,0.150631,41.650177,13.354114,14.414263,4635731572685799400.000000,0.666263,0.163622,0.698144,-0.204733,-7.316828,-0.274438,-3.833637,-2.857058,-2.100962,0.445024,41.427478,-2.398214,21.211416,4635727599304179700.000000,0.636458,-0.391585,0.644692,0.161103,-9.473534,-0.122209,-2.510308,-1.049070,-0.089229,-0.600010,44.668950,9.267842,-5.344487,4635729103079604200.000000,0.213166,0.767694,0.187771,-0.574411,0
-10.299707,1.120400,-1.479652,-2.904399,-1.032419,0.199109,41.901832,12.787872,14.360732,4635731572685799400.000000,0.671375,0.155121,0.697569,-0.196442,-7.760244,-0.138676,-3.569448,-2.886220,-2.090323,0.545096,41.973931,-3.015949,20.369041,4635727618629986300.000000,0.636911,-0.396402,0.638014,0.173629,-9.335357,-0.742002,-2.822922,-0.968483,-0.083940,-0.577109,44.462307,9.573027,-5.349198,4635729103079604200.000000,0.215010,0.766132,0.191798,-0.574479,0
-9.944621,1.054539,-1.258312,-2.930680,-0.998155,0.232914,42.298653,12.384494,14.462020,4635731572685799400.000000,0.676318,0.146646,0.696975,-0.187924,-7.912593,-0.165284,-3.349480,-2.959673,-2.058304,0.621057,42.322550,-3.805217,19.542184,4635727706678362100.000000,0.636956,-0.401145,0.631350,0.186461,-9.162981,-0.699650,-3.025669,-0.855440,-0.089493,-0.551995,44.378984,9.884169,-5.112184,4635729103079604200.000000,0.216552,0.764661,0.195467,-0.574622,0
-9.563025,0.885258,-1.009471,-2.947160,-0.986649,0.258219,42.295444,11.962536,14.373369,4635731572685799400.000000,0.681139,0.138180,0.696294,-0.179249,-7.896256,-0.206297,-3.213267,-3.104931,-2.012036,0.678013,42.562562,-4.435859,18.767776,4635727706678362100.000000,0.636437,-0.406063,0.624642,0.199706,-9.059077,-0.352497,-3.082813,-0.749859,-0.104549,-0.536288,44.452519,10.159852,-4.974369,4635729103079604200.000000,0.217802,0.763251,0.198817,-0.574876,0
-9.112912,0.749890,-0.925618,-2.949990,-1.002944,0.276192,42.232375,11.388728,14.214656,4635731572685799400.000000,0.685905,0.129721,0.695441,-0.170493,-7.767337,-0.254161,-2.952542,-3.306845,-1.940715,0.707198,42.716316,-4.964856,17.915519,4635727706678362100.000000,0.635203,-0.411397,0.617849,0.213383,-8.997154,0.055684,-3.046193,-0.677856,-0.116272,-0.537174,44.406361,10.314363,-5.022306,4635729103079604200.000000,0.218827,0.761866,0.201985,-0.575220,0
-8.701156,0.591764,-0.869335,-2.944230,-1.000150,0.289888,42.398503,10.825776,14.067194,4635731572685799400.000000,0.690550,0.121297,0.694468,-0.161684,-7.747045,-0.224389,-2.702492,-3.578245,-1.848873,0.710534,43.087914,-5.696541,17.090724,4635727725988967400.000000,0.633086,-0.417408,0.610894,0.227553,-9.073963,0.322450,-2.908350,-0.641124,-0.139509,-0.543635,44.325081,10.470964,-5.072027,4635728998333731800.000000,0.219735,0.760443,0.205062,-0.575667,0
-8.366813,0.442074,-0.655467,-2.928390,-0.958067,0.299501,42.724369,10.496175,14.169654,4635731572685799400.000000,0.694952,0.112953,0.693485,-0.152844,-7.883212,-0.158408,-2.623351,-3.909956,-1.745689,0.695056,43.478095,-6.716727,16.311111,4635727814052544500.000000,0.629947,-0.424301,0.603685,0.242279,-9.268982,0.407902,-2.705883,-0.620855,-0.163791,-0.543740,44.319127,10.744883,-4.983012,4635728888331239400.000000,0.220596,0.758972,0.208067,-0.576201,0
-8.202306,0.222853,-0.570540,-2.892342,-0.883616,0.308788,42.965336,10.159591,14.360629,4635731572685799400.000000,0.699012,0.104768,0.692577,-0.144022,-8.159335,-0.312447,-2.704141,-4.292107,-1.635937,0.656132,43.574805,-7.531534,15.386429,4635727814052544500.000000,0.625673,-0.432257,0.596101,0.257586,-9.369332,0.487400,-2.588866,-0.602618,-0.173509,-0.542072,44.199742,10.972662,-4.882961,4635728888331239400.000000,0.221407,0.757486,0.211012,-0.576774,0
-8.181087,0.013779,-0.495186,-2.839319,-0.816384,0.310645,43.121844,9.678320,14.194020,4635731572685799400.000000,0.702743,0.096765,0.691725,-0.135295,-8.521135,-0.541220,-2.881606,-4.657888,-1.534448,0.611358,43.639932,-8.276112,14.534187,4635727814052544500.000000,0.620284,-0.441213,0.588074,0.273401,-9.345220,0.542777,-2.598970,-0.597042,-0.188745,-0.545223,44.033310,11.166757,-4.930584,4635728888331239400.000000,0.222203,0.755957,0.213937,-0.577396,0
-8.232045,-0.237816,-0.375238,-2.794084,-0.751462,0.306186,42.973781,9.348718,14.128752,4635731582041735200.000000,0.706158,0.088903,0.690936,-0.126665,-8.827854,-0.713075,-3.132993,-4.975537,-1.440668,0.572604,43.819901,-9.020764,13.672139,4635727775473604600.000000,0.613844,-0.450993,0.579597,0.289600,-9.451450,0.490116,-2.732336,-0.619022,-0.231566,-0.544835,44.096362,11.327561,-5.034189,4635728888331239400.000000,0.223104,0.754295,0.216873,-0.578126,0
-8.335578,-0.650778,-0.306784,-2.739972,-0.717007,0.297360,43.069906,9.008422,14.238630,4635731787434164200.000000,0.709344,0.081179,0.690125,-0.118186,-8.928289,-0.951594,-3.626334,-5.284340,-1.336975,0.535052,43.901258,-9.778574,12.719962,4635727599304179700.000000,0.606312,-0.461553,0.570658,0.306112,-9.630428,0.063879,-2.742533,-0.651799,-0.283076,-0.531656,44.215214,11.406757,-5.132152,4635728888331239400.000000,0.224181,0.752481,0.219796,-0.578968,0
-8.567466,-1.011615,-0.340216,-2.670836,-0.725271,0.282085,43.392008,8.434803,14.336804,4635731787434164200.000000,0.712423,0.073599,0.689166,-0.109936,-8.833774,-1.290320,-4.309934,-5.571872,-1.232823,0.486219,43.896283,-10.613994,11.769998,4635727599304179700.000000,0.597707,-0.472835,0.561213,0.322819,-9.609054,-0.590851,-2.667165,-0.650328,-0.302860,-0.509800,44.137847,11.599329,-5.086669,4635728888331239400.000000,0.225321,0.750631,0.222626,-0.579846,0
-8.802093,-1.251536,-0.297208,-2.607761,-0.774504,0.259279,43.540617,7.871625,14.177557,4635731787434164200.000000,0.715517,0.066108,0.687949,-0.101936,-8.829086,-1.942880,-4.971566,-5.762524,-1.152501,0.433885,44.063093,-11.483437,10.830120,4635727599304179700.000000,0.588257,-0.484544,0.551284,0.339496,-9.468517,-0.938751,-2.762691,-0.613677,-0.306425,-0.479531,44.014859,11.981880,-4.855947,4635728888331239400.000000,0.226418,0.748825,0.225267,-0.580733,0
-9.091879,-1.395898,-0.116225,-2.543394,-0.824612,0.228303,43.477474,7.545748,14.014099,4635731787434164200.000000,0.718630,0.058689,0.686477,-0.094213,-8.892622,-2.471221,-5.550639,-5.851617,-1.077675,0.380012,44.079991,-12.083464,9.868234,4635727599304179700.000000,0.578168,-0.496402,0.540971,0.355888,-9.363992,-0.845967,-2.927949,-0.563086,-0.317627,-0.439542,43.971066,12.261270,-4.712058,4635728888331239400.000000,0.227461,0.747068,0.227649,-0.581659,0
-9.309996,-1.487182,0.013268,-2.473043,-0.848759,0.197005,43.639867,7.294204,14.015160,4635731787434164200.000000,0.721691,0.051375,0.684830,-0.086779,-8.847235,-2.625851,-6.238311,-5.872895,-0.986611,0.317019,44.054958,-12.470031,8.793066,4635727599304179700.000000,0.567564,-0.508280,0.530385,0.371771,-9.272907,-0.356678,-3.056570,-0.531471,-0.333020,-0.405151,43.929417,12.305062,-4.848905,4635728888331239400.000000,0.228500,0.745329,0.229831,-0.582624,0
-9.492046,-1.429337,0.039804,-2.406910,-0.863063,0.159062,43.880303,6.879152,14.022605,4635731787434164200.000000,0.724679,0.044138,0.683044,-0.079641,-8.770552,-3.106565,-7.049557,-5.793157,-0.892293,0.245542,44.250256,-13.090678,7.708261,4635727599304179700.000000,0.556683,-0.519963,0.519676,0.386885,-9.264183,-0.059491,-2.964159,-0.549035,-0.359013,-0.381599,43.915361,12.418096,-5.135608,4635728888331239400.000000,0.229672,0.743525,0.231956,-0.583624,0
-9.646500,-1.170862,0.124183,-2.366738,-0.862460,0.132823,44.028923,6.467814,13.672822,4635731787434164200.000000,0.727565,0.036943,0.681176,-0.072686,-8.755831,-3.905360,-7.819880,-5.558561,-0.814372,0.184875,44.397393,-13.560520,6.836222,4635727599304179700.000000,0.545916,-0.531059,0.509099,0.400961,-9.260706,-0.401684,-2.742262,-0.571432,-0.370783,-0.366483,43.905007,12.650037,-5.285806,4635728992986598400.000000,0.230958,0.741679,0.234076,-0.584619,0
-9.704357,-0.861481,0.447928,-2.335858,-0.847604,0.117172,43.951984,6.141954,13.685028,4635731787434164200.000000,0.730318,0.029798,0.679272,-0.065856,-8.812814,-4.725148,-8.522583,-5.175386,-0.752885,0.154033,44.326339,-13.890114,5.899394,4635727599304179700.000000,0.535637,-0.541177,0.498976,0.413816,-9.127052,-0.588750,-2.643679,-0.571486,-0.367389,-0.363664,43.783869,12.768944,-5.285806,4635729103079604200.000000,0.232245,0.739835,0.236189,-0.585595,0
-9.690563,-0.464983,0.634785,-2.306925,-0.811842,0.110343,43.803336,5.890403,13.681370,4635731787434164200.000000,0.732884,0.022727,0.677399,-0.059117,-8.695811,-5.217518,-9.129767,-4.726001,-0.694204,0.149481,44.265311,-14.232804,5.034961,4635727599304179700.000000,0.526020,-0.550165,0.489534,0.425415,-9.170587,-0.208443,-2.422058,-0.576116,-0.368538,-0.358541,43.660869,12.804630,-5.380969,4635729103079604200.000000,0.233556,0.737982,0.238294,-0.586558,0
-9.643320,-0.219204,0.633199,-2.275857,-0.787927,0.118422,43.883985,5.479054,13.326299,4635731787434164200.000000,0.735305,0.015776,0.675521,-0.052432,-8.334706,-5.469120,-9.625284,-4.250160,-0.615663,0.176231,44.202091,-14.578742,4.246142,4635727618542107600.000000,0.517096,-0.557995,0.480995,0.435772,-9.492367,0.174355,-2.156323,-0.605560,-0.366402,-0.351421,43.646790,12.961142,-5.576287,4635729103079604200.000000,0.234969,0.736104,0.240450,-0.587473,0
-9.631641,-0.206998,0.599745,-2.242702,-0.754172,0.140059,44.124410,5.160040,12.960570,4635731787434164200.000000,0.737557,0.008994,0.673672,-0.045767,-7.790623,-5.806580,-9.867037,-3.738745,-0.529690,0.227849,44.157289,-14.664201,3.727168,4635727706678362100.000000,0.508945,-0.564616,0.473555,0.444893,-9.793777,0.245088,-2.004208,-0.662470,-0.360103,-0.351941,43.791082,13.240957,-5.634814,4635729103079604200.000000,0.236545,0.734177,0.242751,-0.588305,0
-9.631114,-0.188463,0.634785,-2.208660,-0.707767,0.167369,44.276253,5.078280,12.883029,4635731787434164200.000000,0.739610,0.002400,0.671894,-0.039106,-7.313412,-6.161368,-9.787490,-3.221044,-0.425220,0.329116,44.231807,-14.806697,3.047988,4635727706678362100.000000,0.501506,-0.570008,0.467434,0.452867,-9.935881,0.171849,-1.886831,-0.716204,-0.348902,-0.349367,43.791106,13.510760,-5.543421,4635729103079604200.000000,0.238277,0.732217,0.245184,-0.589038,0
-9.621011,-0.023474,0.633207,-2.177181,-0.701238,0.184044,44.276253,5.060399,12.968581,4635731787434164200.000000,0.741577,-0.004049,0.670069,-0.032478,-6.853042,-6.583230,-9.493252,-2.645191,-0.330434,0.466383,44.210194,-15.211702,2.349119,4635727687399463900.000000,0.494912,-0.574018,0.462851,0.459711,-10.009126,0.116443,-1.784171,-0.762516,-0.345477,-0.342958,43.552904,13.700763,-5.493331,4635729103079604200.000000,0.240158,0.730217,0.247713,-0.589700,0
-9.648168,0.278555,0.594481,-2.134133,-0.764387,0.190968,44.279934,4.638510,12.778107,4635731787434164200.000000,0.743652,-0.010354,0.667983,-0.025944,-6.624757,-6.468614,-8.882538,-2.051058,-0.227925,0.653603,43.978235,-15.598280,2.021094,4635727599304179700.000000,0.489131,-0.576577,0.460019,0.465503,-10.106148,0.044150,-1.572290,-0.807049,-0.346135,-0.339151,43.392322,13.740540,-5.534950,4635729103079604200.000000,0.242179,0.728164,0.250336,-0.590304,0
-9.462427,0.503659,0.519548,-2.083056,-0.851626,0.185259,44.365383,4.082117,12.431456,4635731787434164200.000000,0.745903,-0.016526,0.665562,-0.019564,-7.389692,-5.650414,-7.998618,-1.559279,-0.199139,0.593798,43.787956,-15.808587,1.890577,4635727599304179700.000000,0.484559,-0.578265,0.458027,0.470132,-10.049886,0.029401,-1.386658,-0.843362,-0.334582,-0.342764,43.306881,13.809643,-5.673888,4635729103079604200.000000,0.244285,0.726087,0.253067,-0.590830,0
-9.223014,0.572696,0.711362,-2.012973,-0.880772,0.171190,44.457144,3.911742,12.244142,4635731787434164200.000000,0.748172,-0.022520,0.662987,-0.013417,-13.754618,-6.211422,-7.074882,-1.736896,0.025758,0.133276,43.831763,-15.793255,1.625161,4635727599304179700.000000,0.480007,-0.581600,0.455008,0.473606,-9.793867,0.275316,-1.283381,-0.909839,-0.334078,-0.353388,43.215492,14.118833,-5.774102,4635729103079604200.000000,0.246560,0.723919,0.255992,-0.591285,0
-9.099210,0.526905,1.624727,-1.950740,-0.842979,0.153083,44.693179,3.738495,11.963988,4635731787434164200.000000,0.750278,-0.028366,0.660471,-0.007501,-12.661286,-19.796948,-13.570549,-1.680887,0.543962,-0.040341,44.032104,-15.723135,1.464888,4635727560760261600.000000,0.474925,-0.586142,0.452692,0.475345,-9.661999,0.553664,-1.309879,-1.003943,-0.360583,-0.373485,43.123780,14.432193,-5.726561,4635729103079604200.000000,0.249091,0.721554,0.259177,-0.591727,0
-9.222161,-0.013236,2.177462,-1.856062,-0.751747,0.136906,45.008174,3.248395,11.691212,4635731787434164200.000000,0.752087,-0.033956,0.658186,-0.001905,-9.095599,-20.670032,-15.392038,0.167248,0.144127,-0.543585,43.988327,-15.723135,1.482400,4635727384555814900.000000,0.476093,-0.587167,0.452002,0.473566,-9.781158,0.521567,-1.534572,-1.099381,-0.396321,-0.406454,43.044276,14.592818,-5.634850,4635729103079604200.000000,0.251859,0.718948,0.262654,-0.592194,0
-9.642380,-0.884766,1.740231,-1.722057,-0.751609,0.141954,44.989707,3.003021,11.332333,4635731787434164200.000000,0.753862,-0.039110,0.655859,0.003340,-14.073321,-1.816458,-4.838172,1.057961,-0.093016,-0.091518,43.803285,-15.738464,1.580066,4635727384555814900.000000,0.478989,-0.585097,0.453699,0.471581,-10.114135,0.331856,-1.725897,-1.203461,-0.425389,-0.440230,42.971027,14.630734,-5.585048,4635729103079604200.000000,0.254879,0.716103,0.266452,-0.592652,0
-10.173247,-1.582884,1.924478,-1.577383,-0.865847,0.165708,44.841442,2.999892,11.145881,4635731787434164200.000000,0.755927,-0.043741,0.653140,0.008283,-13.181649,2.392730,2.768576,0.817253,0.146223,0.604825,43.917176,-15.821717,1.660207,4635727384555814900.000000,0.479469,-0.582650,0.457089,0.470848,-10.482275,0.392695,-1.639676,-1.323787,-0.437884,-0.466469,42.808658,14.814609,-5.626318,4635729103079604200.000000,0.258196,0.713046,0.270604,-0.593021,0
-10.557077,-2.060479,2.647966,-1.448928,-0.923988,0.219428,44.933646,2.918856,11.153407,4635731787434164200.000000,0.758129,-0.047817,0.650218,0.013056,-11.447087,-3.239483,4.027031,0.770067,0.040454,0.214112,44.089117,-15.897144,1.677706,4635727384555814900.000000,0.480797,-0.580825,0.459219,0.469675,-10.727694,0.959218,-1.269510,-1.489024,-0.436958,-0.488926,42.671142,15.205197,-5.729906,4635729103079604200.000000,0.261936,0.709758,0.275221,-0.593200,0
-10.790058,-2.574230,2.598589,-1.387591,-0.820692,0.279675,45.163752,2.655739,11.044825,4635731787434164200.000000,0.760022,-0.051539,0.647606,0.017833,-11.029743,-0.248893,4.065202,0.634669,-0.000535,0.012028,43.912897,-15.969472,1.790695,4635727384555814900.000000,0.482267,-0.579572,0.460509,0.468451,-10.851728,1.712423,-0.930703,-1.720937,-0.433148,-0.514447,42.700516,15.518610,-5.738786,4635729103079604200.000000,0.266279,0.706160,0.280478,-0.593098,0
-11.039133,-3.097314,1.993419,-1.363000,-0.631929,0.325788,45.078299,2.244328,10.694451,4635731787434164200.000000,0.761372,-0.055071,0.645575,0.022650,-8.423741,3.281313,1.598062,0.081922,0.211336,0.347785,43.748459,-15.992621,1.943165,4635727384555814900.000000,0.481339,-0.579196,0.461953,0.468449,-10.758004,2.217154,-0.693163,-2.042038,-0.428442,-0.555787,42.738117,15.714899,-5.552038,4635729103079604200.000000,0.271439,0.702119,0.286637,-0.592611,0
-11.114184,-3.275719,1.515006,-1.312864,-0.529281,0.374944,45.000127,1.914730,10.425890,4635731787434164200.000000,0.762422,-0.058319,0.643861,0.027463,-6.352683,0.134025,-1.497951,-0.462437,0.385904,0.386928,43.974169,-16.068045,1.970682,4635727423031670800.000000,0.478682,-0.580173,0.462777,0.469149,-10.519809,2.814313,-0.502152,-2.486626,-0.425614,-0.628938,42.666851,15.909219,-5.223774,4635728998604640300.000000,0.277687,0.697426,0.294084,-0.591609,0
-10.939433,-2.783613,1.265422,-1.241282,-0.595652,0.398671,45.085051,1.591910,10.148544,4635731787434164200.000000,0.763637,-0.061265,0.641927,0.032176,-8.099512,-3.262123,-2.405519,-0.549593,0.365938,0.215303,43.969948,-16.168808,2.085838,4635727599304179700.000000,0.476184,-0.581609,0.462972,0.469720,-10.436341,4.114578,-0.326628,-3.030603,-0.419984,-0.726573,42.514424,16.141160,-4.934428,4635728888331239400.000000,0.285227,0.691897,0.303121,-0.589951,0
-10.389441,-1.931779,1.181219,-1.193493,-0.732043,0.378586,45.158288,1.421026,9.684922,4635731787434164200.000000,0.765202,-0.064093,0.639538,0.036732,-10.401263,-3.103518,-1.220673,-0.426125,0.284222,0.231825,43.600831,-16.355017,2.263657,4635727599304179700.000000,0.474108,-0.582604,0.463283,0.470280,-10.830286,5.486415,0.030030,-3.616150,-0.402951,-0.806221,42.361667,16.408734,-4.608454,4635728888331239400.000000,0.294176,0.685470,0.313786,-0.587477,0
-9.552297,-1.138294,1.385955,-1.151518,-0.731583,0.338341,45.238772,1.247019,9.510084,4635731787434164200.000000,0.766755,-0.066892,0.637124,0.041046,-10.385827,-1.261828,0.279444,-0.407324,0.260451,0.343687,43.488048,-16.593861,2.326336,4635727599304179700.000000,0.471901,-0.583295,0.463853,0.471081,-11.455830,5.945994,0.512387,-4.196645,-0.362938,-0.850362,42.250811,16.791124,-4.049550,4635728888331239400.000000,0.304537,0.678181,0.325960,-0.584019,0
-8.842870,-0.358207,1.248547,-1.103920,-0.526864,0.281632,45.479836,1.006474,9.517626,4635731787434164200.000000,0.767764,-0.069722,0.635337,0.044996,-9.442183,0.085080,0.852379,-0.555005,0.303061,0.350627,43.568222,-16.724142,2.246162,4635727599304179700.000000,0.469236,-0.584341,0.464230,0.472074,-11.505307,5.837116,0.792492,-4.757451,-0.299947,-0.903163,42.135994,17.255006,-3.431922,4635728888331239400.000000,0.316156,0.670014,0.339611,-0.579474,0
-8.394557,0.092489,1.036393,-1.088797,-0.313276,0.223569,45.639863,0.850899,9.416359,4635731787434164200.000000,0.768202,-0.072695,0.634204,0.048657,-9.108678,0.044541,0.007015,-0.822763,0.396184,0.284247,43.581333,-16.739439,2.263644,4635727599304179700.000000,0.465864,-0.586214,0.464095,0.473223,-11.065891,6.023143,0.527292,-5.355021,-0.266517,-0.986266,42.018879,17.683209,-2.864179,4635728888331239400.000000,0.329046,0.660715,0.354826,-0.573832,0
-8.311864,-0.039887,0.724193,-1.021736,-0.251375,0.181796,45.558029,0.758752,9.241520,4635731787434164200.000000,0.768487,-0.075575,0.633256,0.051988,-9.677661,-0.568403,-0.757750,-0.936957,0.420538,0.210983,43.658932,-16.840157,2.346005,4635727599304179700.000000,0.462302,-0.588487,0.463596,0.474383,-10.828301,6.607727,-0.047751,-5.997858,-0.258177,-1.075495,41.874400,18.145060,-2.118638,4635728888331239400.000000,0.343286,0.650039,0.371631,-0.567005,0
-8.564628,-0.412871,0.539194,-0.959687,-0.338121,0.162720,45.558029,0.514060,9.253729,4635731787434164200.000000,0.769010,-0.078285,0.632026,0.055121,-10.447353,-0.146375,-0.911807,-0.931910,0.399678,0.168508,43.710733,-17.024177,2.321085,4635727599304179700.000000,0.458868,-0.590779,0.462953,0.475494,-10.851380,7.153464,-0.471747,-6.632720,-0.252544,-1.178667,41.737780,18.646567,-0.941196,4635728888331239400.000000,0.358743,0.637844,0.389958,-0.558919,0
-8.732934,-0.938760,0.584408,-0.895109,-0.475370,0.171580,45.561639,0.268563,9.257168,4635731787434164200.000000,0.769898,-0.080732,0.630363,0.058156,-10.319460,-0.003233,-1.421394,-0.870916,0.401128,0.186735,43.549871,-17.211549,2.178173,4635727599304179700.000000,0.455537,-0.592911,0.462471,0.476512,-10.877133,7.516055,-0.824713,-7.245969,-0.275022,-1.265567,41.653344,19.110393,0.475028,4635728888331239400.000000,0.375350,0.623988,0.409576,-0.549543,0
-8.841253,-1.482419,0.561192,-0.819902,-0.547945,0.187287,45.639873,0.268563,9.054117,4635731787434164200.000000,0.770984,-0.082877,0.628479,0.061069,-9.804323,-0.711182,-1.828119,-0.675742,0.397839,0.175735,43.409527,-17.120843,2.308573,4635727599304179700.000000,0.452710,-0.594678,0.462337,0.477134,-10.787440,7.416662,-1.179719,-7.805875,-0.320802,-1.301806,41.454129,19.532703,1.843186,4635728888331239400.000000,0.393024,0.608459,0.430085,-0.538829,0
-8.915004,-1.892795,0.843473,-0.759790,-0.520108,0.195201,45.558029,0.257765,8.683958,4635731787434164200.000000,0.772002,-0.084813,0.626693,0.063840,-10.029392,-1.051130,-1.984067,-0.454600,0.361480,0.124662,43.424806,-17.011056,2.556602,4635727599304179700.000000,0.450599,-0.596047,0.462443,0.477321,-10.628744,6.750331,-1.295338,-8.259360,-0.385055,-1.315320,41.208965,19.798378,3.037299,4635728888331239400.000000,0.411475,0.591319,0.451048,-0.526864,0
-9.005083,-2.205691,1.143897,-0.717964,-0.442808,0.188297,45.558029,-0.001160,8.501362,4635731787434164200.000000,0.772824,-0.086652,0.625155,0.066451,-10.530217,-0.976999,-1.689801,-0.245784,0.309446,0.098836,43.481881,-17.195052,2.604061,4635727599304179700.000000,0.449156,-0.596968,0.462800,0.477184,-10.452256,5.664444,-1.316361,-8.586966,-0.458871,-1.308259,41.120128,19.867719,4.176082,4635728888331239400.000000,0.430363,0.572723,0.472018,-0.513786,0
-9.200892,-2.690856,1.058455,-0.696917,-0.382657,0.170141,45.561106,-0.311851,8.329964,4635731787434164200.000000,0.773491,-0.088486,0.623804,0.068928,-10.602990,-0.768567,-1.482759,-0.064343,0.256771,0.069463,43.406464,-17.382462,2.453688,4635727599304179700.000000,0.448324,-0.597499,0.463345,0.476773,-10.209485,3.710951,-1.178055,-8.794077,-0.554773,-1.302442,41.049954,19.819914,5.551346,4635728888331239400.000000,0.449364,0.552792,0.492613,-0.499826,0
-9.405869,-3.107494,0.996127,-0.683480,-0.364778,0.151980,45.631275,-0.457198,8.146321,4635731787434164200.000000,0.774113,-0.090327,0.622500,0.071305,-10.494424,-0.162520,-1.498488,0.025291,0.223548,0.027996,43.364638,-17.320124,2.488589,4635727618490565600.000000,0.447861,-0.597875,0.463902,0.476194,-9.963971,0.683254,-0.269878,-8.834138,-0.701001,-1.320940,40.742249,19.770060,6.940812,4635728888331239400.000000,0.468093,0.531681,0.512381,-0.485460,0
-9.549257,-3.552929,1.451210,-0.680231,-0.377414,0.133826,45.634343,-0.301606,7.962806,4635731787434164200.000000,0.774766,-0.092199,0.621142,0.073619,-10.342277,0.612576,-1.743929,0.002437,0.219084,-0.014118,43.510242,-17.340629,2.683899,4635727706678362100.000000,0.447433,-0.598365,0.464300,0.475592,-10.611054,-2.908025,2.255100,-8.540751,-0.941421,-1.292590,40.421455,19.722259,8.138436,4635728888331239400.000000,0.486107,0.509998,0.530334,-0.471538,0
-9.622501,-3.846355,1.701942,-0.675824,-0.383946,0.116249,45.708096,-0.233537,8.045190,4635731787434164200.000000,0.775433,-0.094099,0.619752,0.075867,-10.218049,0.905526,-1.876036,-0.061830,0.213173,-0.064959,43.580429,-17.481001,2.879179,4635727706678362100.000000,0.446957,-0.599061,0.464432,0.475034,-13.359133,-5.243066,6.126074,-7.780262,-1.201490,-1.055592,40.380368,19.524113,9.238408,4635728888331239400.000000,0.502958,0.489256,0.545129,-0.458799,0
-9.689611,-3.853898,1.823504,-0.666916,-0.345006,0.111932,45.789970,-0.563137,8.049728,4635731787434164200.000000,0.775996,-0.095992,0.618483,0.078063,-10.075050,0.904662,-1.776160,-0.128323,0.204627,-0.123518,43.549928,-17.422178,3.037465,4635727687515447300.000000,0.446448,-0.599976,0.464270,0.474517,-15.388632,-4.502194,8.968639,-6.698532,-1.335383,-0.647837,40.538044,19.171108,10.193390,4635728888331239400.000000,0.518206,0.470983,0.556226,-0.447493,0
-9.612277,-3.456044,1.924680,-0.624364,-0.319818,0.106949,45.793038,-0.868709,7.873202,4635731787434164200.000000,0.776506,-0.097768,0.617301,0.080123,-9.889745,0.847979,-1.979770,-0.206684,0.197417,-0.182156,43.422604,-17.105630,3.009999,4635727599304179700.000000,0.445872,-0.601134,0.463792,0.474061,-14.632913,-3.276827,9.131584,-5.581846,-1.359963,-0.301289,40.567268,18.780493,10.733486,4635728888331239400.000000,0.531604,0.455551,0.564124,-0.437761,0
-9.438843,-2.618925,1.827032,-0.561484,-0.303617,0.110198,45.863213,-0.631726,7.580798,4635731787434164200.000000,0.776991,-0.099335,0.616189,0.082025,-9.731479,0.765621,-2.303249,-0.298771,0.193680,-0.243263,43.495838,-16.881978,2.929777,4635727599304179700.000000,0.445192,-0.602572,0.462970,0.473677,-13.488384,-3.005735,7.433353,-4.562796,-1.325809,-0.101123,40.462304,18.425467,10.887621,4635728888331239400.000000,0.543095,0.442690,0.569588,-0.429701,0
-9.205345,-1.912413,1.732940,-0.502511,-0.256961,0.113710,45.863724,-0.571763,7.585398,4635731787434164200.000000,0.777375,-0.100718,0.615246,0.083768,-9.758921,0.392143,-2.434098,-0.314283,0.171185,-0.296548,43.542955,-16.821802,2.945013,4635727599304179700.000000,0.444620,-0.604094,0.461940,0.473281,-12.848729,-2.389050,5.179674,-3.669515,-1.297281,0.007799,40.555483,18.072466,11.127644,4635728888331239400.000000,0.552886,0.432015,0.573132,-0.423320,0
-8.941418,-1.531016,1.722769,-0.463666,-0.169437,0.099249,45.874915,-0.809247,7.682531,4635731782962924500.000000,0.777551,-0.102041,0.614591,0.085328,-9.841342,-0.276295,-2.322067,-0.241318,0.120183,-0.349083,43.480594,-16.806574,3.015229,4635727599304179700.000000,0.444432,-0.605479,0.460825,0.472773,-12.313740,-2.027817,2.993821,-2.800865,-1.306590,0.137498,40.847390,17.687805,11.369981,4635728888331239400.000000,0.561245,0.423543,0.574767,-0.418638,0
-8.786281,-1.378920,1.753292,-0.439944,-0.084963,0.071478,45.859655,-0.887583,7.483655,4635731680059981800.000000,0.777527,-0.103387,0.614203,0.086702,-9.816568,-0.537126,-2.239151,-0.151604,0.079508,-0.372784,43.485790,-16.721121,3.015229,4635727599304179700.000000,0.444594,-0.606661,0.459751,0.472152,-11.649961,-2.019115,1.598721,-1.844449,-1.338822,0.315675,41.058390,17.261909,11.372407,4635728888331239400.000000,0.568231,0.417624,0.574272,-0.415831,0
-8.717607,-1.662192,1.647493,-0.410975,-0.047627,0.043709,45.774722,-0.812278,7.222685,4635731680059981800.000000,0.777427,-0.104723,0.613933,0.087896,-9.660407,-0.545827,-2.356385,-0.030463,0.057575,-0.376400,43.569066,-16.635672,3.015229,4635727599304179700.000000,0.445111,-0.607580,0.458863,0.471346,-11.184712,-1.867261,0.904924,-0.868847,-1.390441,0.497414,41.102325,16.904392,11.144546,4635728888331239400.000000,0.573917,0.414331,0.571607,-0.414988,0
-8.757777,-2.010082,1.639847,-0.378708,-0.011044,0.016026,45.701476,-0.971481,7.418511,4635731680059981800.000000,0.777256,-0.106037,0.613780,0.088901,-9.732646,-0.620739,-2.531280,0.128544,0.032249,-0.399736,43.629261,-16.580665,3.032620,4635727599304179700.000000,0.446123,-0.608197,0.458180,0.470257,-11.119916,-0.989854,0.509863,-0.019012,-1.429980,0.661220,41.286227,16.755517,10.671222,4635728888331239400.000000,0.578486,0.413372,0.567069,-0.415824,0
-8.879851,-2.497871,1.735479,-0.341634,0.030529,-0.009743,45.631275,-1.131740,7.616913,4635731680059981800.000000,0.777002,-0.107312,0.613762,0.089711,-10.053876,-0.909523,-2.436140,0.344304,-0.004388,-0.438072,43.644477,-16.605250,3.112888,4635727599304179700.000000,0.447825,-0.608412,0.457752,0.468776,-11.187225,0.537786,0.218621,0.613883,-1.439344,0.805043,41.623114,16.652964,10.050057,4635728888331239400.000000,0.582208,0.414243,0.561138,-0.417805,0
-8.997870,-2.969396,1.776706,-0.312213,0.043399,-0.038095,45.637864,-1.039700,7.596596,4635731680059981800.000000,0.776737,-0.108568,0.613783,0.090348,-10.492470,-1.471095,-1.752279,0.659509,-0.065420,-0.474710,43.740780,-16.335885,3.110715,4635727599304179700.000000,0.450511,-0.607984,0.457728,0.466777,-11.135562,1.967351,-0.218435,1.024898,-1.429453,0.930378,41.844914,16.429365,9.331197,4635728888331239400.000000,0.585380,0.416395,0.554265,-0.420399,0
-9.018238,-3.333554,1.634859,-0.293880,0.007402,-0.054918,45.796541,-0.805689,7.393643,4635731684505450500.000000,0.776577,-0.109793,0.613686,0.090900,-10.642805,-1.278473,-1.038975,0.803954,-0.059211,-0.475082,43.889438,-16.019326,3.118058,4635727599304179700.000000,0.453546,-0.607289,0.457990,0.464480,-10.774880,2.729619,-0.743323,1.258665,-1.396216,1.016060,42.032910,16.159782,8.704516,4635728888331239400.000000,0.588176,0.419343,0.546875,-0.423235,0
-8.941456,-3.650441,1.330102,-0.272245,-0.044281,-0.065732,45.955236,-0.812764,7.296490,4635731787434164200.000000,0.776562,-0.110955,0.613424,0.091386,-9.759085,-1.115787,-0.941037,0.774002,-0.000237,-0.444539,44.032923,-15.780363,3.250445,4635727618400368600.000000,0.456328,-0.606698,0.458375,0.462142,-10.177794,2.691878,-1.351230,1.356122,-1.360605,1.046236,42.258907,15.927856,8.228456,4635728888331239400.000000,0.590726,0.422627,0.539303,-0.426122,0
-8.782256,-3.952592,1.329516,-0.268554,-0.054040,-0.079352,46.100792,-0.979624,7.222660,4635731787434164200.000000,0.776578,-0.112135,0.613124,0.091824,-9.100210,-1.481438,-0.678987,0.739650,0.012345,-0.443138,44.075771,-15.591273,3.506515,4635727706678362100.000000,0.458990,-0.606185,0.458714,0.459836,-9.418477,2.110089,-2.052983,1.367870,-1.342844,1.046785,42.443060,15.583243,7.568534,4635728888331239400.000000,0.593168,0.425938,0.531709,-0.428968,0
-8.618426,-4.179455,1.586460,-0.252724,-0.018523,-0.087004,45.938615,-1.042801,7.421452,4635731787434164200.000000,0.776511,-0.113296,0.612941,0.092180,-9.048390,-1.512366,-0.555599,0.637653,0.031998,-0.428990,43.980283,-15.289897,3.574598,4635727706678362100.000000,0.461326,-0.605871,0.458926,0.457697,-8.574823,1.484417,-2.666100,1.325113,-1.319651,1.064425,42.666621,15.160894,6.808936,4635728888331239400.000000,0.595617,0.429189,0.524175,-0.431599,0
-8.620946,-4.283287,1.571228,-0.215213,-0.003503,-0.098887,45.714595,-0.878933,7.686633,4635731783002113000.000000,0.776428,-0.114372,0.612815,0.092395,-8.974076,-1.490911,-0.927508,0.523933,0.042797,-0.412875,43.910030,-15.149387,3.564562,4635727706678362100.000000,0.463319,-0.605759,0.458977,0.455776,-7.959250,1.208883,-2.900134,1.257976,-1.302072,1.114227,43.007358,14.895133,6.185349,4635728888331239400.000000,0.598191,0.432379,0.516675,-0.433894,0
-8.679463,-4.240639,1.493323,-0.150107,-0.037799,-0.113663,45.948666,-0.879435,7.588985,4635731680059981800.000000,0.776468,-0.115260,0.612595,0.092413,-9.161781,-1.070740,-1.206363,0.417981,0.044649,-0.420446,43.910030,-15.149387,3.581921,4635727706678362100.000000,0.465052,-0.605866,0.458808,0.454035,-7.526063,1.255612,-2.821311,1.220131,-1.283916,1.182466,43.279071,14.636000,5.563822,4635728888331239400.000000,0.600869,0.435621,0.509125,-0.435870,0
-8.676449,-4.055518,1.593495,-0.086370,-0.099224,-0.124125,45.942133,-0.891140,7.495848,4635731680059981800.000000,0.776699,-0.115944,0.612195,0.092264,-9.516361,-0.589734,-1.194155,0.338956,0.028460,-0.445371,43.951275,-15.075581,3.662221,4635727706678362100.000000,0.466662,-0.606139,0.458393,0.452436,-7.098478,1.217625,-2.854072,1.270868,-1.257944,1.272213,43.396263,14.174602,4.904660,4635728888331239400.000000,0.603515,0.439192,0.501344,-0.437647,0
-8.601697,-3.822070,1.748171,-0.030650,-0.145545,-0.129114,45.789970,-0.887623,7.503031,4635731680059981800.000000,0.777076,-0.116442,0.611664,0.091981,-9.665023,-0.231680,-1.229679,0.260635,0.030880,-0.450475,44.198380,-14.658400,3.644864,4635727706678362100.000000,0.468077,-0.606575,0.457818,0.450969,-6.683452,0.767098,-3.309469,1.385523,-1.234724,1.388906,43.582119,13.672720,4.245501,4635728888331239400.000000,0.606061,0.443298,0.493156,-0.439288,0
-8.493841,-3.558534,1.803682,0.028770,-0.124472,-0.124811,45.792984,-0.799158,7.397686,4635731680059981800.000000,0.777427,-0.116744,0.611226,0.091550,-9.387237,-0.195535,-1.416611,0.133902,0.051152,-0.428446,44.474548,-14.307076,3.597102,4635727687597348900.000000,0.469090,-0.607252,0.457099,0.449734,-6.321744,0.408771,-3.799605,1.695485,-1.308967,1.510798,43.881378,13.327735,3.580374,4635728888331239400.000000,0.608347,0.448255,0.483935,-0.441349,0
-8.443310,-3.417573,1.742444,0.079792,-0.060048,-0.094166,45.859715,-0.643495,7.397187,4635731680059981800.000000,0.777626,-0.116826,0.611030,0.091057,-9.240436,-0.967478,-1.243324,0.103911,0.053836,-0.421968,44.529640,-14.337427,3.799701,4635727599304179700.000000,0.470009,-0.607977,0.456342,0.448561,-6.129180,2.317447,-3.515222,1.828584,-1.486579,1.523537,44.103222,13.024690,2.867521,4635728888331239400.000000,0.610687,0.453190,0.473934,-0.443921,0
-8.642158,-3.406867,1.966712,0.151394,0.011323,-0.046357,45.777763,-0.561541,7.385479,4635731680059981800.000000,0.777660,-0.116581,0.611116,0.090503,-9.402871,-1.723040,-0.941344,0.145046,0.043276,-0.407186,44.472362,-14.434647,4.040650,4635727599304179700.000000,0.471023,-0.608572,0.455678,0.447365,-5.119678,5.157302,-9.168608,1.248805,-1.290250,1.477124,44.255626,12.492215,2.158115,4635728888331239400.000000,0.613578,0.456870,0.465539,-0.445045,0
-8.920421,-3.431282,2.267758,0.247542,0.049606,-0.005138,45.791287,-0.565047,7.381472,4635731680059981800.000000,0.777627,-0.115932,0.611382,0.089820,-9.648182,-2.022889,-0.966983,0.168388,0.028132,-0.374364,44.532608,-14.173159,3.971309,4635727599304179700.000000,0.472062,-0.609028,0.455109,0.446226,-2.578424,1.586174,-19.209819,0.824163,-0.850209,1.110794,44.455802,11.908982,1.635206,4635728888331239400.000000,0.615702,0.459538,0.459721,-0.445412,0
-9.137116,-3.460673,1.932503,0.317479,0.010420,0.024785,46.110350,-0.643505,7.287820,4635731680059981800.000000,0.777716,-0.114966,0.611560,0.089075,-9.627074,-2.037037,-1.385603,0.169097,0.013626,-0.325365,44.532608,-13.876850,3.650014,4635727599304179700.000000,0.473039,-0.609361,0.454635,0.445219,-0.544067,-9.678145,-18.070220,0.334651,-0.630197,0.356444,44.575511,11.628802,1.393074,4635728888331239400.000000,0.616924,0.459900,0.456808,-0.446344,0
-9.283620,-3.598187,2.340165,0.349178,0.006108,0.028684,46.170617,-0.561541,7.284323,4635731684453382100.000000,0.777829,-0.113884,0.611737,0.088265,-9.505656,-1.907896,-1.653496,0.189048,0.003306,-0.292603,44.530441,-13.778406,3.699847,4635727599304179700.000000,0.474024,-0.609572,0.454260,0.444264,-2.810605,-14.754422,-6.638426,0.299857,-0.492196,0.083709,44.527759,11.584826,1.206557,4635728888331239400.000000,0.617438,0.459907,0.454833,-0.447641,0
-9.430092,-3.520966,3.108405,0.373502,0.049701,-0.001830,45.923508,-0.561541,7.206352,4635731787434164200.000000,0.777852,-0.112816,0.612048,0.087273,-9.900626,-1.826566,-1.379015,0.229342,-0.013937,-0.285436,44.533401,-13.617544,3.965450,4635727599304179700.000000,0.475131,-0.609655,0.453943,0.443291,-6.127403,-11.210867,0.115614,1.320990,-0.363955,0.152603,44.483776,11.584826,0.973180,4635728888331239400.000000,0.615868,0.462902,0.451144,-0.450442,0
-9.571600,-3.346078,2.991565,0.416512,0.061670,-0.047346,45.616076,-0.561541,7.307997,4635731787434164200.000000,0.777879,-0.111727,0.612391,0.086019,-10.220347,-1.549136,-1.031130,0.231529,-0.003514,-0.274565,44.593643,-13.492138,4.108771,4635727599304179700.000000,0.476202,-0.609732,0.453676,0.442308,-3.949741,-8.012354,-4.823515,1.610146,-0.212005,-0.029658,44.554860,11.626290,0.736768,4635728888331239400.000000,0.613088,0.466564,0.447636,-0.453943,0
-9.593525,-3.071538,2.731216,0.438944,0.029385,-0.108797,45.555286,-0.558054,7.494848,4635731787434164200.000000,0.778018,-0.110711,0.612606,0.084524,-10.026845,-1.102032,-1.046471,0.217234,0.000379,-0.263953,44.580654,-13.562425,4.028443,4635727599304179700.000000,0.477210,-0.609822,0.453416,0.441363,-2.089580,-1.041762,-14.271311,1.168370,-0.067290,-0.103469,44.624344,11.670278,0.402349,4635728888331239400.000000,0.610735,0.469216,0.445461,-0.456512,0
-9.565368,-2.651511,2.962401,0.409211,0.019487,-0.183785,45.791208,-0.476089,7.479154,4635731787434164200.000000,0.778194,-0.109977,0.612742,0.082867,-9.540920,-1.046947,-1.322282,0.185129,-0.002787,-0.258234,44.533385,-13.547277,4.045755,4635727599304179700.000000,0.478131,-0.609958,0.453105,0.440497,-7.116087,6.770549,-16.663496,0.619986,0.013647,0.089694,44.576594,11.593272,0.166061,4635728888331239400.000000,0.609662,0.470979,0.444151,-0.457407,0
-9.743166,-2.120944,3.446945,0.332437,0.078308,-0.264095,46.107361,-0.469651,7.384984,4635731787434164200.000000,0.778209,-0.109716,0.613003,0.081119,-9.346122,-1.774403,-1.619255,0.212630,-0.031129,-0.248673,44.636942,-13.433675,4.126102,4635727599304179700.000000,0.479157,-0.609968,0.452810,0.439671,-13.309093,8.838722,-12.441928,-0.094144,0.172240,0.220588,44.538531,11.476040,0.210927,4635728888331239400.000000,0.609944,0.471470,0.444346,-0.456334,0
-10.087000,-1.727076,3.541429,0.232479,0.135593,-0.349556,46.100905,-0.310440,7.380721,4635731787434164200.000000,0.778059,-0.110016,0.613375,0.079323,-9.589917,-1.766360,-1.601334,0.206164,-0.058505,-0.224147,44.835628,-13.217679,4.123939,4635727599304179700.000000,0.480173,-0.609893,0.452510,0.438975,-14.444294,7.398262,-9.867958,-0.848037,0.450237,-0.066481,44.550736,11.473865,0.488747,4635728888331239400.000000,0.610640,0.470039,0.447242,-0.454044,0
-10.479122,-0.960294,3.278330,0.116407,0.105562,-0.435094,45.938239,-0.140531,7.552411,4635731787434164200.000000,0.777958,-0.110899,0.613570,0.077561,-9.455474,-1.834855,-1.548629,0.159250,-0.071837,-0.176148,44.812602,-13.162519,4.113895,4635727599304179700.000000,0.481007,-0.609795,0.452219,0.438497,-12.808765,3.227022,-8.426566,-1.325462,0.630764,-0.467511,44.480065,11.624058,0.825691,4635728888331239400.000000,0.611158,0.466975,0.452274,-0.451517,0
-10.900360,0.032094,3.157904,-0.043241,0.023994,-0.522230,45.695767,0.003456,7.462180,4635731787434164200.000000,0.778016,-0.112495,0.613405,0.075962,-9.200055,-2.864870,-1.211935,0.211627,-0.093497,-0.131342,44.752342,-13.217683,4.113895,4635727599304179700.000000,0.481933,-0.609468,0.452094,0.438066,-12.179667,-0.948183,-4.486972,-1.317083,0.610070,-0.489077,44.404246,11.855986,1.154166,4635728888331239400.000000,0.611632,0.463835,0.457261,-0.449083,0
