Accelerometer-X,Accelerometer-Y,Accelerometer-Z,Gyroscope-X,Gyroscope-Y,Gyroscope-Z,Magnetometer-X,Magnetometer-Y,Magnetometer-Z,Barometer-pressure,Orientation-S,Orientation-X,Orientation-Y,Orientation-Z,Accelerometer-X,Accelerometer-Y,Accelerometer-Z,Gyroscope-X,Gyroscope-Y,Gyroscope-Z,Magnetometer-X,Magnetometer-Y,Magnetometer-Z,Barometer-pressure,Orientation-S,Orientation-X,Orientation-Y,Orientation-Z,Accelerometer-X,Accelerometer-Y,Accelerometer-Z,Gyroscope-X,Gyroscope-Y,Gyroscope-Z,Magnetometer-X,Magnetometer-Y,Magnetometer-Z,Barometer-pressure,Orientation-S,Orientation-X,Orientation-Y,Orientation-Z,jump
-9.086764,-1.834986,0.286421,0.405899,-0.007420,0.076831,43.657551,-1.232043,15.652862,4635731787434164200.000000,0.735498,-0.055728,0.674115,0.038793,-9.297690,0.072280,-2.199873,0.112293,0.148473,0.214243,40.180609,-21.413479,11.465292,4635727599304179700.000000,-0.432085,0.540377,-0.644581,-0.325284,-9.285663,3.532720,-0.679139,-0.126833,-0.126380,1.065773,42.721512,16.867527,1.334854,4635729425202151400.000000,0.570258,0.379513,0.532839,-0.496848,0
-8.951007,-1.894827,0.184901,0.446172,0.052260,0.103558,43.714710,-1.079911,15.595403,4635731763866735600.000000,0.735411,-0.054129,0.674395,0.037837,-9.302889,0.223974,-2.296688,0.131372,0.144284,0.205020,40.235600,-21.521541,11.570811,4635727599304179700.000000,-0.431351,0.540356,-0.645047,-0.325370,-9.375048,2.988142,-0.744652,-0.537530,-0.130665,1.006327,42.945092,16.557809,1.362975,4635729425202151400.000000,0.573499,0.380111,0.532034,-0.493512,0
-8.856027,-1.907034,0.055678,0.470193,0.078521,0.119737,43.698634,-1.050726,15.686213,4635731680059981800.000000,0.735250,-0.052416,0.674760,0.036858,-9.339509,0.380965,-2.356874,0.142518,0.134058,0.184579,40.179038,-21.661975,11.668463,4635727599304179700.000000,-0.430699,0.540355,-0.645464,-0.325409,-9.566025,2.414178,-0.647315,-0.851762,-0.127124,0.953252,43.087876,16.325878,1.586318,4635729425202151400.000000,0.577108,0.379838,0.531954,-0.489587,0
-8.789330,-1.916562,0.041980,0.478061,0.096080,0.122733,43.622717,-1.218942,15.771965,4635731680059981800.000000,0.735038,-0.050673,0.675178,0.035861,-9.363078,0.464727,-2.397847,0.153644,0.123535,0.162295,40.046449,-21.686514,11.761771,4635727599304179700.000000,-0.430130,0.540378,-0.645829,-0.325400,-9.887220,2.023033,-0.484589,-1.097574,-0.122844,0.909082,43.075986,15.939783,1.757633,4635729425202151400.000000,0.580988,0.378871,0.532438,-0.485201,0
-8.808066,-1.911209,0.093155,0.474520,0.118816,0.113646,43.574750,-1.289285,15.769289,4635731680059981800.000000,0.734760,-0.048969,0.675660,0.034841,-9.489239,0.588355,-2.490178,0.157728,0.109798,0.147183,40.017557,-21.601066,11.816767,4635727599304179700.000000,-0.429629,0.540413,-0.646142,-0.325381,-10.131735,1.754344,-0.289373,-1.290996,-0.137382,0.879494,43.169064,15.524623,1.794488,4635729425202151400.000000,0.585123,0.377327,0.533303,-0.480462,0
-8.914929,-1.889471,0.210202,0.466444,0.152425,0.088405,43.657526,-1.045137,15.757081,4635731680059981800.000000,0.734386,-0.047366,0.676235,0.033759,-9.708395,0.777765,-2.630623,0.124090,0.096760,0.131101,40.034251,-21.550416,11.851562,4635727599304179700.000000,-0.429109,0.540535,-0.646349,-0.325453,-10.233732,1.453446,-0.154854,-1.443099,-0.170814,0.858835,43.494044,15.239447,1.786378,4635729425202151400.000000,0.589501,0.375283,0.534397,-0.475469,0
-9.114119,-1.874585,0.174217,0.460503,0.179965,0.053153,43.714710,-0.870583,15.768969,4635731703610117100.000000,0.733936,-0.045884,0.676884,0.032581,-9.657887,0.749992,-2.707373,0.100479,0.074490,0.105994,39.953152,-21.614809,11.914426,4635727599304179700.000000,-0.428628,0.540741,-0.646425,-0.325595,-10.246108,1.075154,0.015812,-1.527681,-0.212110,0.848833,43.791480,14.910156,1.847168,4635729425202151400.000000,0.594054,0.372909,0.535543,-0.470353,0
-9.359823,-1.836759,-0.014601,0.454352,0.204330,0.020944,43.698626,-0.930443,15.826443,4635731787434164200.000000,0.733417,-0.044514,0.677596,0.031316,-9.577627,0.671407,-2.768406,0.101781,0.047481,0.087222,39.879914,-21.747406,11.879642,4635727599304179700.000000,-0.428244,0.540965,-0.646407,-0.325765,-10.185245,0.623701,0.174656,-1.538163,-0.274699,0.842074,43.881518,14.620976,2.009692,4635729425202151400.000000,0.598718,0.370350,0.536536,-0.465302,0
-9.561992,-1.740581,-0.128635,0.439657,0.219649,0.001457,43.603931,-0.902434,15.778526,4635731787434164200.000000,0.732852,-0.043246,0.678348,0.030030,-9.546189,0.693147,-2.785963,0.100406,0.021465,0.068917,39.828408,-21.771986,11.851550,4635727599304179700.000000,-0.427954,0.541201,-0.646302,-0.325961,-9.978173,0.131434,0.122431,-1.428146,-0.318947,0.859430,43.845073,14.384956,2.140126,4635729425202151400.000000,0.603314,0.367998,0.537150,-0.460499,0
-9.739751,-1.608972,-0.195318,0.414069,0.229652,-0.008780,43.454470,-0.731518,15.885439,4635731787434164200.000000,0.732253,-0.042086,0.679121,0.028783,-9.546189,0.641137,-2.742318,0.099645,-0.001434,0.046867,39.820549,-21.660447,11.949210,4635727599304179700.000000,-0.427760,0.541455,-0.646115,-0.326165,-9.790695,0.214741,0.689489,-1.266154,-0.463084,0.849607,43.986747,13.998954,2.172918,4635729425202151400.000000,0.607938,0.365738,0.537079,-0.456282,0
-9.876986,-1.497633,-0.184595,0.371606,0.223553,-0.007502,43.413404,-0.616929,16.028320,4635731763853850600.000000,0.731661,-0.041051,0.679869,0.027662,-9.541842,0.454352,-2.708374,0.103215,-0.020118,0.028928,39.850982,-21.584359,12.012085,4635727599304179700.000000,-0.427648,0.541725,-0.645859,-0.326368,-10.114453,1.322816,1.665823,-1.237528,-0.520938,0.853752,44.190340,13.478357,2.237778,4635729425202151400.000000,0.612630,0.363432,0.536778,-0.452185,0
-9.919257,-1.429750,-0.143808,0.324583,0.197188,0.003284,43.473243,-0.702381,16.071214,4635731680059981800.000000,0.731133,-0.040126,0.680530,0.026710,-9.560061,0.419398,-2.578630,0.118621,-0.040193,0.016419,39.936428,-21.722796,11.946887,4635727599304179700.000000,-0.427635,0.541988,-0.645549,-0.326563,-9.986875,1.470301,-1.289435,-0.845045,-0.463422,0.951726,44.211302,12.985796,2.408396,4635729425202151400.000000,0.616763,0.362439,0.535716,-0.448610,0
-9.894843,-1.378241,-0.145004,0.282482,0.178875,0.020114,43.464006,-0.750303,16.266527,4635731680059981800.000000,0.730646,-0.039279,0.681132,0.025932,-9.589840,0.427259,-2.398848,0.123468,-0.049895,0.005575,39.934950,-21.918300,11.794202,4635727599304179700.000000,-0.427669,0.542267,-0.645196,-0.326754,-8.862109,-1.835699,-2.921760,-0.531984,-0.519169,0.918192,44.288095,12.781333,2.348375,4635729425202151400.000000,0.620467,0.362061,0.533961,-0.445891,0
-9.865072,-1.309172,-0.183111,0.232388,0.176088,0.042673,43.416075,-0.664859,16.376087,4635731680059981800.000000,0.730155,-0.038520,0.681723,0.025365,-9.558396,0.444643,-2.304708,0.104623,-0.055074,-0.003188,39.745836,-21.942904,11.796504,4635727599304179700.000000,-0.427691,0.542586,-0.644795,-0.326985,-7.977059,-4.334112,-2.167667,-0.344110,-0.536661,0.772329,44.491312,12.659458,1.966630,4635729425202151400.000000,0.623639,0.361808,0.532018,-0.443989,0
-9.826960,-1.208836,-0.156320,0.188569,0.186691,0.061431,43.517597,-0.598163,16.223639,4635731680059981800.000000,0.729624,-0.037842,0.682343,0.024978,-9.606192,0.558644,-2.273060,0.070878,-0.063473,-0.017760,39.584263,-21.831389,12.014362,4635727599304179700.000000,-0.427687,0.542977,-0.644314,-0.327290,-8.351610,-4.416549,-2.045760,0.077968,-0.486162,0.750070,44.569229,12.245498,1.685112,4635729425202151400.000000,0.626012,0.362691,0.529450,-0.442998,0
-9.853739,-1.098980,-0.085138,0.152958,0.178828,0.079691,43.606654,-0.598163,16.349501,4635731680059981800.000000,0.729108,-0.037219,0.682938,0.024749,-9.731779,0.677618,-2.395956,0.011589,-0.072307,-0.035067,39.719769,-21.694422,12.164784,4635727599304179700.000000,-0.427599,0.543502,-0.643701,-0.327741,-8.237564,-4.280500,-1.483946,0.449627,-0.427063,0.750259,44.577334,11.906909,1.502001,4635729425202151400.000000,0.627682,0.364648,0.526342,-0.442731,0
-9.962423,-0.997147,-0.203039,0.120783,0.144909,0.101888,43.429211,-0.579417,16.797386,4635731680059981800.000000,0.728680,-0.036627,0.683429,0.024684,-9.776486,0.587833,-2.455566,-0.033380,-0.087496,-0.054763,40.013989,-21.661920,12.005511,4635727599304179700.000000,-0.427472,0.544146,-0.642948,-0.328316,-7.594824,-3.498755,-0.770582,0.656101,-0.420438,0.670029,44.621960,11.772242,1.245964,4635729353915692000.000000,0.628864,0.366977,0.522983,-0.443111,0
-9.988647,-0.969427,-0.322748,0.091709,0.111818,0.124188,43.238621,-0.531456,16.735794,4635731680059981800.000000,0.728339,-0.036056,0.683819,0.024774,-9.655485,0.542287,-2.349230,-0.056590,-0.095065,-0.067960,39.959668,-21.747365,11.782030,4635727675688933400.000000,-0.427330,0.544855,-0.642118,-0.328947,-7.308439,-2.837246,-0.350937,0.774497,-0.400313,0.558246,44.804557,11.540920,0.896269,4635729317827969000.000000,0.629601,0.369405,0.519619,-0.444004,0
-9.869570,-1.141192,-0.331097,0.062504,0.116421,0.149823,43.276108,-0.632972,16.538037,4635731680059981800.000000,0.727978,-0.035501,0.684224,0.025025,-9.482700,0.499941,-2.253211,-0.070404,-0.098484,-0.081085,39.747307,-21.741640,11.719108,4635727814052544500.000000,-0.427185,0.545614,-0.641236,-0.329597,-7.380965,-3.228705,-0.434543,0.866017,-0.341287,0.413822,44.991976,11.235735,0.712338,4635729317827969000.000000,0.629790,0.371862,0.516455,-0.445374,0
-9.682299,-1.449025,-0.271566,0.036506,0.161382,0.174519,43.409527,-0.791653,16.635687,4635731727143297000.000000,0.727481,-0.034959,0.684765,0.025418,-9.411908,0.340181,-2.221747,-0.079114,-0.105818,-0.092454,39.860149,-21.544717,11.684386,4635727814052544500.000000,-0.427052,0.546412,-0.640298,-0.330270,-7.628783,-4.131463,-0.917972,0.921701,-0.306964,0.222415,44.939979,11.133152,0.683615,4635729317827969000.000000,0.629453,0.374110,0.513567,-0.447303,0
-9.536987,-1.731619,-0.192642,0.015817,0.203022,0.194711,43.374737,-0.915555,16.711935,4635731894808346600.000000,0.726860,-0.034427,0.685433,0.025925,-9.424927,0.305997,-2.217408,-0.077382,-0.108642,-0.103135,40.064697,-21.387371,11.690883,4635727814052544500.000000,-0.426944,0.547232,-0.639330,-0.330927,-7.678665,-4.423288,-1.289153,0.972919,-0.241656,0.016605,44.724551,11.181773,0.562061,4635729317827969000.000000,0.628500,0.376168,0.511067,-0.449773,0
-9.428637,-1.860875,-0.177761,0.007009,0.217038,0.208859,43.216056,-0.953005,16.736010,4635731894808346600.000000,0.726194,-0.033881,0.686143,0.026498,-9.470231,0.320920,-2.218220,-0.068219,-0.112678,-0.113817,40.034316,-21.356990,11.851488,4635727814052544500.000000,-0.426888,0.548044,-0.638353,-0.331542,-7.937685,-2.591557,-1.646871,1.134840,-0.151928,-0.092049,44.577642,11.303645,0.314110,4635729317827969000.000000,0.626884,0.378582,0.508658,-0.452724,0
-9.279478,-1.855868,-0.129275,0.004405,0.232634,0.216102,43.092133,-1.102507,16.843199,4635731894808346600.000000,0.725482,-0.033325,0.686899,0.027098,-9.505228,0.279150,-2.238294,-0.060292,-0.116737,-0.124497,40.005280,-21.271544,11.879713,4635727814052544500.000000,-0.426881,0.548852,-0.637363,-0.332118,-8.705166,2.127490,-1.903813,1.218350,-0.115388,-0.027792,44.698756,11.409600,-0.031433,4635729317827969000.000000,0.625161,0.381412,0.506073,-0.455619,0
-9.136836,-1.732640,-0.019067,-0.003377,0.262469,0.219469,43.108176,-1.143660,16.919460,4635731894808346600.000000,0.724682,-0.032785,0.687745,0.027726,-9.488682,0.236280,-2.211449,-0.046953,-0.117638,-0.135938,40.026455,-21.277216,11.712626,4635727814052544500.000000,-0.426923,0.549661,-0.636365,-0.332638,-9.442531,6.531812,-1.989695,1.032708,-0.156104,0.100016,44.825362,11.446438,-0.223505,4635729317827969000.000000,0.624046,0.383944,0.503521,-0.457844,0
-9.054053,-1.567074,-0.008024,-0.022269,0.278757,0.213161,43.168053,-1.121230,16.962255,4635731894808346600.000000,0.723831,-0.032322,0.688635,0.028387,-9.494641,0.309236,-2.157181,-0.036388,-0.122908,-0.150275,39.983585,-21.443780,11.458701,4635727737719332900.000000,-0.427017,0.550492,-0.635328,-0.333126,-9.720858,7.124108,-1.524103,0.694717,-0.180507,0.160851,44.744697,11.288541,-0.313057,4635729317827969000.000000,0.623629,0.385673,0.501446,-0.459233,0
-8.980817,-1.423276,-0.055335,-0.035686,0.291643,0.210324,43.158873,-1.298619,17.117452,4635731894808346600.000000,0.722941,-0.031909,0.689560,0.029076,-9.555673,0.479317,-2.198947,-0.040731,-0.125732,-0.166984,40.047850,-21.485333,11.340677,4635727599304179700.000000,-0.427123,0.551384,-0.634228,-0.333612,-9.122015,4.948907,-0.949730,0.368439,-0.105761,0.113853,44.691303,11.206396,-0.406597,4635729317827969000.000000,0.623485,0.386597,0.500263,-0.459941,0
-8.920940,-1.297023,-0.108714,-0.048837,0.323223,0.204516,43.110837,-1.489303,17.126987,4635731894808346600.000000,0.721957,-0.031555,0.690577,0.029781,-9.608030,0.534717,-2.280856,-0.049416,-0.129766,-0.184902,40.176170,-21.349143,11.305983,4635727599304179700.000000,-0.427245,0.552329,-0.633066,-0.334097,-8.339939,2.817698,-0.918944,0.176326,-0.002811,0.017427,44.634615,11.157807,-0.504252,4635729317827969000.000000,0.623249,0.387019,0.499869,-0.460334,0
-8.919420,-1.202038,-0.053022,-0.064657,0.381002,0.197740,43.161555,-1.505334,17.191109,4635731894808346600.000000,0.720803,-0.031276,0.691762,0.030503,-9.627303,0.450868,-2.343822,-0.064132,-0.135346,-0.204369,40.223392,-21.271554,11.238681,4635727599304179700.000000,-0.427379,0.553334,-0.631834,-0.334595,-7.968046,1.610271,-1.264139,0.107290,0.087304,-0.080864,44.613948,11.076464,-0.529028,4635729317827969000.000000,0.622746,0.387231,0.500001,-0.460693,0
-8.966723,-1.124605,-0.029757,-0.072367,0.440380,0.194403,43.053593,-1.615966,17.526801,4635731847822476300.000000,0.719475,-0.031036,0.693122,0.031229,-9.589073,0.396899,-2.317798,-0.078875,-0.139000,-0.218872,40.279777,-21.155746,11.200451,4635727599304179700.000000,-0.427512,0.554388,-0.630547,-0.335108,-7.922482,1.209025,-1.606283,0.095774,0.144769,-0.147232,44.723323,11.047700,-0.403460,4635729317827969000.000000,0.622016,0.387384,0.500411,-0.461106,0
-9.070888,-1.097147,-0.059518,-0.081615,0.482638,0.195104,42.834993,-1.771959,17.908260,4635731680059981800.000000,0.718020,-0.030827,0.694604,0.031979,-9.512301,0.294109,-2.240223,-0.082487,-0.142752,-0.229103,40.382092,-21.075917,11.180049,4635727599304179700.000000,-0.427662,0.555464,-0.629225,-0.335620,-8.088669,1.443124,-1.587570,0.082671,0.180411,-0.177957,44.776756,11.209655,-0.220341,4635729317827969000.000000,0.621172,0.387507,0.500989,-0.461512,0
-9.228425,-1.151317,-0.094988,-0.094299,0.493484,0.199010,42.701496,-1.647999,17.908260,4635731680059981800.000000,0.716528,-0.030645,0.696114,0.032775,-9.485952,0.133819,-2.163447,-0.075629,-0.146237,-0.235062,40.386427,-21.161366,11.243018,4635727599304179700.000000,-0.427846,0.556533,-0.627893,-0.336109,-8.263932,2.072856,-1.339666,0.027654,0.223794,-0.210299,44.671477,11.437616,-0.093910,4635729317827969000.000000,0.620263,0.387503,0.501837,-0.461817,0
-9.330262,-1.203195,-0.082783,-0.111018,0.493017,0.204717,42.704165,-1.717389,17.996331,4635731680059981800.000000,0.715031,-0.030496,0.697617,0.033636,-9.522572,-0.026009,-2.102414,-0.065637,-0.154193,-0.237129,40.389964,-21.125437,11.138984,4635727599304179700.000000,-0.428072,0.557583,-0.626547,-0.336592,-8.475167,2.716125,-1.139903,-0.074014,0.260169,-0.259373,44.715215,11.519677,-0.125807,4635729317827969000.000000,0.619345,0.387204,0.503052,-0.461978,0
-9.400831,-1.173447,-0.086583,-0.128609,0.494382,0.210022,42.713703,-1.965392,18.351121,4635731680059981800.000000,0.713522,-0.030383,0.699119,0.034563,-9.533185,-0.068910,-2.067386,-0.057990,-0.156399,-0.236750,40.438443,-20.869081,10.880684,4635727599304179700.000000,-0.428314,0.558625,-0.625196,-0.337069,-8.856916,2.998522,-0.722171,-0.196099,0.281575,-0.315260,44.821215,11.572361,-0.045362,4635729317827969000.000000,0.618469,0.386514,0.504646,-0.461991,0
-9.459201,-1.108612,-0.134281,-0.143160,0.507568,0.221439,42.695030,-1.930712,18.451534,4635731680059981800.000000,0.711968,-0.030282,0.700656,0.035565,-9.526906,-0.061037,-2.101267,-0.056233,-0.162568,-0.235681,40.540787,-20.677748,10.819744,4635727599304179700.000000,-0.428575,0.559646,-0.623839,-0.337556,-9.421924,3.039644,0.159070,-0.327448,0.286623,-0.368331,44.752855,11.807511,0.263162,4635729317827969000.000000,0.617690,0.385380,0.506590,-0.461852,0
-9.521369,-0.997208,-0.120943,-0.167494,0.517783,0.227848,42.612248,-1.857381,18.365589,4635731680059981800.000000,0.710376,-0.030235,0.702216,0.036656,-9.584402,-0.052369,-2.183177,-0.057819,-0.171801,-0.236889,40.566791,-20.626177,10.937834,4635727599304179700.000000,-0.428866,0.560642,-0.622472,-0.338057,-9.979698,3.298662,1.168351,-0.483271,0.274932,-0.406849,44.598285,11.906331,0.390637,4635729317827969000.000000,0.617106,0.383740,0.508863,-0.461501,0
-9.623232,-0.921296,-0.067909,-0.187959,0.522827,0.234257,42.539002,-2.073316,18.689448,4635731680059981800.000000,0.708761,-0.030231,0.703785,0.037824,-9.622975,-0.006289,-2.263495,-0.062711,-0.180346,-0.240712,40.614029,-20.618303,10.903167,4635727599304179700.000000,-0.429178,0.561633,-0.621080,-0.338577,-10.286077,3.503134,1.728165,-0.635035,0.253591,-0.428270,44.536721,11.902218,0.325878,4635729317827969000.000000,0.616761,0.381621,0.511399,-0.460914,0
-9.696473,-0.857185,-0.040829,-0.198505,0.512550,0.239965,42.431089,-2.216002,19.016056,4635731680059981800.000000,0.707170,-0.030238,0.705317,0.039040,-9.594226,0.031496,-2.299325,-0.063710,-0.188133,-0.242539,40.644363,-20.561971,10.805507,4635727599304179700.000000,-0.429508,0.562616,-0.619667,-0.339115,-10.279029,3.224468,1.721903,-0.757981,0.241424,-0.452083,44.492135,12.056010,0.608656,4635729317827969000.000000,0.616585,0.379106,0.514173,-0.460138,0
-9.769706,-0.861396,-0.012207,-0.211689,0.496222,0.243869,42.231169,-2.282784,19.135020,4635731680059981800.000000,0.705619,-0.030269,0.706796,0.040309,-9.566272,-0.051981,-2.298536,-0.055061,-0.196815,-0.244985,40.725473,-20.429286,10.707861,4635727599304179700.000000,-0.429884,0.563576,-0.618241,-0.339648,-10.128698,2.602710,1.360735,-0.837555,0.244223,-0.486227,44.463475,12.239379,0.833817,4635729317827969000.000000,0.616454,0.376313,0.517152,-0.459267,0
-9.824293,-0.855642,-0.028205,-0.220038,0.493153,0.249578,42.148374,-2.317445,19.351686,4635731680059981800.000000,0.704071,-0.030307,0.708261,0.041619,-9.554068,-0.116186,-2.269798,-0.031120,-0.208493,-0.246053,40.803029,-20.283249,10.575593,4635727599304179700.000000,-0.430485,0.564225,-0.617052,-0.339970,-9.965901,2.133543,0.811983,-0.892781,0.253115,-0.521485,44.564569,12.349505,0.793890,4635729317827969000.000000,0.616309,0.373314,0.520304,-0.458348,0
-9.801423,-0.914011,-0.093449,-0.220505,0.492576,0.253016,42.056469,-2.494798,19.604668,4635731680059981800.000000,0.702520,-0.030335,0.709720,0.042940,-9.559176,-0.078353,-2.263478,-0.008962,-0.218864,-0.246742,40.827876,-20.087498,10.414906,4635727599304179700.000000,-0.431165,0.564819,-0.615874,-0.340258,-9.847673,1.844282,0.230029,-0.946882,0.265561,-0.547875,44.407657,12.580616,0.951076,4635729317827969000.000000,0.616158,0.370136,0.523621,-0.457351,0
-9.743056,-0.965501,-0.114080,-0.222874,0.514267,0.256355,41.863147,-2.701617,19.693207,4635731680059981800.000000,0.700899,-0.030364,0.711238,0.044275,-9.582811,-0.127182,-2.212742,0.004924,-0.227962,-0.246742,40.772728,-20.062651,10.386509,4635727599304179700.000000,-0.431764,0.565619,-0.614472,-0.340705,-9.822844,1.523216,-0.295125,-0.991094,0.274489,-0.569597,44.203570,12.885777,1.365401,4635729317827969000.000000,0.616001,0.366805,0.527067,-0.456287,0
-9.699557,-1.018543,-0.117425,-0.224447,0.538406,0.253558,41.580399,-2.758873,19.724064,4635731680059981800.000000,0.699201,-0.030409,0.712821,0.045602,-9.600127,-0.158696,-2.028420,0.010856,-0.233750,-0.245985,40.833332,-20.148103,10.419235,4635727599304179700.000000,-0.432391,0.566394,-0.613068,-0.341151,-9.907869,1.201579,-0.658063,-1.016802,0.272403,-0.586711,44.154179,13.093859,1.776743,4635729317827969000.000000,0.615842,0.363354,0.530570,-0.455201,0
-9.677808,-1.037629,-0.245255,-0.219709,0.554523,0.240742,41.493623,-2.812132,19.906926,4635731726905737200.000000,0.697454,-0.030481,0.714445,0.046876,-9.653286,-0.137052,-2.000023,-0.001099,-0.242674,-0.243470,40.999906,-20.203253,10.294823,4635727599304179700.000000,-0.433002,0.567178,-0.611626,-0.341661,-9.973306,0.839757,-0.764950,-1.008419,0.269533,-0.589630,43.781996,13.551919,2.033809,4635729317827969000.000000,0.615654,0.359906,0.534041,-0.454134,0
-9.689560,-1.024319,-0.292978,-0.214465,0.569925,0.226993,41.627247,-3.037629,20.331298,4635731894808346600.000000,0.695659,-0.030580,0.716108,0.048092,-9.697007,-0.093331,-2.076036,-0.020771,-0.251908,-0.242159,41.102325,-20.142655,10.099513,4635727599304179700.000000,-0.433584,0.567984,-0.610134,-0.342251,-9.977566,0.424882,-0.720527,-0.948472,0.263510,-0.580763,43.002071,14.364489,2.229112,4635729317827969000.000000,0.615404,0.356598,0.537365,-0.453161,0
-9.784566,-0.949960,-0.303631,-0.215261,0.566157,0.208736,41.611267,-3.161717,20.505329,4635731894808346600.000000,0.693874,-0.030735,0.717752,0.049257,-9.700558,-0.141709,-2.099673,-0.041686,-0.258938,-0.242402,41.158583,-19.971764,9.973449,4635727599304179700.000000,-0.434135,0.568811,-0.608601,-0.342908,-10.030074,0.046177,-0.720090,-0.846782,0.244348,-0.561228,42.596334,14.875535,2.294992,4635729317827969000.000000,0.615069,0.353551,0.540407,-0.452384,0
-9.859362,-0.825229,-0.349795,-0.223902,0.556544,0.185607,41.516724,-3.143079,20.602983,4635731894808346600.000000,0.692116,-0.030982,0.719359,0.050382,-9.679696,-0.304732,-2.065054,-0.045834,-0.265861,-0.238061,41.286988,-19.831153,10.042688,4635727599304179700.000000,-0.434693,0.569611,-0.607066,-0.343593,-10.066990,-0.251212,-0.780981,-0.723649,0.231814,-0.542683,42.494263,14.929947,2.424423,4635729317827969000.000000,0.614606,0.350831,0.543149,-0.451848,0
-9.903961,-0.712255,-0.413018,-0.238115,0.545769,0.160208,41.367134,-3.129479,20.743196,4635731871405620200.000000,0.690389,-0.031343,0.720924,0.051477,-9.660383,-0.445340,-1.993360,-0.024094,-0.275717,-0.229002,41.334267,-19.745705,10.168767,4635727599304179700.000000,-0.435464,0.570064,-0.605816,-0.344071,-10.030661,-0.333718,-0.886583,-0.605381,0.237438,-0.525245,42.105531,15.099386,2.749172,4635729317827969000.000000,0.613982,0.348459,0.545649,-0.451519,0
-9.969226,-0.664982,-0.574391,-0.253617,0.535471,0.135872,41.277911,-3.373650,21.081453,4635731787434164200.000000,0.688691,-0.031818,0.722447,0.052549,-9.655286,-0.504830,-1.994903,-0.000150,-0.284776,-0.215875,41.334267,-19.690542,10.099551,4635727599304179700.000000,-0.436148,0.570684,-0.604369,-0.344721,-9.945363,-0.086946,-0.943940,-0.524014,0.252725,-0.516289,41.596684,15.659260,3.066982,4635729317827969000.000000,0.613215,0.346341,0.548016,-0.451325,0
-9.984558,-0.592840,-0.718674,-0.255520,0.545838,0.114935,41.144736,-3.599157,21.494112,4635731787434164200.000000,0.686962,-0.032363,0.723993,0.053566,-9.601359,-0.508385,-2.035081,0.027311,-0.298661,-0.206775,41.394831,-19.690542,9.869625,4635727599304179700.000000,-0.436916,0.571211,-0.602953,-0.345355,-9.855803,0.368189,-0.895568,-0.505568,0.268398,-0.517678,41.803928,15.845517,3.218326,4635729317827969000.000000,0.612376,0.344291,0.550386,-0.451148,0
-9.931508,-0.592362,-0.762177,-0.257984,0.571565,0.103187,41.077911,-3.704644,21.549208,4635731787434164200.000000,0.685153,-0.032956,0.725605,0.054552,-9.541864,-0.496178,-1.998938,0.051986,-0.309140,-0.198718,41.561403,-19.629985,9.580985,4635727599304179700.000000,-0.437755,0.571657,-0.601569,-0.345968,-9.794617,0.852462,-0.793956,-0.559017,0.286888,-0.526902,42.850534,15.165866,3.295682,4635729317827969000.000000,0.611176,0.342572,0.552627,-0.451345,0
-9.920393,-0.693784,-0.767972,-0.263833,0.597286,0.092135,41.043327,-3.656429,21.515388,4635731787434164200.000000,0.683263,-0.033604,0.727283,0.055520,-9.551280,-0.449375,-1.874083,0.063021,-0.313791,-0.187549,41.663868,-19.489367,9.330508,4635727599304179700.000000,-0.438610,0.572051,-0.600211,-0.346591,-9.753875,1.191085,-0.684094,-0.679435,0.312134,-0.548555,43.659363,14.686464,3.441689,4635729317827969000.000000,0.610400,0.340099,0.555458,-0.450788,0
-9.957014,-0.873757,-0.749497,-0.262436,0.595864,0.084288,40.903256,-3.757838,21.713361,4635731740639943700.000000,0.681373,-0.034271,0.728950,0.056461,-9.608759,-0.369780,-1.801605,0.060372,-0.319132,-0.183654,41.663868,-19.464458,9.204382,4635727599304179700.000000,-0.439467,0.572427,-0.598849,-0.347241,-9.701082,1.306032,-0.638907,-0.832110,0.337784,-0.577382,43.743887,14.822473,3.624800,4635729317827969000.000000,0.609717,0.337214,0.558672,-0.449908,0
-9.996290,-1.095520,-0.873128,-0.255795,0.549146,0.079181,40.811409,-3.916515,21.896936,4635731572685799400.000000,0.679623,-0.034923,0.730480,0.057374,-9.651732,-0.354015,-1.726833,0.050247,-0.322959,-0.182342,41.663868,-19.489370,9.204382,4635727599304179700.000000,-0.440311,0.572801,-0.597476,-0.347921,-9.615798,1.189054,-0.626701,-0.978866,0.363056,-0.607287,43.536698,14.970075,3.751308,4635729317827969000.000000,0.609111,0.333928,0.562254,-0.448717,0
-10.013224,-1.158622,-0.894789,-0.252737,0.503882,0.074443,40.652725,-4.006100,22.034454,4635731572685799400.000000,0.678007,-0.035569,0.731878,0.058270,-9.643848,-0.341046,-1.630707,0.033403,-0.324027,-0.181830,41.689806,-19.347726,9.169798,4635727599304179700.000000,-0.441120,0.573190,-0.596084,-0.348641,-9.663647,0.985660,-0.565993,-1.097929,0.378081,-0.627999,43.353269,14.990691,3.978301,4635729246726236200.000000,0.608579,0.330310,0.566110,-0.447266,0
-9.926194,-1.052392,-0.721811,-0.267416,0.496930,0.066871,40.494023,-3.879296,22.339161,4635731572685799400.000000,0.676409,-0.036277,0.733247,0.059191,-9.652495,-0.313069,-1.594847,0.014999,-0.326230,-0.178759,41.737110,-19.159777,9.102400,4635727599304179700.000000,-0.441886,0.573597,-0.594669,-0.349417,-9.761471,0.745800,-0.391621,-1.172568,0.384865,-0.633412,43.146071,15.192781,4.263195,4635729210453786600.000000,0.608104,0.326494,0.570110,-0.445630,0
-9.895964,-0.789198,-0.675648,-0.288310,0.522328,0.053497,40.372540,-3.922860,22.689879,4635731572685799400.000000,0.674729,-0.037090,0.734677,0.060133,-9.668263,-0.326798,-1.565350,0.001559,-0.328611,-0.180962,41.767368,-19.134844,9.064258,4635727599304179700.000000,-0.442626,0.574029,-0.593222,-0.350229,-9.895411,0.457135,-0.002171,-1.192760,0.377476,-0.625632,43.019222,15.497942,4.608604,4635729210453786600.000000,0.607669,0.322620,0.574099,-0.443921,0
-9.935237,-0.555691,-0.654956,-0.306838,0.535977,0.034505,40.363510,-4.148403,22.852259,4635731572685799400.000000,0.673004,-0.038017,0.736132,0.061076,-9.655300,-0.387827,-1.508641,-0.007987,-0.327921,-0.181831,41.822563,-19.215965,8.974495,4635727599304179700.000000,-0.443340,0.574480,-0.591757,-0.351065,-10.029855,0.232783,0.506227,-1.154933,0.358640,-0.596203,43.051048,15.706129,4.987018,4635729210453786600.000000,0.607263,0.318866,0.577913,-0.442237,0
-9.992030,-0.381608,-0.694233,-0.322163,0.502212,0.017275,40.315220,-4.272591,22.852259,4635731572685799400.000000,0.671380,-0.039029,0.737481,0.062022,-9.631641,-0.418618,-1.481416,-0.016976,-0.329056,-0.177625,41.792318,-19.207114,8.911405,4635727599304179700.000000,-0.444031,0.574927,-0.590289,-0.351929,-10.111518,0.017344,1.144295,-1.061187,0.330912,-0.540778,43.039516,15.864825,5.494761,4635729210453786600.000000,0.606886,0.315420,0.581394,-0.440660,0
-10.056245,-0.291913,-0.727135,-0.334749,0.436636,0.007106,40.363510,-4.238083,22.852259,4635731572685799400.000000,0.669954,-0.040091,0.738638,0.062989,-9.640284,-0.398523,-1.506588,-0.027970,-0.331504,-0.176622,41.763037,-19.044091,8.842267,4635727599304179700.000000,-0.444705,0.575373,-0.588813,-0.352821,-10.107902,-0.238822,1.427923,-0.938434,0.304181,-0.475987,42.865348,15.966941,5.817948,4635729210453786600.000000,0.606518,0.312384,0.584483,-0.439240,0
-10.054655,-0.214952,-0.662909,-0.346498,0.369531,0.010542,40.262135,-4.132474,22.894725,4635731572685799400.000000,0.668729,-0.041156,0.739601,0.064013,-9.638776,-0.386317,-1.516532,-0.031913,-0.332950,-0.176557,41.870837,-18.873201,8.612403,4635727599304179700.000000,-0.445370,0.575823,-0.587325,-0.353727,-10.596523,-1.073019,2.664778,-0.724707,0.186283,-0.403762,42.673818,16.040183,5.819323,4635729210453786600.000000,0.606279,0.309846,0.586778,-0.438306,0
-10.107192,-0.067418,-0.466014,-0.351747,0.330246,0.018064,40.087536,-4.249754,23.092679,4635731572685799400.000000,0.667618,-0.042202,0.740452,0.065081,-9.602906,-0.404350,-1.481416,-0.028528,-0.334330,-0.174042,42.067661,-18.732538,8.388547,4635727599304179700.000000,-0.446034,0.576266,-0.585832,-0.354643,-12.169527,-2.511246,5.004969,-0.429103,0.152233,-0.306712,42.664528,16.169991,5.786309,4635729210453786600.000000,0.605912,0.308229,0.588316,-0.437892,0
-10.206447,0.127900,-0.355072,-0.334517,0.289935,0.036363,39.871513,-4.449858,23.297552,4635731572685799400.000000,0.666628,-0.043133,0.741196,0.066153,-9.599340,-0.451674,-1.532510,-0.032176,-0.337355,-0.171594,42.281576,-18.647082,8.290884,4635727599304179700.000000,-0.446688,0.576707,-0.584327,-0.355584,-12.486682,-1.726784,4.300351,-0.115438,0.182515,-0.200251,42.745848,16.223639,5.778229,4635729210453786600.000000,0.605260,0.307721,0.589219,-0.437938,0
-10.264831,0.320566,-0.400191,-0.323417,0.245490,0.052013,39.731388,-4.498168,23.490218,4635731572685799400.000000,0.665770,-0.043971,0.741819,0.067242,-9.620193,-0.404131,-1.632988,-0.036317,-0.342497,-0.172038,42.327917,-18.591875,8.158636,4635727599304179700.000000,-0.447345,0.577144,-0.582806,-0.356545,-11.254769,-0.565086,2.667241,0.069563,0.231148,-0.091681,42.774742,16.272113,5.838735,4635729281516863500.000000,0.604447,0.308035,0.589767,-0.438102,0
-10.289785,0.485103,-0.401248,-0.326759,0.211867,0.065529,39.674061,-4.449856,23.636186,4635731572685799400.000000,0.665009,-0.044766,0.742349,0.068385,-9.639525,-0.356300,-1.607568,-0.033291,-0.340294,-0.174486,42.138945,-18.622136,7.967626,4635727599304179700.000000,-0.448003,0.577585,-0.581281,-0.357493,-10.645388,-1.109152,1.543273,0.198385,0.300500,-0.037509,42.677792,16.401913,6.122215,4635729317827969000.000000,0.603397,0.308932,0.590185,-0.438355,0
-10.239360,0.553587,-0.420908,-0.347375,0.198018,0.060005,39.655502,-4.551205,23.627182,4635731572685799400.000000,0.664287,-0.045632,0.742832,0.069579,-9.657577,-0.461839,-1.415820,-0.023233,-0.338669,-0.174798,41.951002,-18.677326,7.814780,4635727599304179700.000000,-0.448678,0.578009,-0.579770,-0.358415,-10.567842,-1.642969,1.151805,0.329066,0.346284,0.001554,42.628254,16.455580,6.314816,4635729317827969000.000000,0.602135,0.310336,0.590428,-0.438770,0
-10.253658,0.495764,-0.346063,-0.374168,0.234332,0.043801,39.570056,-4.693988,23.539084,4635731572685799400.000000,0.663450,-0.046632,0.743402,0.070804,-9.730812,-0.529239,-1.242888,-0.010795,-0.339983,-0.172974,41.982231,-18.677326,7.751701,4635727599304179700.000000,-0.449385,0.578394,-0.578283,-0.359309,-10.401780,-1.490912,0.634410,0.471041,0.360296,0.080003,42.684803,16.302084,6.291299,4635729317827969000.000000,0.600795,0.312314,0.590344,-0.439317,0
-10.379434,0.342920,-0.320043,-0.400739,0.257197,0.019232,39.521714,-4.779444,23.505044,4635731572685799400.000000,0.662542,-0.047787,0.744020,0.072039,-9.778130,-0.528484,-1.158949,-0.003583,-0.337091,-0.168257,42.256614,-18.616838,7.648005,4635727599304179700.000000,-0.450094,0.578753,-0.576823,-0.360188,-10.133586,-1.056308,-0.114342,0.594061,0.355034,0.156687,42.657157,16.272108,6.383571,4635729246773419000.000000,0.599444,0.314777,0.589917,-0.439978,0
-10.514835,0.128521,-0.340196,-0.409332,0.225540,-0.006026,39.588608,-4.843690,23.679139,4635731572685799400.000000,0.661734,-0.049035,0.744540,0.073237,-9.778130,-0.508390,-1.139610,-0.008432,-0.332818,-0.161914,42.555976,-18.471855,7.324770,4635727599304179700.000000,-0.450763,0.579122,-0.575365,-0.361090,-9.848698,-0.753819,-0.729719,0.659547,0.348593,0.194998,42.628254,16.401894,6.445509,4635729210453786600.000000,0.598085,0.317485,0.589299,-0.440710,0
-10.475560,-0.061512,-0.394328,-0.411792,0.178621,-0.032873,39.554161,-4.852680,23.737059,4635731572685799400.000000,0.661078,-0.050358,0.744922,0.074378,-9.765169,-0.509144,-1.151816,-0.020180,-0.329680,-0.155374,42.683463,-18.408764,7.045733,4635727599304179700.000000,-0.451382,0.579501,-0.573907,-0.362027,-9.697178,-0.425159,-1.303239,0.650680,0.342908,0.205068,42.733251,16.350581,6.251667,4635729210453786600.000000,0.596761,0.320184,0.588663,-0.441400,0
-10.410844,-0.227102,-0.488755,-0.416487,0.161613,-0.053820,39.429913,-4.956664,23.670155,4635731572685799400.000000,0.660477,-0.051753,0.745248,0.075480,-9.728547,-0.537879,-1.138103,-0.027772,-0.327477,-0.144692,42.546171,-18.443325,7.017196,4635727599304179700.000000,-0.451966,0.579858,-0.572476,-0.362991,-9.708645,0.207750,-1.800332,0.566672,0.328726,0.198379,42.835405,16.248425,6.152531,4635729210453786600.000000,0.595565,0.322632,0.588150,-0.441917,0
-10.283476,-0.360345,-0.638467,-0.411610,0.165241,-0.064179,39.448451,-5.124915,23.733714,4635731619273877500.000000,0.659866,-0.053167,0.745582,0.076537,-9.691928,-0.570179,-1.102985,-0.026638,-0.325095,-0.131744,42.422226,-18.476190,7.080294,4635727599304179700.000000,-0.452531,0.580174,-0.571091,-0.363963,-9.713150,0.811119,-2.058163,0.432999,0.307742,0.185924,42.763288,16.167112,6.281736,4635729210453786600.000000,0.594573,0.324677,0.587844,-0.442161,0
-10.150237,-0.445789,-0.703763,-0.403542,0.156285,-0.066972,39.499482,-5.230653,24.005487,4635731787434164200.000000,0.659284,-0.054564,0.745890,0.077563,-9.655310,-0.585955,-1.136780,-0.020789,-0.325785,-0.114278,42.499779,-18.390747,7.011211,4635727599304179700.000000,-0.453083,0.580435,-0.569751,-0.364959,-9.664507,1.021103,-2.023047,0.288070,0.285310,0.167453,42.657175,16.138187,6.355925,4635729210453786600.000000,0.593795,0.326275,0.587773,-0.442126,0
-10.048906,-0.539179,-0.764206,-0.377675,0.137432,-0.059173,39.442120,-5.179613,24.179626,4635731787434164200.000000,0.658761,-0.055860,0.746154,0.078534,-9.635960,-0.598911,-1.179799,-0.007840,-0.326163,-0.096496,42.580920,-18.305289,6.815877,4635727599304179700.000000,-0.453634,0.580631,-0.568467,-0.365962,-9.651924,0.908425,-1.759567,0.169313,0.265000,0.141144,42.684779,16.089736,6.416584,4635729210453786600.000000,0.593176,0.327478,0.587905,-0.441891,0
-9.887575,-0.661245,-0.892163,-0.347963,0.112597,-0.046356,39.460642,-5.274020,24.277279,4635731787434164200.000000,0.658317,-0.057025,0.746361,0.079455,-9.652485,-0.661441,-1.154638,0.009628,-0.326098,-0.079784,42.602345,-18.310522,6.724202,4635727599304179700.000000,-0.454202,0.580750,-0.567251,-0.366956,-9.728720,0.785794,-1.430006,0.086892,0.250014,0.120785,42.721777,16.064943,6.574690,4635729210453786600.000000,0.592668,0.328400,0.588179,-0.441524,0
-9.719307,-0.770093,-0.926736,-0.306908,0.081926,-0.034233,39.527573,-5.426408,24.335242,4635731787434164200.000000,0.657972,-0.058030,0.746498,0.080288,-9.655312,-0.736761,-1.092861,0.029296,-0.323584,-0.061119,42.555008,-18.420971,6.856391,4635727599304179700.000000,-0.454962,0.580508,-0.566402,-0.367707,-9.806284,0.764931,-1.060084,0.032648,0.240730,0.109003,42.669405,16.064943,6.640827,4635729210453786600.000000,0.592234,0.329142,0.588545,-0.441065,0
-9.571208,-0.846999,-0.860413,-0.264649,0.088945,-0.027630,39.474659,-5.456292,24.225987,4635731787434164200.000000,0.657612,-0.058900,0.746670,0.081006,-9.618690,-0.736017,-1.011726,0.050971,-0.321135,-0.040264,42.550691,-18.330310,6.879022,4635727599304179700.000000,-0.455741,0.580171,-0.565647,-0.368435,-9.867319,0.760995,-0.709822,0.002965,0.238197,0.102921,42.648533,16.008440,6.640827,4635729210453786600.000000,0.591834,0.329793,0.588967,-0.440554,0
-9.477215,-0.970697,-0.796127,-0.223828,0.150739,-0.033754,39.230510,-5.322428,24.051834,4635731787434164200.000000,0.657070,-0.059698,0.747022,0.081565,-9.586386,-0.733187,-0.942801,0.070510,-0.318178,-0.023865,42.516900,-18.164616,6.551523,4635727637272947700.000000,-0.456531,0.579767,-0.564961,-0.369146,-9.847642,0.668079,-0.533596,-0.004979,0.239609,0.098649,42.701092,15.931065,6.705395,4635729210453786600.000000,0.591432,0.330417,0.589412,-0.440030,0
-9.437947,-1.056149,-0.832146,-0.181707,0.211973,-0.042637,39.073670,-5.377987,23.977986,4635731787434164200.000000,0.656351,-0.060429,0.747553,0.081953,-9.540394,-0.730965,-0.881769,0.087912,-0.311014,-0.006398,42.499765,-18.194826,6.268810,4635727706678362100.000000,-0.457315,0.579303,-0.564352,-0.369836,-9.786608,0.509592,-0.379448,0.015844,0.245276,0.102145,42.733980,16.011162,6.859542,4635729210453786600.000000,0.590992,0.331112,0.589828,-0.439542,0
-9.402345,-1.120436,-0.985947,-0.141388,0.177278,-0.037990,39.253511,-5.629034,24.072179,4635731787434164200.000000,0.655748,-0.061023,0.748003,0.082238,-9.467889,-0.674983,-0.829364,0.102046,-0.303602,0.009117,42.611112,-18.219858,6.213568,4635727706678362100.000000,-0.458091,0.578783,-0.563818,-0.370503,-9.757852,0.338688,-0.309322,0.057069,0.256990,0.112446,42.786541,16.218280,6.978090,4635729210453786600.000000,0.590484,0.331956,0.590181,-0.439113,0
-9.454174,-1.102949,-1.191042,-0.109462,0.117440,-0.037242,39.401494,-5.776383,24.438942,4635731787434164200.000000,0.655338,-0.061506,0.748300,0.082440,-9.449269,-0.659200,-0.788428,0.111217,-0.299394,0.020176,42.743910,-18.164616,6.213568,4635727668722478100.000000,-0.458689,0.578488,-0.563061,-0.371373,-9.737577,0.401812,-0.329393,0.101583,0.264521,0.116428,42.867850,16.143564,7.015119,4635729210453786600.000000,0.589901,0.332933,0.590466,-0.438773,0
-9.649511,-1.050467,-1.171911,-0.062459,0.129598,-0.041977,39.157323,-5.615029,24.680097,4635731787434164200.000000,0.654904,-0.061880,0.748644,0.082480,-9.472945,-0.637628,-0.743916,0.117247,-0.294238,0.031169,42.768956,-18.190501,6.179054,4635727599304179700.000000,-0.459270,0.578162,-0.562350,-0.372240,-9.705094,0.601053,-0.349876,0.136903,0.269499,0.117134,42.799990,15.903565,7.083808,4635729210453786600.000000,0.589257,0.334009,0.590697,-0.438511,0
-9.828966,-0.927395,-1.187764,-0.016850,0.141019,-0.048848,38.984525,-5.481124,24.735477,4635731787434164200.000000,0.654448,-0.062154,0.749034,0.082356,-9.472945,-0.589534,-0.711608,0.119191,-0.285822,0.041915,42.687818,-18.237860,6.081395,4635727599304179700.000000,-0.459998,0.577547,-0.561963,-0.372880,-9.684609,0.687545,-0.410497,0.157995,0.274134,0.112554,42.645430,15.715899,7.189537,4635729352399543300.000000,0.588563,0.335132,0.590906,-0.438303,0
-9.937819,-0.751239,-1.274197,0.024426,0.111142,-0.057392,39.085805,-5.465283,24.616712,4635731787434164200.000000,0.654099,-0.062332,0.749353,0.082088,-9.460006,-0.569435,-0.695822,0.116428,-0.281550,0.052467,42.666340,-18.181788,6.018250,4635727599304179700.000000,-0.460693,0.576915,-0.561608,-0.373534,-9.656267,0.760366,-0.544350,0.172604,0.278406,0.102960,42.648106,15.766982,7.347802,4635729425202151400.000000,0.587819,0.336275,0.591112,-0.438148,0
-9.996221,-0.563826,-1.397926,0.067530,0.065932,-0.068018,39.191690,-5.370902,24.439865,4635731787434164200.000000,0.653906,-0.062410,0.749561,0.081668,-9.457880,-0.557229,-0.704445,0.117183,-0.275391,0.060007,42.713703,-18.048985,5.949268,4635727599304179700.000000,-0.461188,0.576535,-0.561013,-0.374403,-9.571242,0.874156,-0.670770,0.178724,0.277737,0.089455,42.781958,15.820795,7.466366,4635729425202151400.000000,0.587042,0.337399,0.591324,-0.438041,0
-10.029204,-0.407779,-1.480732,0.103266,0.037730,-0.085713,39.106244,-5.236976,24.332644,4635731787434164200.000000,0.653816,-0.062436,0.749700,0.081096,-9.523228,-0.545022,-0.707303,0.117810,-0.267664,0.068489,42.743883,-18.049760,5.788441,4635727599304179700.000000,-0.461647,0.576152,-0.560446,-0.375275,-9.485577,1.004297,-0.788704,0.166743,0.275238,0.067442,42.787374,15.772390,7.495346,4635729425202151400.000000,0.586245,0.338436,0.591580,-0.437962,0
-10.010071,-0.263952,-1.540771,0.120960,0.020498,-0.100348,39.073579,-5.255447,24.277220,4635731787434164200.000000,0.653789,-0.062453,0.749793,0.080434,-9.596469,-0.537126,-0.674993,0.113788,-0.263769,0.074520,42.859507,-18.268801,5.729583,4635727599304179700.000000,-0.462073,0.575771,-0.559892,-0.376162,-9.493003,0.969172,-0.926901,0.150341,0.270279,0.041808,42.706069,15.852414,7.438880,4635729425202151400.000000,0.585444,0.339348,0.591898,-0.437899,0
-10.036469,-0.124378,-1.531861,0.138138,0.003608,-0.106266,39.250768,-5.322428,24.374888,4635731787434164200.000000,0.653822,-0.062437,0.749844,0.079706,-9.669705,-0.537126,-0.646272,0.107066,-0.259434,0.081745,42.944203,-18.456152,5.703005,4635727599304179700.000000,-0.462462,0.575388,-0.559356,-0.377066,-9.582161,0.887433,-1.073384,0.136093,0.262459,0.011939,42.620619,16.003038,7.466356,4635729425202151400.000000,0.584610,0.340160,0.592250,-0.437907,0
-10.163819,0.029035,-1.464888,0.154420,-0.028321,-0.097634,39.407806,-5.303951,24.451429,4635731787434164200.000000,0.653955,-0.062338,0.749815,0.078959,-9.725710,-0.537126,-0.605344,0.105118,-0.253779,0.092426,42.892508,-18.378605,5.639820,4635727599304179700.000000,-0.462816,0.574989,-0.558856,-0.377981,-9.675896,1.011914,-1.090817,0.122913,0.252502,-0.015165,42.591629,16.004339,7.495346,4635729425202151400.000000,0.583767,0.340857,0.592640,-0.437962,0
-10.278633,0.165942,-1.475442,0.150667,-0.077623,-0.085972,39.249126,-5.236976,24.451429,4635731787434164200.000000,0.654237,-0.062197,0.749653,0.078269,-9.728582,-0.545743,-0.578056,0.109391,-0.248753,0.103485,42.888918,-18.353471,5.639820,4635727599304179700.000000,-0.463153,0.574558,-0.558403,-0.378891,-9.777471,1.038069,-1.001666,0.103039,0.248878,-0.037613,42.656150,15.826255,7.624386,4635729425202151400.000000,0.582920,0.341442,0.593089,-0.438026,0
-10.260167,0.280770,-1.521632,0.138284,-0.127454,-0.077572,39.140557,-5.236976,24.451429,4635731787434164200.000000,0.654669,-0.062046,0.749352,0.077654,-9.696269,-0.574466,-0.577339,0.115548,-0.243852,0.116742,42.810648,-18.438923,5.536418,4635727637200192500.000000,-0.463473,0.574087,-0.558005,-0.379799,-9.814753,0.980956,-0.964385,0.083775,0.246761,-0.065326,42.794127,15.747550,7.876148,4635729425202151400.000000,0.582056,0.341905,0.593609,-0.438110,0
-10.164176,0.278133,-1.542429,0.116778,-0.133817,-0.066746,39.232251,-5.202696,24.448793,4635731787434164200.000000,0.655111,-0.061919,0.749030,0.077137,-9.693396,-0.576621,-0.539999,0.123654,-0.242093,0.132010,42.592349,-18.464058,5.277908,4635727706678362100.000000,-0.463784,0.573564,-0.557663,-0.380711,-9.830881,0.915998,-0.867610,0.070918,0.242851,-0.087834,42.751210,15.844325,8.100467,4635729425202151400.000000,0.581178,0.342274,0.594175,-0.438220,0
-10.035171,0.263290,-1.503172,0.099774,-0.082522,-0.060654,39.375123,-5.025548,24.394400,4635731787434164200.000000,0.655387,-0.061835,0.748843,0.076677,-9.717093,-0.528510,-0.491888,0.126733,-0.238386,0.143634,42.542073,-18.434611,5.151524,4635727706678362100.000000,-0.464076,0.573008,-0.557366,-0.381626,-9.887548,0.786314,-0.809832,0.063766,0.243518,-0.103169,42.540225,15.998865,8.166753,4635729425202151400.000000,0.580278,0.342591,0.594776,-0.438349,0
-9.941127,0.238877,-1.462253,0.085804,-0.028500,-0.060739,39.439484,-4.834132,24.171073,4635731787434164200.000000,0.655490,-0.061806,0.748798,0.076246,-9.699866,-0.517018,-0.467475,0.122650,-0.231726,0.151487,42.682816,-18.512157,5.155831,4635727706678362100.000000,-0.464329,0.572452,-0.557092,-0.382552,-9.952727,0.676003,-0.757310,0.061953,0.245311,-0.111411,42.352529,15.947915,8.174816,4635729425202151400.000000,0.579360,0.342886,0.595396,-0.438492,0
-9.880776,0.225006,-1.442136,0.070874,-0.022822,-0.066857,39.395641,-4.868403,23.993106,4635731787434164200.000000,0.655574,-0.061840,0.748763,0.075845,-9.672570,-0.529225,-0.455981,0.112660,-0.230029,0.158902,42.738117,-18.567461,5.163732,4635727706678362100.000000,-0.464723,0.571634,-0.557097,-0.383289,-9.973449,0.590551,-0.692129,0.064775,0.247791,-0.108285,42.459914,15.789219,8.170897,4635729425202151400.000000,0.578435,0.343202,0.596011,-0.438629,0
-9.744851,0.257318,-1.374878,0.064904,-0.074775,-0.081747,39.239610,-5.011266,24.209460,4635731787434164200.000000,0.655823,-0.061919,0.748580,0.075434,-9.706309,-0.532819,-0.459575,0.102732,-0.229213,0.163489,42.707973,-18.511477,5.090522,4635727706678362100.000000,-0.465084,0.570823,-0.557100,-0.384054,-9.908921,0.367957,-0.703671,0.074694,0.254525,-0.105747,42.542801,15.791805,8.231281,4635729425202151400.000000,0.577483,0.343560,0.596621,-0.438775,0
-9.662995,0.315721,-1.269570,0.044734,-0.131555,-0.101642,39.158971,-5.025600,24.436588,4635731787434164200.000000,0.656250,-0.062097,0.748230,0.075048,-9.775243,-0.507696,-0.447368,0.091551,-0.225694,0.166693,42.682805,-18.434597,4.926067,4635727706678362100.000000,-0.465404,0.570032,-0.557097,-0.384845,-9.859655,0.074944,-0.784776,0.098808,0.263071,-0.097982,42.333046,15.966009,8.272479,4635729425202151400.000000,0.576487,0.344013,0.597194,-0.438950,0
-9.630679,0.351381,-1.314348,0.017782,-0.202935,-0.110480,39.299228,-4.797256,24.384870,4635731764266183700.000000,0.656895,-0.062354,0.747673,0.074739,-9.810447,-0.458867,-0.448077,0.077035,-0.223181,0.168391,42.712285,-18.572423,4.870754,4635727706678362100.000000,-0.465497,0.569531,-0.556812,-0.385886,-9.811037,0.128867,-0.834031,0.125187,0.268087,-0.083408,42.225407,16.145405,8.397631,4635729425202151400.000000,0.575465,0.344576,0.597709,-0.439149,0
-9.569641,0.352343,-1.471828,0.023752,-0.281951,-0.112616,39.338229,-4.628986,24.207989,4635731680059981800.000000,0.657788,-0.062577,0.746900,0.074428,-9.789630,-0.431564,-0.463881,0.068676,-0.219223,0.166946,42.578776,-18.738363,4.836314,4635727706678362100.000000,-0.465571,0.569043,-0.556529,-0.386924,-9.733872,0.312390,-0.858444,0.134930,0.269173,-0.068799,42.330273,16.255689,8.580728,4635729425202151400.000000,0.574452,0.345199,0.598188,-0.439333,0
-9.511240,0.388003,-1.402641,0.032169,-0.286700,-0.113831,39.305455,-4.470294,24.079690,4635731680059981800.000000,0.658697,-0.062779,0.746116,0.074088,-9.744402,-0.460987,-0.476793,0.069930,-0.216142,0.164810,42.360471,-18.708235,4.738663,4635727668821006300.000000,-0.465821,0.568303,-0.556512,-0.387733,-9.632292,0.285562,-0.955452,0.136361,0.267762,-0.054208,42.279246,16.276610,8.578313,4635729354255043600.000000,0.573464,0.345862,0.598639,-0.439488,0
-9.494005,0.346839,-1.181253,0.013405,-0.211811,-0.110773,39.445708,-4.327408,23.884390,4635731680059981800.000000,0.659366,-0.063046,0.745530,0.073795,-9.713494,-0.496200,-0.487591,0.081926,-0.218340,0.163427,42.310080,-18.713169,4.610875,4635727599304179700.000000,-0.465920,0.567805,-0.556236,-0.388738,-9.586953,0.115092,-1.089733,0.141663,0.268449,-0.043489,42.120549,16.272469,8.488720,4635729317827969000.000000,0.572484,0.346567,0.599064,-0.439632,0
-9.620622,0.202983,-1.045527,0.004146,-0.116410,-0.103443,39.468935,-4.297239,23.712764,4635731680059981800.000000,0.659735,-0.063344,0.745206,0.073527,-9.785246,-0.445261,-0.489702,0.099584,-0.221107,0.161167,42.425030,-18.849637,4.457896,4635727599304179700.000000,-0.466066,0.567278,-0.555971,-0.389710,-9.663462,0.137545,-1.207874,0.147023,0.265645,-0.034238,42.219947,16.280533,8.516186,4635729317827969000.000000,0.571518,0.347304,0.599458,-0.439770,0
-9.844660,0.050280,-1.092677,0.023372,-0.063565,-0.088847,39.344460,-4.465506,23.666798,4635731680059981800.000000,0.659939,-0.063561,0.745036,0.073225,-9.913809,-0.344712,-0.528522,0.107883,-0.221107,0.154006,42.402819,-18.871248,4.424779,4635727599304179700.000000,-0.466248,0.566740,-0.555715,-0.390640,-9.680692,0.384724,-1.148381,0.139299,0.263127,-0.026037,42.411555,16.284676,8.730667,4635729317827969000.000000,0.570584,0.348037,0.599849,-0.439871,0
-10.018910,-0.166796,-1.164965,0.043287,-0.084622,-0.060240,39.378660,-4.589983,23.743399,4635731680059981800.000000,0.660206,-0.063627,0.744821,0.072947,-9.909634,-0.262179,-0.504110,0.107507,-0.219978,0.146967,42.347481,-18.823816,4.415608,4635727599304179700.000000,-0.466443,0.566211,-0.555452,-0.391548,-9.652134,0.504425,-1.098666,0.121885,0.260647,-0.023499,42.372781,16.179837,8.898534,4635729246893747200.000000,0.569685,0.348729,0.600262,-0.439923,0
-10.095523,-0.348007,-1.181489,0.066637,-0.151432,-0.033161,39.555750,-4.537392,23.761806,4635731680059981800.000000,0.660677,-0.063525,0.744437,0.072688,-9.784655,-0.135815,-0.492596,0.103429,-0.216397,0.141566,42.377579,-18.849614,4.297006,4635727599304179700.000000,-0.466624,0.565710,-0.555174,-0.392449,-9.651912,0.415948,-1.211556,0.110421,0.253915,-0.017855,42.218241,16.117916,8.871311,4635729210453786600.000000,0.568828,0.349398,0.600670,-0.439944,0
-10.069230,-0.433457,-1.158764,0.092419,-0.196786,-0.010895,39.747307,-4.327431,23.805188,4635731680059981800.000000,0.661289,-0.063268,0.743941,0.072422,-9.716402,-0.074627,-0.474706,0.092311,-0.214006,0.131080,42.458732,-18.927157,4.331403,4635727599304179700.000000,-0.466791,0.565257,-0.554859,-0.393348,-9.672182,0.301718,-1.309885,0.113527,0.248898,-0.010721,42.164371,16.065393,8.838160,4635729210453786600.000000,0.567990,0.350084,0.601050,-0.439964,0
-9.944539,-0.489991,-1.087221,0.112549,-0.210737,0.001610,39.747307,-4.297177,23.700588,4635731680059981800.000000,0.661946,-0.062913,0.743415,0.072133,-9.701278,-0.147872,-0.405761,0.079177,-0.214698,0.117691,42.536276,-19.012609,4.394665,4635727599304179700.000000,-0.466951,0.564854,-0.554493,-0.394251,-9.712723,0.252437,-1.306418,0.122778,0.245694,-0.006429,42.220814,16.088906,8.967169,4635729210453786600.000000,0.567172,0.350771,0.601413,-0.439976,0
-9.802378,-0.420140,-1.006263,0.124758,-0.218985,0.009087,39.747307,-4.449682,23.615139,4635731680059981800.000000,0.662629,-0.062499,0.742871,0.071829,-9.734288,-0.216811,-0.366222,0.070814,-0.213945,0.108018,42.565838,-19.128144,4.330186,4635727599304179700.000000,-0.467104,0.564490,-0.554093,-0.395153,-9.721239,0.340893,-1.213364,0.123220,0.246017,-0.001814,42.241760,16.218579,9.089913,4635729210453786600.000000,0.566341,0.351497,0.601754,-0.440000,0
-9.626237,-0.250025,-1.025422,0.137953,-0.226123,0.013805,39.763066,-4.498353,23.524441,4635731680059981800.000000,0.663335,-0.062031,0.742312,0.071499,-9.757328,-0.239167,-0.361925,0.067174,-0.212185,0.098526,42.462522,-19.238867,4.207257,4635727599304179700.000000,-0.467261,0.564154,-0.553670,-0.396039,-9.700970,0.430945,-1.163849,0.110483,0.244626,0.000705,42.189246,16.320838,9.054437,4635729210453786600.000000,0.565534,0.352199,0.602110,-0.439990,0
-9.433550,-0.019940,-1.022796,0.144957,-0.202233,0.008005,39.838934,-4.415529,23.417204,4635731680059981800.000000,0.663970,-0.061569,0.741818,0.071126,-9.741508,-0.198930,-0.354015,0.061140,-0.209613,0.092809,42.329602,-19.268954,4.203645,4635727599304179700.000000,-0.467407,0.563845,-0.553231,-0.396920,-9.716863,0.427489,-1.200011,0.101857,0.241422,0.001774,42.156310,16.402145,9.021271,4635729281362238500.000000,0.564747,0.352879,0.602471,-0.439961,0
-9.255707,0.114329,-1.015840,0.138779,-0.169353,0.001447,39.924379,-4.358043,23.361557,4635731680059981800.000000,0.664503,-0.061153,0.741411,0.070745,-9.762996,-0.213195,-0.341122,0.059184,-0.206153,0.086024,42.304321,-19.380189,4.245935,4635727599304179700.000000,-0.467548,0.563562,-0.552777,-0.397787,-9.769604,0.326385,-1.269104,0.111691,0.239628,0.001431,42.111860,16.326377,9.214726,4635729317827969000.000000,0.563949,0.353577,0.602811,-0.439959,0
-9.123261,0.240737,-1.025422,0.136654,-0.140065,-0.001987,39.973076,-4.355418,23.459219,4635731680059981800.000000,0.664946,-0.060763,0.741083,0.070355,-9.819731,-0.298640,-0.317392,0.065712,-0.204649,0.079675,42.359688,-19.452938,4.274840,4635727599304179700.000000,-0.467713,0.563280,-0.552324,-0.398621,-9.806460,0.208220,-1.318168,0.133014,0.240676,0.007416,42.042760,16.216041,9.443227,4635729317827969000.000000,0.563129,0.354341,0.603105,-0.439992,0
-9.107646,0.317392,-1.035926,0.144660,-0.119459,-0.006949,39.853482,-4.364218,23.475475,4635731680059981800.000000,0.665329,-0.060371,0.740813,0.069920,-9.847078,-0.358311,-0.325986,0.076770,-0.201128,0.076907,42.389765,-19.341707,4.142807,4635727599304179700.000000,-0.467901,0.562983,-0.551894,-0.399413,-9.798631,0.243449,-1.322546,0.151575,0.239991,0.015619,41.969518,16.187017,9.509567,4635729317827969000.000000,0.562296,0.355168,0.603352,-0.440052,0
-9.166049,0.325265,-1.084748,0.144040,-0.094516,-0.013736,39.677598,-4.415543,23.255104,4635731680059981800.000000,0.665637,-0.060009,0.740609,0.069463,-9.809097,-0.336152,-0.333216,0.087391,-0.198240,0.075403,42.470915,-19.234571,3.947505,4635727599304179700.000000,-0.468109,0.562674,-0.551483,-0.400173,-9.758101,0.401658,-1.326459,0.160544,0.235034,0.018864,42.097762,16.243431,9.501508,4635729317827969000.000000,0.561466,0.356016,0.603564,-0.440136,0
-9.220133,0.346139,-1.151958,0.134277,-0.069326,-0.018698,39.824353,-4.358043,23.294482,4635731680059981800.000000,0.665865,-0.059697,0.740471,0.069016,-9.723659,-0.280770,-0.317392,0.095559,-0.194720,0.071131,42.492624,-19.226660,3.786567,4635727599304179700.000000,-0.468326,0.562374,-0.551072,-0.400906,-9.733449,0.496116,-1.370900,0.160243,0.227215,0.019932,42.224932,16.377232,9.432890,4635729317827969000.000000,0.560654,0.356855,0.603755,-0.440229,0
-9.301250,0.306893,-1.278361,0.128327,-0.031093,-0.026864,40.131776,-4.339669,23.435590,4635731680059981800.000000,0.665977,-0.059437,0.740434,0.068556,-9.659676,-0.289358,-0.308805,0.105290,-0.192959,0.066107,42.385029,-19.230953,3.723258,4635727599304179700.000000,-0.468565,0.562074,-0.550664,-0.401607,-9.697066,0.464359,-1.488348,0.161975,0.221491,0.021000,42.040298,16.479518,9.407759,4635729317827969000.000000,0.559854,0.357692,0.603926,-0.440333,0
-9.421601,0.258068,-1.373388,0.126810,0.014135,-0.036856,40.012223,-4.238483,23.365661,4635731680059981800.000000,0.665951,-0.059225,0.740520,0.068062,-9.656730,-0.300891,-0.284390,0.119552,-0.190764,0.059323,42.334351,-19.234573,3.688908,4635727599304179700.000000,-0.468845,0.561761,-0.550272,-0.402256,-9.680470,0.423351,-1.586479,0.162722,0.212283,0.022068,41.835738,16.448005,9.605293,4635729317827969000.000000,0.559077,0.358516,0.604073,-0.440449,0
-9.588164,0.224980,-1.427357,0.135814,0.037765,-0.046169,39.836290,-4.095531,23.142614,4635731703134995500.000000,0.665857,-0.059023,0.740671,0.067508,-9.723408,-0.254334,-0.255682,0.133003,-0.187243,0.051846,42.475198,-19.316829,3.664243,4635727599304179700.000000,-0.469362,0.561168,-0.550173,-0.402616,-9.648242,0.519795,-1.530805,0.148963,0.206879,0.018906,41.890685,16.370614,9.825744,4635729246958174200.000000,0.558329,0.359288,0.604238,-0.440543,0
-9.770352,0.246770,-1.363703,0.145118,0.025153,-0.060584,39.893795,-4.046799,23.154008,4635731787434164200.000000,0.665808,-0.058836,0.740786,0.066889,-9.815426,-0.153055,-0.210472,0.145187,-0.185106,0.044744,42.474775,-19.543128,3.804165,4635727599304179700.000000,-0.469920,0.560563,-0.550089,-0.402923,-9.639698,0.662377,-1.432903,0.122323,0.200512,0.009335,41.944637,16.450457,9.823539,4635729210453786600.000000,0.557617,0.359964,0.604450,-0.440602,0
-9.860056,0.256355,-1.308814,0.148014,-0.023222,-0.067523,39.878061,-4.129629,23.254288,4635731787434164200.000000,0.665912,-0.058649,0.740765,0.066254,-9.791941,-0.063313,-0.158024,0.150374,-0.177711,0.035706,42.341846,-19.593814,3.857799,4635727599304179700.000000,-0.470491,0.559974,-0.550012,-0.403179,-9.643848,0.708029,-1.452189,0.091713,0.191968,0.004636,41.936581,16.552747,9.661438,4635729210453786600.000000,0.556960,0.360546,0.604703,-0.440610,0
-9.752728,0.261599,-1.334131,0.145419,-0.067910,-0.067903,39.802195,-4.153054,23.358909,4635731787434164200.000000,0.666152,-0.058457,0.740619,0.065637,-9.631917,-0.060092,-0.125697,0.133801,-0.162875,0.023699,42.312199,-19.392877,3.654581,4635727599304179700.000000,-0.471012,0.559468,-0.549911,-0.403412,-9.668016,0.538859,-1.557653,0.072721,0.182013,0.008502,41.988821,16.529320,9.723911,4635729210453786600.000000,0.556364,0.361076,0.604961,-0.440575,0
-9.528677,0.296493,-1.399505,0.139083,-0.065593,-0.065308,39.753440,-4.010100,23.405043,4635731787434164200.000000,0.666383,-0.058276,0.740478,0.065046,-9.441560,-0.226703,-0.114159,0.120067,-0.155198,0.015529,42.389734,-19.256706,3.596616,4635727561549906900.000000,-0.471299,0.559287,-0.549510,-0.403874,-9.704635,0.298633,-1.711937,0.081048,0.174152,0.011386,42.082320,16.294986,9.919214,4635729210453786600.000000,0.555781,0.361616,0.605182,-0.440563,0
-9.346473,0.380208,-1.423028,0.124969,-0.006543,-0.061953,39.820549,-3.942991,23.307393,4635731787434164200.000000,0.666427,-0.058139,0.740497,0.064494,-9.338663,-0.329600,-0.139239,0.117580,-0.151936,0.011057,42.445141,-19.312113,3.723258,4635727491929997300.000000,-0.471582,0.559122,-0.549105,-0.404322,-9.733200,0.179467,-1.713700,0.101681,0.166334,0.015978,42.010847,16.138697,9.985656,4635729210453786600.000000,0.555194,0.362203,0.605340,-0.440604,0
-9.230526,0.507524,-1.390753,0.107493,0.052963,-0.063328,39.836267,-3.908936,23.228069,4635731787434164200.000000,0.666284,-0.058070,0.740676,0.063979,-9.368689,-0.325311,-0.153746,0.096248,-0.145095,0.015878,42.415115,-19.312113,3.688943,4635727491929997300.000000,-0.471790,0.559002,-0.548685,-0.404816,-9.733455,0.215066,-1.612146,0.116702,0.157790,0.025909,41.900476,16.266775,9.985656,4635729210453786600.000000,0.554623,0.362835,0.605435,-0.440672,0
-9.189554,0.648782,-1.342814,0.077578,0.089959,-0.069967,39.927861,-3.731886,23.236824,4635731787434164200.000000,0.666021,-0.058115,0.740948,0.063528,-9.484166,-0.343129,-0.092048,0.068765,-0.134731,0.024625,42.394003,-19.397900,3.595573,4635727491929997300.000000,-0.471893,0.558935,-0.548258,-0.405367,-9.745406,0.276359,-1.598913,0.126338,0.149244,0.032727,41.976081,16.394029,9.977603,4635729210453786600.000000,0.554070,0.363494,0.605481,-0.440763,0
-9.179967,0.752510,-1.363769,0.037070,0.104834,-0.078589,40.086541,-3.540147,23.282978,4635731787434164200.000000,0.665704,-0.058302,0.741248,0.063175,-9.659352,-0.429237,-0.015178,0.053177,-0.125233,0.030832,42.427327,-19.586282,3.505836,4635727491929997300.000000,-0.471923,0.558905,-0.547832,-0.405950,-9.785923,0.333237,-1.659688,0.132769,0.141404,0.037703,42.022039,16.475320,9.917086,4635729210453786600.000000,0.553549,0.364146,0.605500,-0.440852,0
-9.195683,0.781274,-1.453570,0.006024,0.115516,-0.093240,40.177134,-3.555863,23.206274,4635731787434164200.000000,0.665351,-0.058624,0.741565,0.062875,-9.808145,-0.513367,0.007263,0.041110,-0.120268,0.043331,42.311867,-19.555954,3.442488,4635727491929997300.000000,-0.471889,0.558880,-0.547421,-0.406575,-9.802545,0.362066,-1.668519,0.128246,0.135337,0.041635,41.961523,16.601026,9.823586,4635729210453786600.000000,0.553040,0.364811,0.605494,-0.440949,0
-9.279402,0.781274,-1.498892,-0.006184,0.127113,-0.112769,40.002729,-3.631724,23.229845,4635731787434164200.000000,0.664963,-0.059042,0.741906,0.062556,-9.889309,-0.537126,-0.080158,0.028178,-0.113369,0.060218,42.261024,-19.367549,3.408185,4635727567361229800.000000,-0.471787,0.558845,-0.547050,-0.407241,-9.762288,0.438684,-1.571642,0.108065,0.134223,0.044839,41.940481,16.602590,9.911108,4635729210453786600.000000,0.552570,0.365436,0.605517,-0.440990,0
-9.407939,0.775832,-1.483861,-0.021376,0.138145,-0.125218,39.820549,-3.660749,23.335188,4635731787434164200.000000,0.664541,-0.059543,0.742270,0.062247,-9.923964,-0.541413,-0.200261,0.021967,-0.104621,0.083399,42.427634,-19.372136,3.379128,4635727706678362100.000000,-0.471615,0.558778,-0.546746,-0.407941,-9.701256,0.548542,-1.509825,0.083136,0.128951,0.046635,41.960738,16.368344,10.231061,4635729210453786600.000000,0.552156,0.365995,0.605574,-0.440968,0
-9.561824,0.732213,-1.461808,-0.040091,0.132690,-0.134327,39.820549,-3.527940,23.426238,4635731787434164200.000000,0.664133,-0.060123,0.742612,0.061972,-9.883058,-0.562192,-0.210508,0.043353,-0.101042,0.105339,42.474871,-19.513021,3.442488,4635727706678362100.000000,-0.471447,0.558623,-0.546537,-0.408626,-9.712670,0.545706,-1.638359,0.062796,0.120407,0.045590,41.969051,16.316610,10.484834,4635729210453786600.000000,0.551794,0.366486,0.605650,-0.440907,0
-9.711271,0.619159,-1.455761,-0.052080,0.124444,-0.134297,39.798988,-3.549500,23.523891,4635731787434164200.000000,0.663747,-0.060733,0.742927,0.061737,-9.817083,-0.577383,-0.140899,0.081228,-0.097519,0.125055,42.341893,-19.538463,3.408196,4635727706678362100.000000,-0.471324,0.558356,-0.546444,-0.409257,-9.769550,0.388070,-1.813685,0.053090,0.108340,0.049088,41.961002,16.442312,10.482797,4635729210453786600.000000,0.551481,0.366945,0.605711,-0.440833,0
-9.824090,0.466647,-1.474122,-0.055822,0.128196,-0.123878,39.735096,-3.631858,23.621534,4635731787434164200.000000,0.663346,-0.061322,0.743253,0.061541,-9.715142,-0.561541,-0.068308,0.120202,-0.098008,0.149621,42.286446,-19.453014,3.276254,4635727706678362100.000000,-0.471247,0.557959,-0.546471,-0.409851,-9.766191,0.244952,-1.883831,0.052680,0.097272,0.056905,42.061480,16.443908,10.328803,4635729210453786600.000000,0.551209,0.367405,0.605734,-0.440760,0
-9.903388,0.335440,-1.486119,-0.061702,0.139165,-0.109982,39.775114,-3.625071,23.666866,4635731787434164200.000000,0.662905,-0.061886,0.743611,0.061399,-9.618139,-0.514406,-0.040907,0.144370,-0.099224,0.166313,42.316441,-19.483263,3.218070,4635727706678362100.000000,-0.471197,0.557477,-0.546572,-0.410430,-9.721522,0.279962,-1.884099,0.050590,0.086250,0.064042,42.115540,16.322376,10.202039,4635729210453786600.000000,0.550979,0.367860,0.605723,-0.440683,0
-9.958271,0.225674,-1.437395,-0.069449,0.152206,-0.091274,39.875321,-3.402461,23.630888,4635731787434164200.000000,0.662416,-0.062417,0.744007,0.061330,-9.562034,-0.354415,-0.044545,0.144610,-0.091691,0.168824,42.346188,-19.671707,3.413388,4635727706678362100.000000,-0.471129,0.556996,-0.546699,-0.410990,-9.664643,0.341538,-1.823601,0.041388,0.079430,0.071859,41.962622,16.216130,10.112428,4635729210453786600.000000,0.550792,0.368304,0.605700,-0.440577,0
-9.976423,0.170904,-1.425189,-0.080416,0.152494,-0.068586,39.799006,-3.302256,23.792434,4635731787434164200.000000,0.661918,-0.062908,0.744407,0.061358,-9.563327,-0.198311,-0.040907,0.126770,-0.085452,0.169779,42.268661,-19.701457,3.505871,4635727706678362100.000000,-0.471009,0.556551,-0.546819,-0.411572,-9.619706,0.386205,-1.738156,0.029639,0.073046,0.076883,41.835316,16.187017,10.212074,4635729210453786600.000000,0.550649,0.368722,0.605676,-0.440439,0
-9.933652,0.189362,-1.394524,-0.098842,0.159432,-0.049639,39.716638,-3.421640,23.868550,4635731787434164200.000000,0.661388,-0.063392,0.744826,0.061493,-9.633571,-0.124428,-0.044546,0.107545,-0.084702,0.164701,42.187499,-19.679620,3.373952,4635727706678362100.000000,-0.470850,0.556155,-0.546896,-0.412185,-9.607226,0.443079,-1.676849,0.012257,0.068385,0.078679,41.914966,16.235299,10.399338,4635729210453786600.000000,0.550547,0.369095,0.605672,-0.440258,0
-9.854156,0.244148,-1.318301,-0.117261,0.167464,-0.037915,39.643395,-3.610315,23.902293,4635731787434164200.000000,0.660825,-0.063892,0.745264,0.061716,-9.722020,-0.001068,-0.045189,0.085320,-0.079942,0.155031,42.169941,-19.842818,3.148649,4635727744355321900.000000,-0.470851,0.555559,-0.547200,-0.412584,-9.631367,0.512163,-1.644113,-0.007333,0.065181,0.080451,42.073664,16.316590,10.518073,4635729210453786600.000000,0.550487,0.369423,0.605694,-0.440029,0
-9.722955,0.250300,-1.297157,-0.130322,0.185370,-0.037124,39.567076,-3.561196,23.975340,4635731787434164200.000000,0.660202,-0.064430,0.745748,0.061977,-9.740867,0.178394,-0.061037,0.053802,-0.069580,0.141408,42.195427,-20.031065,3.000663,4635727814052544500.000000,-0.470776,0.555077,-0.547434,-0.413007,-9.667986,0.496896,-1.676022,-0.022334,0.060569,0.083995,42.071428,16.345713,10.362139,4635729210453786600.000000,0.550465,0.369720,0.605725,-0.439764,0
-9.607042,0.283937,-1.370489,-0.135402,0.205908,-0.041943,39.481634,-3.420963,23.950741,4635731787434164200.000000,0.659515,-0.065002,0.746285,0.062236,-9.708529,0.313749,-0.048191,0.019848,-0.059330,0.123570,42.169931,-19.953545,3.098315,4635727814052544500.000000,-0.470634,0.554714,-0.547595,-0.413444,-9.656334,0.459998,-1.737056,-0.028816,0.055228,0.088972,41.929661,16.345713,10.145744,4635729210453786600.000000,0.550473,0.370010,0.605746,-0.439482,0
-9.509386,0.326525,-1.443457,-0.142610,0.213891,-0.051556,39.399258,-3.400080,23.880756,4635731787434164200.000000,0.658803,-0.065625,0.746838,0.062488,-9.701242,0.325318,-0.003007,-0.005787,-0.053726,0.102096,42.225407,-19.928038,3.195970,4635727814052544500.000000,-0.470460,0.554455,-0.547677,-0.413881,-9.643848,0.459719,-1.749821,-0.029204,0.048480,0.090089,41.831166,16.289395,10.268361,4635729210453786600.000000,0.550500,0.370289,0.605751,-0.439206,0
-9.424029,0.308172,-1.416059,-0.148480,0.208535,-0.061706,39.344460,-3.546380,23.960578,4635731787434164200.000000,0.658107,-0.066294,0.747372,0.062733,-9.738493,0.373033,0.049462,-0.038160,-0.047845,0.076838,42.195447,-19.953558,3.190896,4635727776405872600.000000,-0.470243,0.554325,-0.547658,-0.414326,-9.643848,0.471926,-1.721525,-0.030248,0.041003,0.089724,41.922979,16.107415,10.492797,4635729139695565800.000000,0.550548,0.370549,0.605742,-0.438938,0
-9.390566,0.259256,-1.422206,-0.153291,0.200281,-0.073456,39.365974,-3.579670,24.219833,4635731787434164200.000000,0.657438,-0.067010,0.747877,0.062962,-9.790969,0.458970,0.039007,-0.075906,-0.038024,0.053395,42.139957,-19.898067,3.029821,4635727706678362100.000000,-0.469955,0.554342,-0.547536,-0.414792,-9.627760,0.532397,-1.692948,-0.032384,0.038453,0.091132,42.085833,16.028320,10.559403,4635729103079604200.000000,0.550608,0.370804,0.605730,-0.438665,0
-9.421212,0.173807,-1.446620,-0.157817,0.203493,-0.086281,39.426840,-3.497294,24.338319,4635731733373441000.000000,0.656761,-0.067779,0.748385,0.063170,-9.827593,0.401579,-0.058655,-0.099725,-0.035249,0.031282,42.169917,-19.953708,3.000639,4635727706678362100.000000,-0.469440,0.554728,-0.547054,-0.415493,-9.627478,0.593717,-1.692666,-0.038040,0.035638,0.089045,42.083648,16.028320,10.495051,4635729103079604200.000000,0.550679,0.371037,0.605724,-0.438387,0
-9.525088,0.082219,-1.449528,-0.155405,0.207751,-0.100151,39.399273,-3.442488,24.259183,4635731572685799400.000000,0.656073,-0.068585,0.748901,0.063332,-9.855653,0.324065,-0.130631,-0.115789,-0.034500,0.007786,42.229685,-20.116663,3.098287,4635727706678362100.000000,-0.468931,0.555194,-0.546498,-0.416177,-9.639684,0.618413,-1.688786,-0.045516,0.030662,0.086884,42.006245,15.875502,10.469788,4635729103079604200.000000,0.550768,0.371240,0.605722,-0.438104,0
-9.702223,-0.024579,-1.388490,-0.148189,0.200776,-0.106015,39.365966,-3.460922,24.292897,4635731572685799400.000000,0.655411,-0.069388,0.749397,0.063457,-9.867860,0.260008,-0.155044,-0.121933,-0.033861,-0.012717,42.207671,-20.227667,3.161717,4635727631427524600.000000,-0.468439,0.555722,-0.545881,-0.416836,-9.627763,0.614535,-1.676579,-0.050882,0.024618,0.085816,41.989301,15.635529,10.538293,4635729103079604200.000000,0.550880,0.371417,0.605719,-0.437819,0
-9.924959,-0.122244,-1.364326,-0.138038,0.175378,-0.107084,39.429913,-3.494220,24.387488,4635731572685799400.000000,0.654830,-0.070159,0.749824,0.063555,-9.833013,0.248426,-0.175181,-0.135289,-0.032629,-0.026174,42.152164,-20.172058,3.161717,4635727529555416100.000000,-0.467933,0.556312,-0.545207,-0.417499,-9.603351,0.602329,-1.688497,-0.053043,0.020320,0.084045,42.041716,15.656772,10.563569,4635729244544510000.000000,0.551001,0.371577,0.605713,-0.437540,0
-10.095681,-0.216820,-1.446696,-0.128440,0.141760,-0.105733,39.389982,-3.451782,24.500575,4635731572685799400.000000,0.654356,-0.070890,0.750162,0.063636,-9.757993,0.162259,-0.187388,-0.140239,-0.030017,-0.040598,42.177826,-20.009092,3.127500,4635727599304179700.000000,-0.467434,0.556949,-0.544493,-0.418140,-9.586978,0.590122,-1.704870,-0.052000,0.018523,0.081908,42.058671,15.919996,10.495075,4635729317827969000.000000,0.551118,0.371734,0.605702,-0.437274,0
-10.187190,-0.296123,-1.507652,-0.123892,0.126585,-0.096651,39.209807,-3.494238,24.671312,4635731572685799400.000000,0.653927,-0.071576,0.750462,0.063733,-9.778751,-0.037864,-0.169661,-0.120857,-0.034555,-0.058591,42.195474,-19.898067,2.995639,4635727599304179700.000000,-0.467022,0.557578,-0.543764,-0.418710,-9.582811,0.602036,-1.684916,-0.047754,0.018159,0.076958,42.054504,16.084601,10.461744,4635729317827969000.000000,0.551218,0.371889,0.605690,-0.437032,0
-10.248151,-0.366369,-1.495224,-0.116422,0.135412,-0.084627,39.027069,-3.430280,24.744406,4635731599690393600.000000,0.653470,-0.072206,0.750791,0.063837,-9.772612,-0.098280,-0.122074,-0.105740,-0.033752,-0.066599,42.169890,-19.953657,2.868740,4635727599304179700.000000,-0.466656,0.558198,-0.543041,-0.419230,-9.614974,0.634492,-1.664374,-0.042413,0.013234,0.071956,42.102749,16.009244,10.397420,4635729317827969000.000000,0.551311,0.372037,0.605663,-0.436826,0
-10.275633,-0.448674,-1.403851,-0.112149,0.142839,-0.067800,39.088450,-3.430280,24.695301,4635731680059981800.000000,0.652986,-0.072774,0.751146,0.063972,-9.734196,-0.177658,-0.134901,-0.077270,-0.033221,-0.070286,42.285267,-20.116622,2.907221,4635727599304179700.000000,-0.466361,0.558771,-0.542358,-0.419678,-9.647720,0.671110,-1.668246,-0.037776,0.005757,0.066981,42.079514,15.850567,10.428398,4635729247116885000.000000,0.551406,0.372169,0.605620,-0.436654,0
-10.296910,-0.460743,-1.416128,-0.105997,0.117430,-0.048842,39.311115,-3.473247,24.527604,4635731680059981800.000000,0.652578,-0.073258,0.751439,0.064146,-9.791571,-0.280770,-0.158696,-0.036364,-0.039629,-0.078457,42.396313,-20.197744,2.978606,4635727636903827500.000000,-0.466190,0.559271,-0.541716,-0.420031,-9.639980,0.699691,-1.648300,-0.032800,0.001798,0.063047,41.958047,15.788341,10.654661,4635729210453786600.000000,0.551497,0.372293,0.605566,-0.436508,0
-10.257155,-0.411983,-1.431203,-0.094517,0.066676,-0.030416,39.368546,-3.622662,24.463636,4635731680059981800.000000,0.652328,-0.073640,0.751601,0.064351,-9.826343,-0.238023,-0.158696,-0.005445,-0.041176,-0.084064,42.336466,-20.056721,3.008529,4635727706678362100.000000,-0.466105,0.559719,-0.541112,-0.420307,-9.607524,0.708029,-1.619714,-0.030273,-0.000339,0.057029,41.964288,15.735937,10.819036,4635729210453786600.000000,0.551577,0.372405,0.605511,-0.436387,0
-10.150256,-0.405910,-1.342700,-0.083569,0.013319,-0.013876,39.145905,-3.622247,24.509628,4635731707029159900.000000,0.652243,-0.073925,0.751627,0.064583,-9.798271,-0.197159,-0.141601,0.009134,-0.037813,-0.087696,42.165575,-19.838236,3.059785,4635727706678362100.000000,-0.466280,0.559861,-0.540832,-0.420285,-9.595019,0.732143,-1.611377,-0.028502,-0.001068,0.049552,42.146182,15.614475,10.723779,4635729210453786600.000000,0.551640,0.372506,0.605460,-0.436293,0
-9.970147,-0.418118,-1.272636,-0.072892,-0.006135,-0.006940,39.066933,-3.408815,24.692745,4635731787434164200.000000,0.652221,-0.074154,0.751604,0.064806,-9.824516,-0.336920,-0.050054,0.029747,-0.041337,-0.091113,42.058777,-19.786976,2.919410,4635727706678362100.000000,-0.466515,0.559965,-0.540572,-0.420219,-9.586982,0.768762,-1.595304,-0.027069,-0.004584,0.040670,42.120930,15.564439,10.472219,4635729210453786600.000000,0.551689,0.372587,0.605408,-0.436234,0
-9.774883,-0.427259,-1.284844,-0.066488,0.004036,-0.006146,39.247102,-3.409233,24.808390,4635731787434164200.000000,0.652169,-0.074366,0.751611,0.065009,-9.849537,-0.459608,0.095223,0.064358,-0.037117,-0.086733,42.126536,-19.923707,2.609323,4635727706678362100.000000,-0.466594,0.560284,-0.540096,-0.420320,-9.574774,0.781274,-1.595000,-0.026000,-0.009222,0.032462,41.962222,15.556401,10.376293,4635729210453786600.000000,0.551729,0.372646,0.605354,-0.436207,0
-9.646861,-0.414999,-1.287855,-0.065698,0.022967,-0.009886,39.408457,-3.601184,24.719886,4635731787434164200.000000,0.652059,-0.074592,0.751668,0.065194,-9.773857,-0.353401,0.128787,0.096134,-0.022591,-0.080805,42.288888,-19.945675,2.588583,4635727706678362100.000000,-0.466698,0.560558,-0.539710,-0.420334,-9.578640,0.716984,-1.583097,-0.019307,-0.008572,0.027095,41.908016,15.608486,10.561127,4635729210453786600.000000,0.551747,0.372709,0.605297,-0.436210,0
-9.616367,-0.372297,-1.260372,-0.071839,0.018129,-0.015496,39.283137,-3.539861,24.622218,4635731787434164200.000000,0.651963,-0.074851,0.751709,0.065384,-9.778738,-0.166632,0.086060,0.110393,-0.012338,-0.080111,42.354203,-19.868165,2.907778,4635727706678362100.000000,-0.466819,0.560812,-0.539380,-0.420285,-9.590848,0.643434,-1.631008,-0.012506,-0.008180,0.022823,42.012486,15.790371,10.721353,4635729210453786600.000000,0.551745,0.372778,0.605235,-0.436238,0
-9.610292,-0.341752,-1.226816,-0.074497,-0.006165,-0.021368,39.100311,-3.375430,24.524562,4635731787434164200.000000,0.651945,-0.075128,0.751681,0.065575,-9.794002,-0.162968,0.097053,0.110340,-0.005608,-0.082727,42.298653,-19.812616,3.127547,4635727706678362100.000000,-0.466936,0.561074,-0.539064,-0.420209,-9.595019,0.646685,-1.660207,-0.007166,-0.011358,0.019957,42.171175,15.773195,10.690437,4635729139772869600.000000,0.551737,0.372848,0.605161,-0.436292,0
-9.628627,-0.302121,-1.202404,-0.068621,-0.026189,-0.025640,39.143212,-3.491566,24.479008,4635731787434164200.000000,0.651992,-0.075397,0.751598,0.065742,-9.765319,-0.166633,0.060433,0.101852,0.000106,-0.087214,42.328545,-19.842508,2.961571,4635727706678362100.000000,-0.467019,0.561386,-0.538721,-0.420142,-9.578951,0.675268,-1.684310,-0.004638,-0.015630,0.017118,42.281647,15.570484,10.592789,4635729103079604200.000000,0.551730,0.372910,0.605076,-0.436366,0
-9.659120,-0.289914,-1.177992,-0.061681,-0.039249,-0.027768,39.231395,-3.656049,24.610306,4635731787434164200.000000,0.652083,-0.075650,0.751481,0.065886,-9.745778,-0.145885,0.028082,0.078568,0.007635,-0.086520,42.413997,-19.868175,2.771080,4635727706678362100.000000,-0.467024,0.561760,-0.538347,-0.420116,-9.554537,0.683615,-1.664694,-0.009193,-0.017793,0.012507,42.198388,15.539397,10.495133,4635729103079604200.000000,0.551725,0.372949,0.605001,-0.436444,0
-9.686643,-0.277707,-1.159703,-0.055000,-0.030692,-0.023495,39.069634,-3.558299,24.778057,4635731787434164200.000000,0.652148,-0.075874,0.751391,0.066019,-9.753716,-0.190399,-0.004874,0.056080,0.014633,-0.085773,42.495177,-19.752832,2.805243,4635727706678362100.000000,-0.466964,0.562180,-0.537955,-0.420122,-9.570291,0.699682,-1.656033,-0.018076,-0.019564,0.007167,42.139957,15.717081,10.526014,4635729103079604200.000000,0.551727,0.372952,0.604945,-0.436516,0
-9.759885,-0.271626,-1.162766,-0.044319,-0.013606,-0.018151,38.963056,-3.408840,24.817563,4635731787434164200.000000,0.652161,-0.076056,0.751351,0.066127,-9.749446,-0.398519,-0.032352,0.051003,0.016022,-0.082516,42.512912,-19.611823,2.868740,4635727706678362100.000000,-0.466885,0.562603,-0.537567,-0.420141,-9.558713,0.683931,-1.660207,-0.025580,-0.025918,0.003935,42.196185,15.691954,10.623666,4635729103079604200.000000,0.551750,0.372918,0.604895,-0.436585,0
-9.839246,-0.296079,-1.165787,-0.037121,-0.002937,-0.009339,39.106674,-3.366261,24.744406,4635731787434164200.000000,0.652142,-0.076194,0.751345,0.066234,-9.741508,-0.532258,0.005467,0.057464,0.016022,-0.072693,42.431736,-19.586142,2.834589,4635727706678362100.000000,-0.466802,0.562991,-0.537211,-0.420168,-9.562254,0.615181,-1.676271,-0.027069,-0.030948,0.002502,42.225407,15.637684,10.657063,4635729103079604200.000000,0.551785,0.372869,0.604839,-0.436660,0
-9.933841,-0.372421,-1.147496,-0.037646,-0.008833,-0.001601,39.365889,-3.451710,24.768897,4635731787434164200.000000,0.652138,-0.076307,0.751325,0.066366,-9.741508,-0.487697,0.073844,0.069744,0.018637,-0.058270,42.384106,-19.641712,2.805231,4635727706678362100.000000,-0.466719,0.563324,-0.536919,-0.420187,-9.594701,0.569891,-1.700686,-0.026001,-0.033450,0.001433,42.169182,15.742104,10.592804,4635729103079604200.000000,0.551820,0.372819,0.604775,-0.436747,0
-10.000924,-0.491424,-1.141375,-0.028831,-0.040622,0.002678,39.390129,-3.555516,24.845126,4635731787434164200.000000,0.652236,-0.076374,0.751222,0.066492,-9.762847,-0.446810,0.067784,0.082994,0.026113,-0.052661,42.413980,-19.671587,2.937025,4635727706678362100.000000,-0.466866,0.563341,-0.536982,-0.419919,-9.631320,0.609729,-1.676911,-0.023527,-0.034181,0.001068,42.196175,15.796380,10.559403,4635729173721870300.000000,0.551849,0.372776,0.604704,-0.436845,0
-10.000890,-0.592110,-1.098599,-0.016549,-0.087085,0.013359,39.231433,-3.613223,24.826730,4635731787434164200.000000,0.652480,-0.076361,0.751000,0.066624,-9.806811,-0.419318,0.007941,0.089609,0.030603,-0.047912,42.495151,-19.697302,3.064058,4635727706678362100.000000,-0.466788,0.563628,-0.536778,-0.419884,-9.659912,0.602658,-1.620048,-0.020323,-0.037695,0.000365,42.273599,15.748189,10.559403,4635729210453786600.000000,0.551880,0.372733,0.604620,-0.436958,0
-9.961208,-0.656173,-1.013181,-0.006135,-0.122843,0.023505,39.130880,-3.390497,24.695441,4635731787434164200.000000,0.652836,-0.076277,0.750686,0.066762,-9.806221,-0.401664,-0.008532,0.109043,0.029908,-0.041658,42.512939,-19.611850,3.029931,4635727706678362100.000000,-0.466744,0.563864,-0.536617,-0.419821,-9.692357,0.618081,-1.607201,-0.017118,-0.040927,-0.001405,42.250464,15.666916,10.495153,4635729210453786600.000000,0.551910,0.372690,0.604525,-0.437090,0
-9.930739,-0.695854,-0.970472,0.003478,-0.131120,0.032586,39.207184,-3.311363,24.524609,4635731787434164200.000000,0.653219,-0.076136,0.750355,0.066898,-9.790338,-0.298571,-0.037210,0.144649,0.029908,-0.044643,42.487203,-19.526405,2.966399,4635727706678362100.000000,-0.466793,0.564032,-0.536516,-0.419670,-9.672762,0.666908,-1.587285,-0.016022,-0.042360,-0.002136,42.121006,15.637684,10.590238,4635729210453786600.000000,0.551939,0.372645,0.604425,-0.437230,0
-9.952093,-0.735503,-0.927704,0.010414,-0.142612,0.041928,39.289572,-3.451694,24.475903,4635731787434164200.000000,0.653638,-0.075944,0.749997,0.067042,-9.803128,-0.131366,-0.065301,0.194473,0.028043,-0.054680,42.542801,-19.470808,3.000507,4635727706678362100.000000,-0.467204,0.563837,-0.536775,-0.419143,-9.615912,0.659528,-1.574755,-0.015320,-0.042726,-0.003541,42.018537,15.581481,10.721295,4635729210453786600.000000,0.551977,0.372582,0.604335,-0.437359,0
-9.961241,-0.759951,-0.839219,0.009881,-0.170664,0.049143,39.384239,-3.494313,24.549088,4635731787434164200.000000,0.654141,-0.075723,0.749565,0.067217,-9.852546,0.013379,-0.009278,0.225328,0.028672,-0.071230,42.568387,-19.445221,3.093910,4635727706678362100.000000,-0.467717,0.563616,-0.537052,-0.418512,-9.586991,0.655020,-1.574755,-0.011442,-0.043428,-0.004975,41.993465,15.504065,10.570081,4635729210453786600.000000,0.552007,0.372526,0.604238,-0.437504,0
-9.958182,-0.802630,-0.787364,0.012287,-0.204556,0.061157,39.484808,-3.473098,24.503211,4635731787434164200.000000,0.654748,-0.075448,0.749044,0.067427,-9.921523,0.065301,0.165298,0.212050,0.037809,-0.093236,42.616043,-19.397564,3.183622,4635727706678362100.000000,-0.468218,0.563484,-0.537274,-0.417845,-9.582811,0.635119,-1.582782,-0.007506,-0.045199,-0.006745,42.089791,15.583338,10.409737,4635729210453786600.000000,0.552020,0.372489,0.604121,-0.437680,0
-9.955149,-0.796539,-0.756836,0.019498,-0.209351,0.071840,39.408508,-3.622588,24.295649,4635731787434164200.000000,0.655368,-0.075118,0.748514,0.067646,-9.969766,0.171282,0.272825,0.174415,0.044319,-0.115071,42.616043,-19.397564,3.247169,4635727706678362100.000000,-0.468655,0.563483,-0.537393,-0.417202,-9.590838,0.638630,-1.594989,-0.002897,-0.047335,-0.008882,42.139957,15.742028,10.496689,4635729210453786600.000000,0.552026,0.372455,0.603994,-0.437877,0
-9.991797,-0.796514,-0.714121,0.026169,-0.197871,0.084120,39.344460,-3.686636,24.060742,4635731787434164200.000000,0.655951,-0.074734,0.748021,0.067874,-9.960084,0.358277,0.212578,0.131198,0.055746,-0.141028,42.586210,-19.397564,3.281266,4635727706678362100.000000,-0.468790,0.563928,-0.537100,-0.416827,-9.570937,0.638965,-1.591142,0.001741,-0.048067,-0.011721,42.139957,15.796380,10.559403,4635729210453786600.000000,0.552020,0.372425,0.603862,-0.438092,0
-10.071140,-0.744619,-0.698878,0.022161,-0.194941,0.093735,39.384187,-3.686636,23.987547,4635731787434164200.000000,0.656521,-0.074333,0.747537,0.068141,-9.908149,0.289497,0.030040,0.100746,0.065581,-0.164477,42.475182,-19.367727,3.378928,4635727706678362100.000000,-0.468871,0.564502,-0.536716,-0.416453,-9.526289,0.642812,-1.578936,0.003907,-0.050876,-0.016330,42.139957,15.748218,10.559403,4635729210453786600.000000,0.552008,0.372386,0.603726,-0.438327,0
-10.165743,-0.671407,-0.717197,0.013617,-0.210702,0.110025,39.521493,-3.708027,23.963100,4635731787434164200.000000,0.657131,-0.073899,0.747012,0.068484,-9.912989,0.065520,-0.111598,0.091045,0.063887,-0.186584,42.337806,-19.256713,3.404134,4635727706678362100.000000,-0.468970,0.565143,-0.536258,-0.416062,-9.485488,0.695151,-1.574755,0.007784,-0.053042,-0.020968,42.139957,15.723135,10.559403,4635729210453786600.000000,0.551986,0.372343,0.603586,-0.438585,0
-10.242024,-0.674462,-0.735486,0.008009,-0.238736,0.126045,39.576401,-3.772088,23.844062,4635731814306695200.000000,0.657823,-0.073422,0.746413,0.068897,-9.962396,-0.145113,-0.204419,0.114152,0.051442,-0.208592,42.359469,-19.119323,3.332621,4635727631711004700.000000,-0.469188,0.565769,-0.535758,-0.415610,-9.505047,0.680109,-1.550679,0.011720,-0.052003,-0.025942,42.196134,15.618804,10.559403,4635729210453786600.000000,0.551944,0.372299,0.603450,-0.438861,0
-10.296951,-0.720250,-0.689712,0.003472,-0.258227,0.140463,39.597772,-3.750717,23.728148,4635731894808346600.000000,0.658568,-0.072907,0.745762,0.069370,-10.001549,-0.200962,-0.222843,0.138537,0.044540,-0.222971,42.578041,-19.055756,3.370970,4635727491929997300.000000,-0.469506,0.566364,-0.535253,-0.415091,-9.561894,0.683272,-1.498013,0.016328,-0.052675,-0.030580,42.273552,15.620607,10.431019,4635729210453786600.000000,0.551886,0.372257,0.603310,-0.439162,0
-10.376302,-0.866739,-0.653103,0.006143,-0.284933,0.161560,39.683225,-3.708006,23.841076,4635731894808346600.000000,0.659391,-0.072311,0.745043,0.069900,-9.951575,-0.080619,-0.153291,0.142537,0.045930,-0.230920,42.685029,-19.030195,3.472308,4635727491929997300.000000,-0.470073,0.566674,-0.535053,-0.414283,-9.574788,0.711869,-1.461049,0.021669,-0.050599,-0.036257,42.290629,15.802338,10.364085,4635729351600648200.000000,0.551815,0.372201,0.603186,-0.439469,0
-10.464802,-1.007122,-0.729400,0.015222,-0.345288,0.188531,39.725936,-3.854517,23.944806,4635731894808346600.000000,0.660394,-0.071588,0.744168,0.070496,-9.909297,-0.095690,-0.106179,0.148150,0.043694,-0.250075,42.677082,-18.922871,3.562020,4635727491929997300.000000,-0.470694,0.567007,-0.534815,-0.413428,-9.554557,0.704190,-1.444657,0.030520,-0.048433,-0.045474,42.238303,15.825667,10.428273,4635729425202151400.000000,0.551705,0.372150,0.603065,-0.439817,0
-10.516680,-1.110877,-0.805692,0.025903,-0.455840,0.213898,39.680169,-4.123056,23.743383,4635731894808346600.000000,0.661733,-0.070726,0.742996,0.071162,-9.983110,-0.161813,-0.147631,0.151032,0.035794,-0.279186,42.732456,-18.751975,3.625599,4635727491929997300.000000,-0.471172,0.567667,-0.534197,-0.412776,-9.546189,0.751980,-1.408383,0.039797,-0.040345,-0.056155,42.108907,15.748244,10.341406,4635729425202151400.000000,0.551526,0.372126,0.602953,-0.440215,0
-10.510575,-1.135288,-0.866726,0.025369,-0.583743,0.229118,39.756459,-4.165776,23.474837,4635731894808346600.000000,0.663460,-0.069780,0.741472,0.071910,-10.055210,-0.079488,-0.229387,0.153068,0.026232,-0.303330,42.861329,-18.555533,3.591530,4635727491929997300.000000,-0.471716,0.568359,-0.533505,-0.412096,-9.538168,0.813362,-1.415710,0.046236,-0.034913,-0.066134,41.950218,15.819400,10.214457,4635729425202151400.000000,0.551315,0.372088,0.602867,-0.440629,0
-10.400699,-1.077298,-0.973548,0.024835,-0.687624,0.232589,39.860232,-4.104740,23.279507,4635731894808346600.000000,0.665502,-0.068795,0.739655,0.072702,-10.092401,0.046845,-0.288719,0.145715,0.025834,-0.325065,42.909023,-18.366747,3.523681,4635727491929997300.000000,-0.472282,0.569112,-0.532747,-0.411391,-9.461784,0.822081,-1.356068,0.052980,-0.032777,-0.079257,41.895809,15.869624,10.180974,4635729425202151400.000000,0.551063,0.372037,0.602795,-0.441086,0
-10.229811,-0.997957,-1.055943,0.050735,-0.731148,0.222977,40.018914,-4.153564,23.062846,4635731894808346600.000000,0.667681,-0.067756,0.737715,0.073401,-10.149177,0.168346,-0.293545,0.130861,0.034553,-0.348986,42.879216,-18.281299,3.583861,4635727529383410700.000000,-0.472833,0.569960,-0.531919,-0.410653,-9.384010,0.801854,-1.318400,0.068879,-0.026430,-0.095613,41.943934,15.821498,10.245143,4635729425202151400.000000,0.550738,0.371994,0.602735,-0.441609,0
-9.982619,-0.933871,-0.906422,0.111885,-0.700443,0.201614,40.217272,-4.275642,22.733265,4635731894808346600.000000,0.669784,-0.066620,0.735866,0.073843,-10.249129,0.202123,-0.313133,0.114587,0.040467,-0.375693,42.849129,-18.225653,3.711051,4635727599304179700.000000,-0.473602,0.570619,-0.531320,-0.409626,-9.363078,0.897761,-1.318400,0.073733,-0.023499,-0.115512,42.017182,15.948789,10.214461,4635729425202151400.000000,0.550360,0.371919,0.602705,-0.442184,0
-9.753742,-0.857585,-0.558535,0.166623,-0.623011,0.184525,40.452284,-4.284799,22.327376,4635731894808346600.000000,0.671664,-0.065407,0.734238,0.074048,-10.427466,0.039877,-0.288127,0.102052,0.052069,-0.400168,42.956518,-18.225653,3.642819,4635727599304179700.000000,-0.474353,0.571378,-0.530661,-0.408553,-9.355057,1.024367,-1.294336,0.064914,-0.020692,-0.138278,42.090422,16.132595,10.108785,4635729425202151400.000000,0.549946,0.371773,0.602732,-0.442786,0
-9.652995,-0.799579,-0.372320,0.212281,-0.559182,0.173041,40.403491,-4.306141,22.208291,4635731894808346600.000000,0.673361,-0.064121,0.732795,0.074064,-10.552626,-0.205594,-0.239302,0.120414,0.063378,-0.418223,43.063455,-18.165964,3.583947,4635727599304179700.000000,-0.475152,0.572159,-0.530008,-0.407377,-9.398989,1.062044,-1.450189,0.040535,-0.022034,-0.163879,42.115540,16.082762,10.079127,4635729284123761700.000000,0.549523,0.371506,0.602839,-0.443388,0
-9.704871,-0.836196,-0.466887,0.267829,-0.544752,0.172771,40.327131,-4.388550,22.312069,4635731894808346600.000000,0.675024,-0.062683,0.731404,0.073905,-10.663640,-0.258881,-0.118023,0.142639,0.083942,-0.426886,43.081084,-17.969508,3.843174,4635727599304179700.000000,-0.475763,0.573219,-0.529117,-0.406330,-9.392039,1.070063,-1.754649,-0.019911,-0.032621,-0.196897,42.123561,16.028320,10.139449,4635729210453786600.000000,0.549157,0.371001,0.603085,-0.443931,0
-9.826924,-0.918587,-0.723269,0.333514,-0.577591,0.186655,40.513277,-4.425197,22.302979,4635731894808346600.000000,0.676795,-0.061008,0.729939,0.073594,-10.843664,-0.161214,0.134090,0.149812,0.099541,-0.424699,43.214017,-17.750920,4.055376,4635727599304179700.000000,-0.476354,0.574284,-0.528272,-0.405233,-9.383306,1.026131,-1.899813,-0.095053,-0.042297,-0.219883,42.015468,16.132582,10.232928,4635729210453786600.000000,0.548889,0.370247,0.603483,-0.444351,0
-10.016123,-1.022344,-0.772159,0.414689,-0.630193,0.210682,40.726901,-4.351961,21.985651,4635731867997010900.000000,0.678733,-0.059014,0.728350,0.073117,-10.965350,-0.136022,0.263140,0.140369,0.117953,-0.421918,43.368642,-17.554448,3.957721,4635727599304179700.000000,-0.476869,0.575400,-0.527440,-0.404127,-9.403531,1.001007,-1.692040,-0.143855,-0.049072,-0.228887,41.908734,16.082774,10.274445,4635729210453786600.000000,0.548696,0.369345,0.603970,-0.444677,0
-10.205301,-1.101696,-0.643980,0.471842,-0.665189,0.248328,40.885588,-4.275674,21.619417,4635731787434164200.000000,0.680772,-0.056732,0.726679,0.072580,-10.963980,-0.164911,0.194741,0.125144,0.140452,-0.419681,43.330865,-17.306058,3.923992,4635727599304179700.000000,-0.477292,0.576578,-0.526626,-0.403007,-9.451996,0.808583,-1.502596,-0.145426,-0.058988,-0.241945,41.931707,16.028320,10.150351,4635729210453786600.000000,0.548503,0.368392,0.604455,-0.445047,0
-10.464705,-1.156640,-0.552396,0.500156,-0.652119,0.293460,41.044295,-4.232891,21.353855,4635731787434164200.000000,0.682757,-0.054237,0.725056,0.072083,-11.082370,-0.042837,0.303011,0.101835,0.156726,-0.417747,43.300814,-17.053964,4.047798,4635727599304179700.000000,-0.477624,0.577818,-0.525813,-0.401898,-9.585192,0.291111,-1.633259,-0.111164,-0.069335,-0.243601,41.900722,16.180656,9.955033,4635729210453786600.000000,0.548277,0.367497,0.604853,-0.445524,0
-10.748527,-1.187165,-0.585853,0.509508,-0.609655,0.343117,41.160318,-4.339660,21.146392,4635731787434164200.000000,0.684591,-0.051577,0.723558,0.071688,-11.114381,-0.129558,0.566377,0.064432,0.183429,-0.421918,43.403882,-16.835392,4.204759,4635727599304179700.000000,-0.477816,0.579181,-0.524980,-0.400795,-9.820216,-0.143206,-1.793394,-0.057553,-0.075440,-0.235088,41.871395,16.412579,10.008247,4635729210453786600.000000,0.548000,0.366733,0.605125,-0.446124,0
-10.977377,-1.220691,-0.857390,0.506835,-0.601616,0.405062,41.190750,-4.489229,20.865648,4635731787434164200.000000,0.686374,-0.048740,0.722085,0.071476,-10.998298,-0.469287,0.636503,0.046153,0.202676,-0.426019,43.507187,-16.753963,4.230563,4635727599304179700.000000,-0.477928,0.580620,-0.524140,-0.399678,-9.960503,-0.104066,-1.750958,-0.013540,-0.084621,-0.217060,41.871395,16.492203,10.199351,4635729210453786600.000000,0.547713,0.366096,0.605268,-0.446805,0
-11.261132,-1.303121,-1.129172,0.516166,-0.644325,0.471016,41.349441,-4.532045,20.627519,4635731787434164200.000000,0.688258,-0.045664,0.720496,0.071432,-11.042617,-0.516398,0.823051,0.029780,0.210253,-0.437023,43.477366,-16.749954,4.170672,4635727599304179700.000000,-0.478004,0.582124,-0.523258,-0.398554,-9.897494,0.248086,-1.628889,-0.003873,-0.094267,-0.204448,41.927496,16.492203,10.202308,4635729210453786600.000000,0.547446,0.365512,0.605341,-0.447511,0
-11.602976,-1.309295,-1.056160,0.549271,-0.712941,0.533247,41.511172,-4.489221,20.545059,4635731787434164200.000000,0.690323,-0.042284,0.718719,0.071479,-11.174033,-0.513282,1.093003,0.003277,0.219766,-0.441045,43.472848,-16.523683,4.264954,4635727599304179700.000000,-0.478004,0.583697,-0.522343,-0.397452,-9.859388,0.366596,-1.522852,-0.032688,-0.095799,-0.203984,41.844653,16.644463,10.048560,4635729210453786600.000000,0.547224,0.364864,0.605462,-0.448147,0
-11.813694,-1.193386,-0.699052,0.583199,-0.793854,0.569049,41.657725,-4.595995,20.523743,4635731787434164200.000000,0.692613,-0.038675,0.716710,0.071541,-11.135137,-0.528609,1.221877,-0.029785,0.225479,-0.436500,43.598033,-16.279281,4.553650,4635727599304179700.000000,-0.478123,0.585043,-0.521717,-0.396150,-9.967754,0.281895,-1.393144,-0.062424,-0.092962,-0.195268,41.673755,16.780236,9.921550,4635729210453786600.000000,0.547054,0.364177,0.605630,-0.448685,0
-11.746812,-0.961525,-0.445586,0.596293,-0.870511,0.568545,41.712696,-4.745574,20.365239,4635731733882370000.000000,0.695118,-0.035006,0.714467,0.071573,-11.000861,-0.461614,1.261054,-0.114885,0.231887,-0.433941,43.623868,-16.198090,4.702408,4635727599304179700.000000,-0.478019,0.586557,-0.520970,-0.395018,-10.102410,0.204082,-1.310761,-0.060682,-0.092562,-0.177509,41.623052,16.705422,9.887997,4635729210453786600.000000,0.546913,0.363541,0.605769,-0.449187,0
-11.270992,-0.610692,-0.466828,0.599492,-0.898332,0.521307,41.752266,-4.831023,19.962470,4635731572685799400.000000,0.697703,-0.031459,0.712120,0.071462,-10.849562,-0.400279,1.326041,-0.245934,0.239786,-0.424876,43.538422,-16.060995,4.536642,4635727599304179700.000000,-0.477557,0.588327,-0.520039,-0.394171,-10.056217,0.151062,-1.358083,-0.059049,-0.085217,-0.162491,41.723394,16.650898,9.887997,4635729210453786600.000000,0.546792,0.362940,0.605911,-0.449627,0
-10.505038,-0.149825,-0.579870,0.620286,-0.867628,0.440147,41.907907,-4.898212,19.510766,4635731572685799400.000000,0.700207,-0.028101,0.709840,0.071048,-10.700508,-0.489424,1.579267,-0.385089,0.241900,-0.410716,43.538113,-15.834439,4.413950,4635727561859157000.000000,-0.476721,0.590346,-0.518910,-0.393650,-9.961994,0.166332,-1.423695,-0.078412,-0.076271,-0.152477,41.773735,16.803141,9.944086,4635729210453786600.000000,0.546699,0.362334,0.606096,-0.449980,0
-9.802980,0.198163,-0.476366,0.673694,-0.847027,0.352544,42.039176,-4.907376,19.177988,4635731572685799400.000000,0.702667,-0.024851,0.707609,0.070216,-10.700192,-0.571179,1.867976,-0.547561,0.223917,-0.395566,43.696804,-15.752931,4.575207,4635727491929997300.000000,-0.475501,0.592617,-0.517517,-0.393548,-10.016959,0.151058,-1.312261,-0.098807,-0.068794,-0.134816,41.669561,16.987011,9.973449,4635729210453786600.000000,0.546633,0.361764,0.606296,-0.450250,0
-9.290256,0.445359,-0.149810,0.715377,-0.870499,0.286853,42.121574,-4.907376,18.958378,4635731572685799400.000000,0.705205,-0.021666,0.705299,0.069071,-10.726959,-0.753929,2.072120,-0.726841,0.194562,-0.374676,43.800163,-15.808587,4.536689,4635727491929997300.000000,-0.473864,0.595144,-0.515817,-0.393941,-9.962764,0.126270,-1.253166,-0.105379,-0.059916,-0.115894,41.566969,17.041534,10.037539,4635729210453786600.000000,0.546589,0.361244,0.606499,-0.450446,0
-8.841626,0.643824,0.039748,0.732731,-0.913229,0.227571,42.216114,-4.928665,18.619756,4635731572685799400.000000,0.707869,-0.018591,0.702845,0.067702,-10.328536,-1.189328,2.077843,-0.864880,0.161224,-0.365728,43.774634,-15.749021,4.277760,4635727491929997300.000000,-0.471932,0.597866,-0.513834,-0.394730,-9.752205,0.057991,-1.289404,-0.098037,-0.052406,-0.094599,41.541794,17.041534,10.135190,4635729210453786600.000000,0.546554,0.360809,0.606675,-0.450601,0
-8.368592,0.775060,-0.091314,0.748506,-0.936530,0.161622,42.414337,-4.953297,18.164968,4635731572685799400.000000,0.710605,-0.015655,0.700305,0.066094,-9.608801,-1.727400,1.941875,-0.911826,0.131216,-0.378193,43.692873,-15.582360,4.150517,4635727491929997300.000000,-0.469753,0.600917,-0.511357,-0.395911,-9.540098,-0.175843,-1.234099,-0.075073,-0.040390,-0.071100,41.589854,17.041534,10.040602,4635729210453786600.000000,0.546498,0.360510,0.606798,-0.450743,0
-7.929082,0.900159,-0.289938,0.738927,-0.874159,0.091128,42.692180,-4.773344,17.868599,4635731572685799400.000000,0.713161,-0.012970,0.697925,0.064300,-9.083215,-2.015338,1.857758,-0.924534,0.086611,-0.417505,43.684578,-15.389629,4.214344,4635727491929997300.000000,-0.467695,0.603990,-0.508661,-0.397143,-9.392851,-0.224705,-1.124241,-0.039227,-0.030343,-0.051107,41.558972,16.985469,9.917383,4635729210453786600.000000,0.546398,0.360365,0.606846,-0.450916,0
-7.620621,1.004045,-0.232157,0.701023,-0.719338,0.031551,42.829593,-4.550486,17.856392,4635731572685799400.000000,0.715266,-0.010613,0.695977,0.062429,-8.994823,-2.080068,2.165895,-0.990158,0.027367,-0.473174,43.817736,-15.192852,4.299595,4635727491929997300.000000,-0.465685,0.607190,-0.505593,-0.398540,-9.270782,-0.067177,-1.070441,-0.009518,-0.017961,-0.029445,41.529587,16.956083,9.887997,4635729210453786600.000000,0.546261,0.360367,0.606833,-0.451097,0
-7.556216,1.001063,-0.082414,0.659347,-0.558734,0.004273,42.863343,-4.473818,17.777351,4635731572685799400.000000,0.716901,-0.008500,0.694486,0.060591,-9.082308,-2.141657,2.759225,-1.128541,-0.013901,-0.509425,43.958482,-15.137180,4.138134,4635727529344758800.000000,-0.463462,0.610648,-0.502109,-0.400249,-9.284859,0.056062,-1.198195,0.008042,-0.013519,-0.014355,41.585647,16.956083,9.952068,4635729210453786600.000000,0.546116,0.360455,0.606775,-0.451281,0
-7.748244,0.946164,-0.112723,0.637419,-0.500414,0.009587,42.838635,-4.580933,17.472312,4635731572685799400.000000,0.718356,-0.006452,0.693154,0.058829,-9.082308,-2.354684,3.205897,-1.298301,-0.043676,-0.529071,44.202609,-15.137180,3.857386,4635727599304179700.000000,-0.460882,0.614410,-0.498205,-0.402343,-9.402336,0.069436,-1.325625,0.022627,-0.009682,-0.005076,41.558982,17.060185,10.041711,4635729210453786600.000000,0.545955,0.360608,0.606684,-0.451475,0
-8.062659,0.927582,-0.301788,0.628379,-0.513753,0.030153,42.997330,-4.416524,17.157656,4635731572685799400.000000,0.719836,-0.004367,0.691773,0.057155,-9.090812,-2.755312,3.318766,-1.445507,-0.075383,-0.548524,44.361702,-15.077649,3.636158,4635727599304179700.000000,-0.458005,0.618416,-0.493917,-0.404769,-9.504582,0.149118,-1.314985,0.033377,-0.005375,-0.000735,41.585637,17.114779,10.007049,4635729210453786600.000000,0.545775,0.360806,0.606576,-0.451680,0
-8.282631,1.107468,-0.625060,0.593673,-0.533255,0.042731,43.116547,-4.092640,17.065950,4635731572685799400.000000,0.721362,-0.002346,0.690317,0.055619,-9.013206,-3.124222,3.196160,-1.551618,-0.097678,-0.557201,44.272436,-14.851506,3.530556,4635727561915185200.000000,-0.454901,0.622566,-0.489368,-0.407425,-9.638078,0.299415,-1.422103,0.037718,-0.007075,0.004204,41.558986,17.162824,9.917397,4635729210453786600.000000,0.545599,0.361025,0.606447,-0.451889,0
-8.334620,1.397329,-0.988671,0.553888,-0.527750,0.034740,43.095297,-4.089158,17.020414,4635731572685799400.000000,0.722866,-0.000469,0.688862,0.054173,-8.702166,-3.540233,3.045433,-1.587180,-0.134182,-0.552415,44.130846,-14.547431,3.330909,4635727566691188700.000000,-0.451749,0.626677,-0.484671,-0.410235,-9.668659,0.386040,-1.665445,0.033549,-0.012048,0.002206,41.481547,17.139985,9.952048,4635729280877026300.000000,0.545439,0.361221,0.606318,-0.452099,0
-8.331522,1.748141,-1.004351,0.507185,-0.454092,0.013918,43.031097,-4.275628,16.813000,4635731572685799400.000000,0.724156,0.001191,0.687611,0.052798,-8.328528,-3.761506,2.750743,-1.607942,-0.181276,-0.528765,44.293338,-14.350573,2.944521,4635727706678362100.000000,-0.448568,0.630670,-0.479873,-0.413236,-9.600008,0.346796,-1.765873,0.027473,-0.021593,-0.002802,41.456341,17.058731,10.049711,4635729317827969000.000000,0.545302,0.361372,0.606188,-0.452319,0
-8.377182,2.178527,-0.802785,0.444690,-0.360058,-0.012777,43.088770,-4.245339,16.550467,4635731572685799400.000000,0.725179,0.002566,0.686625,0.051522,-8.067467,-3.539888,2.303405,-1.602713,-0.238125,-0.462383,44.537942,-14.294869,2.629839,4635727706678362100.000000,-0.445377,0.634386,-0.475123,-0.416474,-9.594624,0.357425,-1.778080,0.020732,-0.032641,-0.009877,41.504380,16.981289,9.955212,4635729317827969000.000000,0.545189,0.361471,0.606054,-0.452556,0
-8.499185,2.505283,-0.750587,0.392075,-0.300993,-0.045075,43.323739,-4.104857,16.391508,4635731572685799400.000000,0.726037,0.003677,0.685804,0.050299,-7.745170,-2.298261,2.021578,-1.502521,-0.309130,-0.332805,44.534161,-14.205645,2.464279,4635727706678362100.000000,-0.442351,0.637497,-0.470739,-0.419913,-9.607226,0.562544,-1.742256,0.004850,-0.045423,-0.023324,41.681682,16.908054,9.759917,4635729317827969000.000000,0.545104,0.361478,0.605941,-0.452804,0
-8.673037,2.718858,-0.869616,0.343488,-0.277453,-0.082469,43.464712,-4.019413,16.358064,4635731572685799400.000000,0.726834,0.004530,0.685041,0.049103,-6.842430,-0.215334,1.670795,-1.330111,-0.388951,-0.141352,44.422741,-13.953576,2.290726,4635727706678362100.000000,-0.439585,0.639748,-0.466995,-0.423560,-9.607226,0.643189,-1.641190,-0.021049,-0.056507,-0.037946,41.817564,16.986909,9.692678,4635729317827969000.000000,0.545057,0.361371,0.605872,-0.453037,0
-8.886696,2.917423,-0.924876,0.290082,-0.273730,-0.111321,43.275610,-3.915763,16.260408,4635731572685799400.000000,0.727625,0.005137,0.684277,0.047972,-5.809619,1.414497,1.093296,-1.162088,-0.464463,0.077200,44.456716,-13.909032,1.938292,4635727706678362100.000000,-0.437252,0.640849,-0.464333,-0.427221,-9.695281,0.586755,-1.591165,-0.035179,-0.065420,-0.051832,41.790944,17.097570,9.692678,4635729317827969000.000000,0.545027,0.361181,0.605830,-0.453281,0
-9.081998,2.969587,-0.799857,0.238802,-0.261186,-0.131096,43.134587,-3.754048,16.208244,4635731572685799400.000000,0.728383,0.005531,0.683539,0.046927,-5.599523,0.965832,0.492543,-0.909660,-0.561021,0.253204,44.524648,-14.298087,1.538114,4635727706678362100.000000,-0.435457,0.640964,-0.462401,-0.430962,-9.725501,0.537530,-1.634983,-0.043688,-0.080967,-0.062915,41.657481,17.118983,9.692678,4635729317827969000.000000,0.545027,0.360916,0.605786,-0.453552,0
-9.286420,2.865935,-0.647145,0.195531,-0.245701,-0.140723,43.320661,-3.607402,16.223944,4635731572685799400.000000,0.729099,0.005763,0.682838,0.045977,-6.363847,-0.333828,0.738329,-0.487189,-0.722218,0.360996,44.507126,-14.649950,1.287072,4635727706678362100.000000,-0.434903,0.639800,-0.461218,-0.434503,-9.741117,0.444840,-1.684230,-0.050502,-0.096697,-0.070429,41.602829,17.170834,9.812796,4635729317827969000.000000,0.545063,0.360585,0.605731,-0.453845,0
-9.512301,2.682969,-0.579814,0.156546,-0.235776,-0.143132,43.513176,-3.573587,16.007387,4635731572685799400.000000,0.729787,0.005868,0.682159,0.045132,-7.292638,0.159820,1.137402,-0.155376,-0.862885,0.518160,44.429635,-14.697714,1.023803,4635727669323537400.000000,-0.434969,0.637724,-0.460437,-0.438301,-9.873871,0.306720,-1.688819,-0.039022,-0.112689,-0.076839,41.706965,17.248293,9.875790,4635729176913045500.000000,0.545109,0.360235,0.605627,-0.454205,0
-9.698573,2.420598,-0.586039,0.114903,-0.246462,-0.144723,43.528820,-3.659023,15.772132,4635731572685799400.000000,0.730505,0.005844,0.681438,0.044399,-7.694911,1.003149,1.139010,0.071061,-0.953579,0.726717,44.322955,-14.812366,0.637429,4635727599304179700.000000,-0.435415,0.634659,-0.460449,-0.442277,-9.936827,0.216304,-1.692632,-0.024334,-0.129078,-0.080445,41.753518,17.225414,9.691552,4635729103079604200.000000,0.545166,0.359880,0.605463,-0.454637,0
-9.808523,2.121642,-0.519023,0.072427,-0.252083,-0.151397,43.409527,-3.680824,15.719938,4635731572685799400.000000,0.731240,0.005673,0.680691,0.043767,-7.796270,1.596496,1.289210,0.271811,-1.006193,0.882655,44.176476,-15.116467,0.259029,4635727599304179700.000000,-0.436438,0.630556,-0.461492,-0.446033,-9.912795,0.283432,-1.776932,-0.023799,-0.143698,-0.083282,41.693248,17.248293,9.466854,4635729103079604200.000000,0.545251,0.359495,0.605267,-0.455101,0
-9.851459,1.779760,-0.387861,0.043809,-0.250492,-0.161791,43.448925,-3.491742,15.781142,4635731572685799400.000000,0.731973,0.005385,0.679942,0.043185,-8.056343,1.631047,1.168209,0.445549,-1.056070,0.997645,44.055461,-15.338859,-0.149118,4635727599304179700.000000,-0.437782,0.625803,-0.463049,-0.449781,-9.804092,0.433722,-1.754828,-0.052968,-0.158985,-0.090691,41.671877,17.273476,9.463776,4635729103079604200.000000,0.545403,0.358996,0.605103,-0.455531,0
-9.784457,1.495809,-0.238268,0.036325,-0.244349,-0.181281,43.589429,-3.308206,15.796201,4635731572685799400.000000,0.732691,0.005018,0.679211,0.042565,-8.368399,0.770253,0.890640,0.601446,-1.117368,1.078453,43.927037,-15.616406,-0.651185,4635727599304179700.000000,-0.439221,0.620731,-0.464623,-0.453766,-9.681635,0.496305,-1.577084,-0.095324,-0.169400,-0.103107,41.628021,17.225423,9.561431,4635729103079604200.000000,0.545622,0.358349,0.605014,-0.455896,0
-9.665413,1.309400,-0.085899,0.031257,-0.243249,-0.201841,43.632468,-3.329413,15.824181,4635731572685799400.000000,0.733408,0.004578,0.678480,0.041897,-8.892710,-0.343808,0.967959,0.741136,-1.190789,1.119089,43.639943,-16.091407,-1.123033,4635727599304179700.000000,-0.441053,0.615160,-0.466407,-0.457729,-9.651857,0.412417,-1.477487,-0.129639,-0.180380,-0.106482,41.642870,17.304334,9.530956,4635729103079604200.000000,0.545911,0.357595,0.604971,-0.456199,0
-9.555549,1.211834,0.152184,0.028286,-0.253143,-0.224793,43.607601,-3.354279,15.610784,4635731572685799400.000000,0.734157,0.004065,0.677719,0.041167,-9.457494,-0.860860,1.556682,0.768950,-1.208597,1.143936,43.304477,-16.544131,-1.369851,4635727599304179700.000000,-0.443319,0.609008,-0.468791,-0.461315,-9.664064,0.254118,-1.528948,-0.148335,-0.191796,-0.100141,41.767963,17.511068,9.553412,4635729103079604200.000000,0.546268,0.356794,0.604926,-0.456457,0
-9.436609,1.077565,0.338589,0.042411,-0.251586,-0.252828,43.745086,-3.195597,15.332880,4635731572685799400.000000,0.734904,0.003517,0.676963,0.040312,-9.680470,-1.078958,1.346192,0.585266,-1.103622,1.170868,43.246527,-17.070074,-1.552955,4635727599304179700.000000,-0.444700,0.603452,-0.470874,-0.465151,-9.748337,-0.004867,-1.650629,-0.137331,-0.208783,-0.093698,41.774520,17.542824,9.646870,4635729103079604200.000000,0.546664,0.356001,0.604813,-0.456752,0
-9.314345,0.973565,0.439176,0.072011,-0.228651,-0.280342,43.781997,-3.076266,15.234452,4635731572685799400.000000,0.735589,0.002978,0.676282,0.039289,-9.799260,-1.527322,0.493825,0.305804,-0.911748,1.200083,43.341126,-17.558927,-1.769991,4635727599304179700.000000,-0.444924,0.598699,-0.472823,-0.469084,-9.814357,-0.141892,-1.616765,-0.118037,-0.224173,-0.082053,41.597198,17.357495,9.560374,4635729103079604200.000000,0.547091,0.355252,0.604611,-0.457092,0
-9.292757,0.988595,0.594726,0.115544,-0.202948,-0.301985,43.705734,-3.094423,15.405538,4635731572685799400.000000,0.736203,0.002507,0.675684,0.038078,-10.179231,-1.821165,-0.318148,-0.002665,-0.712702,1.184646,43.024355,-17.892754,-2.054992,4635727599304179700.000000,-0.443733,0.595182,-0.474146,-0.473334,-9.826960,0.025440,-1.406630,-0.117760,-0.234888,-0.072003,41.453332,17.321511,9.313224,4635729103079604200.000000,0.547561,0.354511,0.604366,-0.457428,0
-9.353789,1.083220,0.774796,0.151621,-0.211948,-0.313241,43.680794,-3.089008,15.427561,4635731572685799400.000000,0.736842,0.002117,0.675064,0.036731,-10.350977,-1.143251,-1.560113,-0.450716,-0.510079,1.089668,42.717944,-18.230280,-2.343694,4635727599304179700.000000,-0.441346,0.592917,-0.474894,-0.477639,-9.826960,0.210139,-1.278370,-0.131208,-0.243801,-0.058922,41.571833,17.506839,9.208584,4635729103079604200.000000,0.548096,0.353758,0.604106,-0.457714,0
-9.396675,1.171697,0.948725,0.177786,-0.246412,-0.310566,43.839490,-2.805533,15.195834,4635731572685799400.000000,0.737575,0.001820,0.674339,0.035318,-9.768054,-0.268201,-3.301025,-1.074485,-0.275610,0.926426,42.814941,-18.559855,-2.624442,4635727599304179700.000000,-0.437386,0.592450,-0.474561,-0.482171,-9.786935,0.160296,-1.225343,-0.148630,-0.250945,-0.042901,41.707694,17.542838,9.268422,4635729243900316700.000000,0.548704,0.352991,0.603839,-0.457930,0
-9.369345,1.260279,1.119731,0.204233,-0.268899,-0.311351,43.916512,-2.463196,14.963252,4635731572685799400.000000,0.738369,0.001606,0.673546,0.033829,-8.920160,-0.001676,-4.593811,-1.726927,-0.031019,0.708718,42.867785,-18.804666,-2.939145,4635727599304179700.000000,-0.431747,0.594066,-0.472800,-0.486970,-9.757918,-0.026209,-1.232546,-0.159084,-0.260855,-0.028280,41.641057,17.309508,9.374082,4635729317827969000.000000,0.549382,0.352215,0.603549,-0.458097,0
-9.302154,1.315263,1.244930,0.224281,-0.263637,-0.316436,43.769814,-2.361963,14.981282,4635731572685799400.000000,0.739146,0.001438,0.672771,0.032267,-8.633205,-0.254817,-5.342347,-2.272435,0.211505,0.458032,42.572098,-18.919805,-3.220056,4635727599304179700.000000,-0.424759,0.597604,-0.469711,-0.491753,-9.753716,-0.225731,-1.261164,-0.156388,-0.275407,-0.005989,41.638650,17.200232,9.219800,4635729317827969000.000000,0.550132,0.351475,0.603186,-0.458243,0
-9.283561,1.370027,1.378873,0.242655,-0.235836,-0.316975,43.793326,-2.356593,14.964155,4635731572685799400.000000,0.739843,0.001322,0.672080,0.030653,-8.667927,-1.808975,-6.175631,-2.608069,0.476659,0.224083,42.420727,-19.086449,-3.317704,4635727636590102500.000000,-0.416859,0.602668,-0.465773,-0.496059,-9.785729,-0.429037,-1.341602,-0.136306,-0.290727,0.022813,41.863955,17.304277,8.982871,4635729247430497300.000000,0.550944,0.350826,0.602705,-0.458397,0
-9.359826,1.495007,1.665339,0.267586,-0.225614,-0.318024,44.089547,-2.094312,14.609696,4635731572685799400.000000,0.740508,0.001279,0.671422,0.028967,-8.453465,-7.566151,-8.449704,-2.304122,0.608286,0.090974,42.395298,-19.249371,-3.546736,4635727706678362100.000000,-0.409698,0.607670,-0.462304,-0.499160,-9.898581,-0.580534,-1.371434,-0.115205,-0.307781,0.057622,41.913032,17.414949,8.975429,4635729210453786600.000000,0.551833,0.350282,0.602093,-0.458550,0
-9.469448,1.632651,1.992710,0.270962,-0.240821,-0.328144,44.242890,-1.813215,14.474721,4635731572685799400.000000,0.741215,0.001220,0.670714,0.027239,-9.981333,-12.328558,-6.449922,-0.898869,0.191754,0.022067,42.377144,-19.301615,-3.925341,4635727706678362100.000000,-0.407012,0.609512,-0.460835,-0.500467,-9.981046,-0.462517,-1.463265,-0.103349,-0.329441,0.092206,41.739547,17.332337,9.081090,4635729210453786600.000000,0.552824,0.349807,0.601357,-0.458682,0
-9.655581,1.611852,1.935882,0.303017,-0.250527,-0.342336,44.160459,-1.684622,14.563195,4635731572685799400.000000,0.741947,0.001222,0.669977,0.025378,-12.232045,-6.193469,0.947528,0.150129,0.004667,0.024542,42.458354,-19.105306,-3.989309,4635727706678362100.000000,-0.407339,0.609179,-0.461235,-0.500238,-10.117894,-0.370427,-1.721771,-0.098305,-0.355739,0.131618,41.759892,17.225464,8.990897,4635729210453786600.000000,0.553948,0.349393,0.600493,-0.458775,0
-9.817654,1.437692,1.623585,0.324453,-0.231830,-0.339713,44.102325,-1.645338,14.588328,4635731572685799400.000000,0.742623,0.001295,0.669297,0.023466,-9.981932,-2.872938,-2.077475,0.432153,0.155780,0.196149,42.476523,-19.000966,-3.801961,4635727706678362100.000000,-0.407733,0.608350,-0.462915,-0.499374,-10.116962,-0.518251,-1.743094,-0.114705,-0.382110,0.157538,41.970387,17.104212,8.859599,4635729210453786600.000000,0.555210,0.348955,0.599559,-0.458804,0
-9.875665,1.333877,1.696082,0.322327,-0.212362,-0.322624,44.071995,-1.423221,14.435317,4635731572685799400.000000,0.743240,0.001408,0.668674,0.021613,-8.181104,4.129135,-3.412607,0.460037,0.260906,0.362676,42.365658,-19.163891,-3.606651,4635727706678362100.000000,-0.407648,0.607365,-0.465253,-0.498468,-9.915283,-0.270100,-1.672824,-0.130906,-0.407745,0.183731,41.998493,17.053741,8.761940,4635729210453786600.000000,0.556606,0.348495,0.598557,-0.458770,0
-9.942619,1.257487,1.949790,0.318572,-0.189095,-0.304212,44.007690,-1.113894,14.392778,4635731572685799400.000000,0.743788,0.001558,0.668120,0.019827,-7.498582,7.055408,-4.014485,0.353797,0.401646,0.352163,42.262032,-19.250079,-3.343585,4635727706678362100.000000,-0.406770,0.607122,-0.467251,-0.497612,-9.818958,-0.033647,-1.580191,-0.165393,-0.437582,0.210506,41.857031,17.053741,8.608270,4635729210453786600.000000,0.558175,0.347966,0.597509,-0.458632,0
-10.061669,1.241883,2.041783,0.321755,-0.190813,-0.284160,44.046955,-1.141203,14.298142,4635731546119257100.000000,0.744336,0.001775,0.667557,0.018095,-8.065328,3.007574,-5.220741,0.342845,0.421172,0.243142,42.232389,-19.257296,-3.054596,4635727706678362100.000000,-0.406324,0.606890,-0.469315,-0.496315,-9.886757,-0.064005,-1.482129,-0.203287,-0.466123,0.228771,41.846154,16.997738,8.297164,4635729210453786600.000000,0.559899,0.347341,0.596436,-0.458400,0
-10.153410,1.312231,1.996106,0.333216,-0.245457,-0.272136,44.205636,-1.178210,14.182505,4635731518425307100.000000,0.745033,0.002064,0.666823,0.016368,-8.408433,1.661344,-6.090148,0.590356,0.499627,0.288598,42.180812,-19.479485,-2.990814,4635727706678362100.000000,-0.406248,0.606310,-0.472130,-0.494413,-10.044620,-0.185660,-1.396680,-0.228698,-0.491426,0.254925,42.079396,16.824290,8.038751,4635729210453786600.000000,0.561769,0.346674,0.595310,-0.458081,0
-10.177955,1.330607,1.956073,0.346608,-0.327693,-0.261730,44.306966,-1.062696,14.047441,4635731680059981800.000000,0.745954,0.002431,0.665832,0.014636,-8.902713,1.029371,-5.803543,0.905393,0.482359,0.232765,42.218422,-19.757787,-2.855335,4635727706678362100.000000,-0.407105,0.605265,-0.475413,-0.491835,-10.171723,-0.295934,-1.295237,-0.247959,-0.513192,0.290466,42.348768,16.700562,8.027428,4635729210453786600.000000,0.563786,0.346006,0.594116,-0.457659,0
-10.189899,1.351739,2.068430,0.350594,-0.412086,-0.247856,44.209574,-0.857801,14.111758,4635731680059981800.000000,0.747104,0.002853,0.664575,0.012935,-10.748993,1.665278,-3.358113,1.018476,0.383540,0.103907,42.274239,-19.836042,-2.468932,4635727706678362100.000000,-0.408702,0.604066,-0.478429,-0.489054,-10.245382,-0.281608,-1.129385,-0.265417,-0.534885,0.329249,42.376943,16.675312,8.000896,4635729210453786600.000000,0.565952,0.345348,0.592843,-0.457133,0
-10.338727,1.388895,2.276613,0.377900,-0.496957,-0.232616,44.080933,-0.754245,14.015177,4635731626965691400.000000,0.748484,0.003407,0.663050,0.011205,-12.649820,3.586214,-0.243073,0.882988,0.314656,0.057973,42.274239,-19.817833,-2.086285,4635727706678362100.000000,-0.410183,0.603033,-0.480933,-0.486626,-10.314418,-0.376335,-1.014052,-0.286007,-0.549618,0.372270,42.395473,16.627321,7.723477,4635729210453786600.000000,0.568259,0.344720,0.591507,-0.456475,0
-10.695650,1.245814,2.201406,0.461990,-0.610795,-0.218247,44.117159,-0.595539,13.600365,4635731465311617000.000000,0.750169,0.004268,0.661167,0.009286,-13.866803,5.640310,3.061833,0.524090,0.303356,0.095335,42.244613,-19.873653,-1.763395,4635727706678362100.000000,-0.410709,0.602505,-0.482784,-0.485001,-10.411658,-0.519453,-0.932809,-0.306338,-0.566598,0.422732,42.580699,16.346113,7.465027,4635729210453786600.000000,0.570727,0.344135,0.590089,-0.455671,0
-11.071297,0.932279,1.865260,0.546989,-0.798547,-0.182280,44.287777,-0.457982,13.208683,4635731465311617000.000000,0.752358,0.005502,0.658691,0.007242,-13.294130,4.254902,3.740626,0.024086,0.395317,0.007045,42.214179,-19.814402,-1.572309,4635727706678362100.000000,-0.409972,0.603190,-0.483561,-0.483997,-10.537511,-0.641517,-0.815374,-0.322065,-0.574295,0.481033,42.768844,16.011490,7.397686,4635729210453786600.000000,0.573343,0.343636,0.588594,-0.454697,0
-11.306935,0.319871,1.796542,0.578037,-1.036329,-0.116681,44.550023,-0.381722,13.038608,4635731465311617000.000000,0.755183,0.007020,0.655455,0.005314,-11.669015,0.702152,2.481703,-0.282101,0.484054,-0.175580,42.287418,-19.673130,-1.452681,4635727706678362100.000000,-0.408654,0.604944,-0.483410,-0.483073,-10.639799,-0.803572,-0.745075,-0.327553,-0.571165,0.546114,42.719608,15.850267,7.405684,4635729210453786600.000000,0.576077,0.343286,0.587016,-0.453545,0
-11.277477,-0.540885,2.262129,0.493944,-1.184902,-0.030396,44.867387,-0.320409,12.599745,4635731465311617000.000000,0.758393,0.008512,0.651730,0.003882,-11.650473,-0.954965,2.554421,-0.288165,0.527598,-0.286760,42.364879,-19.617296,-1.418847,4635727706678362100.000000,-0.407453,0.607017,-0.483036,-0.481860,-10.741236,-0.906707,-0.580517,-0.337717,-0.553930,0.614101,42.616897,15.772818,7.281955,4635729210453786600.000000,0.578903,0.343107,0.585393,-0.452177,0
-10.963253,-1.286230,3.043666,0.342197,-1.091508,0.039635,45.103338,-0.329600,12.089207,4635731518367398900.000000,0.761335,0.009714,0.648279,0.003087,-12.450105,-0.700799,3.244012,-0.198076,0.594870,-0.260801,42.450336,-19.646905,-1.287345,4635727706678362100.000000,-0.406289,0.609016,-0.483018,-0.480337,-10.867079,-0.879794,-0.332614,-0.361063,-0.526236,0.678257,42.687565,15.595651,7.030697,4635729210453786600.000000,0.581807,0.343078,0.583778,-0.450557,0
-10.627393,-1.720666,3.506992,0.227715,-0.755507,0.089473,45.073796,-0.349952,11.834193,4635731680059981800.000000,0.763361,0.010682,0.645878,0.002774,-11.849525,-0.379880,3.119054,-0.145797,0.693756,-0.196825,42.501948,-19.702749,-1.092019,4635727706678362100.000000,-0.404928,0.610989,-0.483430,-0.478561,-10.993371,-0.790557,-0.084245,-0.395133,-0.489331,0.730418,43.001960,15.259764,6.805882,4635729210453786600.000000,0.584759,0.343159,0.582231,-0.448671,0
-10.332711,-1.678393,3.060753,0.174685,-0.411481,0.127548,45.008698,-0.381724,11.612655,4635731680059981800.000000,0.764457,0.011580,0.644565,0.002740,-10.492891,-0.891521,1.905320,-0.098606,0.764802,-0.189264,42.464365,-19.647768,-0.900945,4635727632277962800.000000,-0.403525,0.613004,-0.484071,-0.476518,-11.243331,-0.660934,0.111913,-0.435311,-0.446648,0.780209,43.196919,14.925129,6.682530,4635729210453786600.000000,0.587748,0.343339,0.580781,-0.446502,0
-10.132880,-1.233326,2.108960,0.143549,-0.323016,0.148184,45.008698,-0.223032,11.280985,4635731634966432800.000000,0.765315,0.012434,0.643530,0.002859,-9.717479,-1.983461,0.652378,0.038428,0.778142,-0.162342,42.378914,-19.484842,-0.713605,4635727491929997300.000000,-0.402385,0.614755,-0.485067,-0.474206,-11.536719,-0.514457,0.362730,-0.448291,-0.398662,0.831476,43.186451,14.508070,6.653035,4635729351059460100.000000,0.590727,0.343694,0.579388,-0.444100,0
-9.923560,-0.558067,1.715368,0.093482,-0.470410,0.161396,45.008698,-0.079724,11.235184,4635731465311617000.000000,0.766567,0.013165,0.642021,0.003148,-9.347915,-2.253977,0.029520,0.232704,0.760556,-0.099770,42.318838,-19.318175,-0.454863,4635727491929997300.000000,-0.401650,0.616014,-0.486572,-0.471648,-11.777525,-0.551802,0.431910,-0.446155,-0.354753,0.868060,43.325234,14.095923,6.533144,4635729425202151400.000000,0.593655,0.344219,0.578035,-0.441546,0
-9.543923,0.009349,1.933598,0.017762,-0.665326,0.167145,45.024070,-0.048078,11.351074,4635731465311617000.000000,0.768341,0.013673,0.639885,0.003647,-8.751642,-1.543618,-0.185492,0.414055,0.730811,-0.038365,42.395416,-19.239820,-0.076463,4635727491929997300.000000,-0.401316,0.616778,-0.488537,-0.468895,-12.149085,-0.678081,0.510953,-0.397866,-0.326054,0.878717,43.665264,13.821417,6.342055,4635729425202151400.000000,0.596453,0.344938,0.576635,-0.439037,0
-9.067846,0.407212,2.327092,-0.048067,-0.745212,0.151638,45.133177,-0.234349,11.106483,4635731465311617000.000000,0.770324,0.013929,0.637486,0.004268,-8.276145,-0.806550,-0.525006,0.499070,0.686853,-0.016022,42.584600,-19.346880,0.238541,4635727491929997300.000000,-0.401240,0.617261,-0.490646,-0.466114,-12.728601,-0.592376,1.064992,-0.325235,-0.294534,0.873492,43.856103,13.641649,6.274605,4635729284622249000.000000,0.599051,0.345879,0.575177,-0.436666,0
-8.645578,0.620437,2.289450,-0.045378,-0.670060,0.123764,45.341453,-0.463109,10.671411,4635731465311617000.000000,0.772101,0.014119,0.635324,0.004796,-8.425486,-0.173205,-1.223137,0.460202,0.633039,-0.024898,42.670045,-19.517770,0.535277,4635727566278854700.000000,-0.401188,0.617713,-0.492563,-0.463530,-13.687253,-0.077406,2.113753,-0.263789,-0.274299,0.850962,43.837668,13.482953,6.338535,4635729210453786600.000000,0.601463,0.346950,0.573679,-0.434465,0
-8.492424,0.914011,2.061683,-0.046452,-0.527945,0.083414,45.381409,-0.616088,10.431612,4635731465311617000.000000,0.773498,0.014196,0.633618,0.005206,-9.002005,0.697206,-1.850824,0.331171,0.585674,-0.055707,42.751263,-19.570350,1.019307,4635727706678362100.000000,-0.400962,0.618341,-0.494076,-0.461273,-14.658500,0.430400,3.198200,-0.218734,-0.259753,0.822452,43.868310,13.276309,6.372264,4635729210453786600.000000,0.603716,0.348089,0.572168,-0.432418,0
-8.610564,1.245568,2.161305,-0.105235,-0.395054,0.020030,45.313881,-0.665692,10.343602,4635731465311617000.000000,0.774546,0.013913,0.632340,0.005575,-9.646127,1.429660,-1.950398,0.132603,0.566118,-0.093705,42.769588,-19.374122,1.360175,4635727706678362100.000000,-0.400337,0.619334,-0.495077,-0.459406,-14.718576,0.557767,3.768093,-0.117690,-0.269601,0.804471,44.057630,12.892571,6.308342,4635729210453786600.000000,0.605807,0.349416,0.570467,-0.430667,0
-8.851930,1.459181,2.155795,-0.179792,-0.312367,-0.078264,45.347151,-0.546978,10.222919,4635731510333264900.000000,0.775381,0.013128,0.631331,0.005829,-10.074834,1.100193,-1.679964,-0.057419,0.561683,-0.124970,42.654562,-19.214453,1.449854,4635727706678362100.000000,-0.399287,0.620698,-0.495621,-0.457890,-14.404081,0.101903,4.129639,0.022814,-0.307081,0.794450,44.197899,12.476647,6.218677,4635729210453786600.000000,0.607758,0.351002,0.568425,-0.429326,0
-9.292575,1.279036,1.950625,-0.241055,-0.231790,-0.191454,45.487932,-0.356574,9.997478,4635731680059981800.000000,0.776008,0.011847,0.630585,0.005882,-10.338225,0.101071,-1.398239,-0.168595,0.543323,-0.140545,42.513236,-19.244017,1.615081,4635727706678362100.000000,-0.398017,0.622238,-0.495883,-0.456620,-14.339032,-0.477803,4.100607,0.211041,-0.328173,0.801284,44.235409,12.038108,6.133231,4635729210453786600.000000,0.609488,0.353037,0.565976,-0.428440,0
-9.829687,0.706099,1.994715,-0.316271,-0.189077,-0.281694,45.512556,-0.417401,9.768481,4635731680059981800.000000,0.776526,0.010084,0.629978,0.005844,-10.482399,-0.413143,-1.212813,-0.195800,0.508570,-0.125677,42.402443,-19.274563,1.836260,4635727706678362100.000000,-0.396722,0.623720,-0.496075,-0.455516,-14.220088,-0.771050,3.648727,0.435824,-0.344408,0.814840,44.343491,11.670081,5.919947,4635729350999013400.000000,0.610940,0.355641,0.563053,-0.428069,0
