Accelerometer-X,Accelerometer-Y,Accelerometer-Z,Gyroscope-X,Gyroscope-Y,Gyroscope-Z,Magnetometer-X,Magnetometer-Y,Magnetometer-Z,Barometer-pressure,Orientation-S,Orientation-X,Orientation-Y,Orientation-Z,Accelerometer-X,Accelerometer-Y,Accelerometer-Z,Gyroscope-X,Gyroscope-Y,Gyroscope-Z,Magnetometer-X,Magnetometer-Y,Magnetometer-Z,Barometer-pressure,Orientation-S,Orientation-X,Orientation-Y,Orientation-Z,Accelerometer-X,Accelerometer-Y,Accelerometer-Z,Gyroscope-X,Gyroscope-Y,Gyroscope-Z,Magnetometer-X,Magnetometer-Y,Magnetometer-Z,Barometer-pressure,Orientation-S,Orientation-X,Orientation-Y,Orientation-Z,jump
-9.49736,0.89114,2.113491,0.030413,-0.0129,-0.008263,44.831756,-4.616276,8.873173,4.63583E+18,0.776785,-0.017926,0.622847,0.091357,-9.586943,1.11895,-1.403759,-0.00212,0.00249,-0.009613,37.855156,-23.348909,12.801989,4.63583E+18,0.510517,-0.397581,0.641955,0.411333,-9.658076,0.773106,-0.921615,-0.00053,-0.006762,0,42.713616,13.710846,7.265337,4.63583E+18,0.519083,0.543353,0.505044,-0.424559,0
-9.498969,0.89114,2.120871,0.025437,-0.007253,-0.005705,45.044371,-4.446999,8.873834,4.63583E+18,0.776801,-0.017855,0.622844,0.091247,-9.58685,1.094537,-1.391644,0.002144,0.000707,-0.007469,37.797978,-23.377178,12.866603,4.63583E+18,0.51053,-0.39761,0.641938,0.411316,-9.67643,0.83019,-0.925742,0.003566,-0.0073,0,42.762621,13.635583,7.088202,4.63583E+18,0.519063,0.543345,0.505043,-0.424594,0
-9.504742,0.889532,2.104499,0.016246,-0.014366,-0.000927,45.09765,-4.297954,8.935159,4.63583E+18,0.776834,-0.017798,0.622816,0.091176,-9.582811,1.07829,-1.407981,0.005349,-0.000715,-0.007124,37.712526,-23.328166,12.801255,4.63583E+18,0.510551,-0.397627,0.641925,0.411294,-9.690657,0.862683,-0.927763,0.00249,-0.005694,0,42.703439,13.684578,7.055879,4.63583E+18,0.519042,0.543338,0.505048,-0.424624,0
-9.464905,0.875717,2.142728,0.011244,-0.022597,0,44.959866,-4.235018,8.839111,4.63583E+18,0.776887,-0.017753,0.622759,0.091122,-9.590979,1.090587,-1.416059,0.005694,-0.000353,-0.005333,37.635247,-23.303932,12.703603,4.63583E+18,0.51057,-0.397641,0.641915,0.411274,-9.672307,0.825983,-0.948134,-0.000537,-0.005341,-0.001783,42.495759,13.757821,7.218851,4.63583E+18,0.519025,0.543321,0.505062,-0.42465,0
-9.408697,0.852912,2.183519,0.014673,-0.008349,0,44.980741,-4.309213,8.76331,4.63583E+18,0.776903,-0.017701,0.622749,0.091058,-9.570518,1.131335,-1.399725,0.004626,-0.001429,-0.004273,37.668178,-23.410105,12.540612,4.63583E+18,0.510587,-0.397651,0.641903,0.41126,-9.658078,0.828082,-0.982735,-0.001068,-0.006232,-0.003028,42.589762,13.780136,7.169711,4.63583E+18,0.519007,0.543299,0.505078,-0.42468,0
-9.393921,0.840704,2.168097,0.012396,0.000281,-0.000141,45.086424,-4.286717,8.778418,4.63583E+18,0.776897,-0.017661,0.622767,0.090998,-9.582895,1.163828,-1.424308,0.001414,0.000007,-0.004987,37.810788,-23.576955,12.484132,4.63583E+18,0.510597,-0.397673,0.641887,0.411252,-9.666242,0.850475,-0.9888,-0.003742,-0.006409,-0.004096,42.870689,13.659929,6.990566,4.63583E+18,0.519183,0.543045,0.505342,-0.424477,0
-9.44114,0.828498,2.13469,0.009473,0.001293,-0.001068,44.853543,-4.138309,8.948027,4.63583E+18,0.776888,-0.017633,0.622787,0.090944,-9.595019,1.171911,-1.42414,0,0.000354,-0.005341,37.8102,-23.576367,12.610672,4.63583E+18,0.510604,-0.397699,0.641869,0.411245,-9.647892,0.844332,-0.978614,-0.003381,-0.0073,-0.003381,42.860114,13.625483,6.95822,4.63583E+18,0.519291,0.542875,0.505512,-0.424361,0
-9.468129,0.816291,2.125694,0.008686,-0.004554,-0.000928,44.747825,-4.138309,8.948027,4.63583E+18,0.776894,-0.017605,0.622787,0.090892,-9.611349,1.147415,-1.424224,0.000714,-0.001429,-0.005341,37.716592,-23.43377,12.671285,4.63583E+18,0.510616,-0.397721,0.641849,0.41124,-9.654035,0.842311,-0.986778,-0.004096,-0.00926,-0.003204,42.583156,13.816992,7.121192,4.63583E+18,0.519287,0.54284,0.505527,-0.424392,0
-9.436323,0.80248,2.139504,0.009894,-0.00683,-0.000281,44.969492,-4.138309,8.935192,4.63583E+18,0.776906,-0.01757,0.622781,0.090839,-9.603106,1.159781,-1.43643,0.001068,-0.002136,-0.006769,37.741404,-23.377178,12.540658,4.63583E+18,0.510634,-0.397745,0.641825,0.411232,-9.645873,0.842311,-0.9888,-0.004273,-0.008722,-0.004987,42.45931,13.987786,7.153538,4.63583E+18,0.519279,0.542802,0.505548,-0.424425,0
-9.436323,0.779669,2.159105,0.01189,-0.008349,-0.002136,45.012244,-4.149546,8.863209,4.63583E+18,0.776923,-0.017533,0.62277,0.090775,-9.586854,1.171911,-1.432308,0.002497,-0.002136,-0.007477,37.720715,-23.548646,12.41881,4.63583E+18,0.510656,-0.397767,0.641803,0.411219,-9.654033,0.811759,-1.009168,-0.006055,-0.007654,-0.003559,42.587717,13.820601,7.072066,4.63583E+18,0.519275,0.542766,0.505571,-0.424449,0
-9.439529,0.764258,2.150106,0.013239,-0.000561,-0.002136,44.874416,-4.246201,8.936807,4.63583E+18,0.77692,-0.017495,0.622785,0.090708,-9.590976,1.155581,-1.444595,0.001061,-0.000707,-0.010335,37.753614,-23.633533,12.455831,4.63583E+18,0.510676,-0.397803,0.641776,0.411201,-9.676422,0.815872,-0.972482,-0.0073,-0.007477,-0.003204,42.748426,13.72106,7.137344,4.63583E+18,0.519274,0.542727,0.505596,-0.424469,0
-9.46555,0.735652,2.16071,0.016724,-0.004974,-0.001856,44.906498,-4.393061,8.873803,4.63583E+18,0.776928,-0.017443,0.622787,0.090632,-9.578693,1.212801,-1.403702,0,0,-0.013178,37.773751,-23.462107,12.610621,4.63582E+18,0.510697,-0.39785,0.641745,0.411179,-9.690654,0.817896,-0.964385,-0.006586,-0.007477,-0.002313,42.76456,13.963485,7.143355,4.63583E+18,0.519467,0.542462,0.505865,-0.424252,0
-9.494153,0.763274,2.16071,0.021924,-0.008631,-0.000281,45.129787,-4.372835,8.948027,4.63583E+18,0.776946,-0.017369,0.62278,0.090548,-9.603259,1.204337,-1.403928,0.000714,0.000714,-0.013886,37.826851,-23.377178,12.605975,4.63582E+18,0.510719,-0.397898,0.641715,0.411152,-9.672313,0.807713,-0.954202,-0.003736,-0.007477,-0.000354,42.640338,13.942819,7.232976,4.63583E+18,0.519464,0.542437,0.505877,-0.424273,0
-9.471344,0.805689,2.16071,0.025495,-0.001996,-0.001996,45.181597,-4.298005,8.922408,4.63583E+18,0.776947,-0.01729,0.622795,0.090449,-9.594944,1.159629,-1.424222,0.001782,0.002497,-0.012457,37.912299,-23.491462,12.516483,4.63582E+18,0.510735,-0.397943,0.641693,0.411122,-9.658081,0.785323,-0.952177,-0.003204,-0.007477,0.000891,42.616043,13.674076,7.251197,4.63583E+18,0.519461,0.542416,0.505886,-0.424293,0
-9.462339,0.80729,2.16071,0.024708,-0.000087,-0.000928,45.001084,-4.246181,8.75431,4.63583E+18,0.776943,-0.017212,0.622816,0.090356,-9.582811,1.139333,-1.436429,0.000708,0.001776,-0.01175,37.989586,-23.490942,12.675915,4.63582E+18,0.51075,-0.397987,0.641668,0.411098,-9.645871,0.781274,-0.972548,-0.001422,-0.006586,0.003742,42.748454,13.694759,7.088233,4.63583E+18,0.519458,0.542406,0.505886,-0.424309,0
-9.471343,0.821101,2.155903,0.025495,0.005568,0,44.800181,-4.40428,8.777735,4.63583E+18,0.776923,-0.017131,0.622856,0.090263,-9.599137,1.086312,-1.432311,0,0.000354,-0.008893,38.119969,-23.405491,12.834245,4.63582E+18,0.510763,-0.398023,0.641645,0.411085,-9.643848,0.760902,-0.986778,-0.000177,-0.0073,0.005164,42.764557,13.831143,6.892906,4.63583E+18,0.519455,0.542401,0.50588,-0.424326,0
-9.465541,0.84071,2.120886,0.023867,-0.000841,0,44.895232,-4.458303,8.862575,4.63583E+18,0.776921,-0.017053,0.622874,0.090174,-9.590903,1.053882,-1.428266,0.002857,-0.000714,-0.009619,38.066449,-23.43431,12.736016,4.63582E+18,0.510785,-0.398053,0.641622,0.411063,-9.66422,0.777231,-0.978614,-0.000891,-0.011042,0.006232,42.701419,13.794288,6.942047,4.63583E+18,0.519465,0.54239,0.505865,-0.424347,0
-9.49736,0.833306,2.106078,0.018666,-0.00725,0.00042,45.033112,-4.372249,8.835354,4.63583E+18,0.776934,-0.016988,0.62287,0.090101,-9.574652,1.057996,-1.420107,0.0057,-0.001782,-0.007112,37.85067,-23.405515,12.606011,4.63582E+18,0.51081,-0.398068,0.641607,0.411042,-9.688633,0.811827,-0.935854,-0.000177,-0.010858,0.006409,42.62818,13.782158,7.121173,4.63583E+18,0.519472,0.542381,0.505848,-0.424369,0
-9.494159,0.856119,2.148503,0.014814,-0.012818,0.003064,45.033112,-4.234967,8.680662,4.63583E+18,0.77696,-0.016927,0.622846,0.090047,-9.595082,1.10284,-1.424218,0.009265,-0.000708,-0.003913,37.769707,-23.320063,12.508351,4.63583E+18,0.510833,-0.398069,0.641605,0.411016,-9.713047,0.787343,-0.948131,0,-0.010681,0.008191,42.67715,13.914555,7.153538,4.63583E+18,0.519482,0.542377,0.505827,-0.424388,0
-9.472945,0.868324,2.142109,0.013886,-0.013237,0.002556,45.0443,-4.318804,8.863155,4.63583E+18,0.776988,-0.01687,0.622821,0.089994,-9.590911,1.139397,-1.403793,0.009254,-0.001428,-0.001063,37.883915,-23.405935,12.475966,4.63583E+18,0.510853,-0.398061,0.641606,0.410997,-9.676356,0.832195,-0.98273,0,-0.008008,0.008545,42.750396,14.001961,7.072064,4.63583E+18,0.519737,0.542079,0.506131,-0.424093,0
-9.469746,0.874134,2.107671,0.013466,-0.016722,0.005201,45.129758,-4.372861,8.93523,4.63583E+18,0.777024,-0.016806,0.622784,0.089951,-9.566496,1.13118,-1.391644,0.007118,-0.004992,-0.001428,37.940609,-23.519733,12.484124,4.63583E+18,0.510879,-0.398053,0.641595,0.410989,-9.658081,0.862677,-0.95825,-0.001782,-0.008368,0.008545,42.762535,13.953001,6.974414,4.63583E+18,0.519872,0.541926,0.506278,-0.423948,0
-9.442138,0.839115,2.165505,0.0118,-0.020664,0.004133,45.202416,-4.28684,8.848769,4.63583E+18,0.77707,-0.016749,0.622734,0.089909,-9.591026,1.147553,-1.391644,0.004268,-0.007123,-0.00285,37.883507,-23.54808,12.488173,4.63583E+18,0.510909,-0.398051,0.641573,0.410989,-9.645873,0.815811,-0.982726,-0.006591,-0.010327,0.007654,42.833813,13.879757,6.95822,4.63583E+18,0.520019,0.541758,0.506429,-0.423801,0
-9.396507,0.817896,2.189349,0.019506,-0.014625,0.003484,45.159871,-4.138309,8.826982,4.63583E+18,0.777101,-0.016671,0.622707,0.089844,-9.59907,1.151546,-1.391644,0.003204,-0.006763,-0.004632,37.961197,-23.376787,12.414762,4.63583E+18,0.510939,-0.398056,0.641547,0.410988,-9.664214,0.815871,-0.978617,-0.008368,-0.00979,0.01015,42.970178,13.86761,6.948037,4.63583E+18,0.520172,0.541596,0.506577,-0.423646,0
-9.391256,0.817896,2.12352,0.021083,-0.007996,0.005341,44.938077,-4.149488,8.728754,4.63583E+18,0.777115,-0.016586,0.622701,0.089781,-9.603176,1.139339,-1.359017,0.003204,-0.004268,-0.004627,38.013855,-23.291725,12.378307,4.63583E+18,0.510962,-0.398066,0.641526,0.410982,-9.668263,0.828078,-0.946047,-0.008545,-0.012286,0.009791,42.872294,13.9287,7.037647,4.63583E+18,0.520335,0.54142,0.506728,-0.423489,0
-9.500556,0.817896,2.045028,0.019087,-0.029131,0.00576,44.895189,-4.234947,8.593565,4.63583E+18,0.777183,-0.016498,0.622627,0.089726,-9.607226,1.143445,-1.359128,0.005346,-0.006773,-0.004273,37.850718,-23.348824,12.443562,4.63583E+18,0.510995,-0.398065,0.641504,0.410976,-9.708989,0.789378,-0.93997,-0.004091,-0.012818,0.010504,42.644357,14.001943,7.13733,4.63583E+18,0.520363,0.541407,0.506704,-0.423499,0
-9.516988,0.824277,2.100229,0.018159,-0.053037,0.008266,45.055446,-4.309213,8.778234,4.63583E+18,0.777312,-0.016397,0.622474,0.089683,-9.607226,1.155652,-1.399853,0.006409,-0.006404,-0.0057,37.769707,-23.320086,12.475966,4.63583E+18,0.511031,-0.398067,0.641482,0.410963,-9.696731,0.801637,-0.929789,-0.004095,-0.011036,0.012463,42.54275,13.881741,7.000818,4.63583E+18,0.520391,0.541402,0.50668,-0.4235,0
-9.483557,0.869916,2.189911,0.016623,-0.057959,0.006548,45.170516,-4.298047,8.909743,4.63583E+18,0.777454,-0.016305,0.622305,0.089639,-9.58276,1.151548,-1.432369,0.00855,-0.006054,-0.004982,37.875726,-23.185706,12.475966,4.63583E+18,0.511069,-0.398064,0.641466,0.410945,-9.662138,0.805689,-0.958303,-0.007836,-0.014245,0.013709,42.591673,13.794321,6.970428,4.63583E+18,0.520436,0.541386,0.506653,-0.423498,0
-9.469757,0.889547,2.204215,0.005014,-0.059677,0.007477,44.926938,-4.234919,8.631141,4.63583E+18,0.7776,-0.016247,0.622127,0.089629,-9.578758,1.163805,-1.448628,0.010327,-0.008549,-0.00784,37.985483,-23.239036,12.606436,4.63583E+18,0.511121,-0.398059,0.641442,0.410921,-9.656056,0.795509,-0.964385,-0.008545,-0.014954,0.015667,42.746357,13.782158,7.123126,4.63583E+18,0.520487,0.541371,0.506621,-0.423492,0
-9.454906,0.875745,2.074715,-0.00483,-0.061398,0.008314,44.811277,-4.309213,8.510191,4.63583E+18,0.777749,-0.016218,0.621939,0.089646,-9.615427,1.204526,-1.436373,0.006401,-0.01104,-0.010327,37.964931,-23.40588,12.606054,4.63583E+18,0.511177,-0.398066,0.641403,0.410906,-9.666236,0.813841,-0.944025,-0.01389,-0.014954,0.016022,42.90708,13.649819,7.153538,4.63583E+18,0.520775,0.541077,0.506884,-0.423199,0
-9.502141,0.856112,1.997775,-0.008545,-0.083645,0.013886,44.969428,-4.309213,8.788821,4.63583E+18,0.777953,-0.016178,0.621678,0.089693,-9.631641,1.171817,-1.428266,0.0057,-0.016744,-0.009255,37.883531,-23.462629,12.451317,4.63583E+18,0.511246,-0.398061,0.641352,0.410905,-9.688621,0.889147,-0.909434,-0.027423,-0.017626,0.014241,42.933437,13.623462,7.072109,4.63583E+18,0.521006,0.540852,0.507055,-0.422997,0
-9.526021,0.86991,2.068358,-0.008406,-0.114013,0.013886,45.023558,-4.320359,8.936881,4.63583E+18,0.778235,-0.016127,0.621318,0.089741,-9.615333,1.106726,-1.420112,0.01283,-0.024221,-0.009259,37.855156,-23.348474,12.447592,4.63583E+18,0.511346,-0.398028,0.641297,0.410897,-9.723214,0.994954,-0.872812,-0.04683,-0.022612,0.012995,42.79094,13.816853,7.055879,4.63583E+18,0.521289,0.540575,0.50725,-0.42277,0
-9.468172,0.886368,2.19308,-0.006363,-0.109232,0.014025,44.969411,-4.394665,8.824392,4.63583E+18,0.778506,-0.01607,0.620975,0.089785,-9.607226,1.102765,-1.424212,0.019589,-0.033837,-0.008187,37.912227,-23.348796,12.606413,4.63583E+18,0.511482,-0.397962,0.641235,0.410889,-9.708943,0.992858,-0.83619,-0.065343,-0.028843,0.009255,42.701463,13.926652,7.055879,4.63583E+18,0.521486,0.540399,0.507302,-0.422689,0
-9.433141,0.8577,2.239798,0.001207,-0.089028,0.014815,45.044248,-4.394665,8.55687,4.63583E+18,0.778724,-0.015994,0.620699,0.08981,-9.607226,1.102721,-1.460876,0.024216,-0.045232,-0.007477,37.989525,-23.377178,12.540846,4.63583E+18,0.511654,-0.397864,0.641158,0.410889,-9.715064,0.887015,-0.860639,-0.078158,-0.029018,0.005873,42.55697,13.737286,6.903202,4.63583E+18,0.521707,0.540187,0.507385,-0.422589,0
-9.405544,0.888479,2.200514,0.001719,-0.086193,0.013747,45.118561,-4.383529,8.484666,4.63583E+18,0.778935,-0.015921,0.620434,0.089829,-9.623531,1.098666,-1.444486,0.034196,-0.067682,-0.00605,37.907872,-23.377178,12.475966,4.63583E+18,0.511901,-0.397703,0.641053,0.410903,-9.65603,0.815839,-0.897257,-0.075659,-0.025278,0.005341,42.469529,13.564403,6.882945,4.63583E+18,0.521913,0.539985,0.507472,-0.422487,0
-9.361487,0.955359,2.231293,-0.002043,-0.098548,0.012539,45.128107,-4.298077,8.568006,4.63583E+18,0.779178,-0.015858,0.620126,0.089856,-9.590884,1.131272,-1.460872,0.03988,-0.089745,-0.003201,37.855156,-23.320117,12.60639,4.63583E+18,0.512211,-0.397484,0.640915,0.410944,-9.643848,0.785335,-0.86264,-0.072099,-0.022786,0.006231,42.518411,13.609249,6.956215,4.63583E+18,0.522107,0.539798,0.507556,-0.422384,0
-9.346098,0.982956,2.306128,-0.010355,-0.098457,0.010542,45.18067,-4.234898,8.533525,4.63583E+18,0.779421,-0.015827,0.619815,0.089898,-9.529849,1.147496,-1.517851,0.034884,-0.094707,-0.004276,37.96112,-23.291725,12.540869,4.63583E+18,0.512527,-0.39727,0.640755,0.411004,-9.674376,0.821977,-0.864694,-0.065333,-0.024212,0.00908,42.723934,13.755747,7.041658,4.63583E+18,0.522295,0.539629,0.507619,-0.422294,0
-9.314249,1.033376,2.385216,-0.025354,-0.084756,0.009335,45.095219,-4.310804,8.348827,4.63583E+18,0.779628,-0.015854,0.619544,0.089973,-9.53402,1.090439,-1.505529,0.024199,-0.086865,-0.006767,38.07091,-23.291725,12.353702,4.63583E+18,0.51281,-0.397099,0.64059,0.411075,-9.670295,0.809752,-0.76497,-0.051624,-0.020116,0.006942,42.833762,13.853387,7.055879,4.63583E+18,0.522693,0.539187,0.507996,-0.421912,0
-9.314249,1.089638,2.418655,-0.046948,-0.079972,0.008451,45.022494,-4.342084,8.205981,4.63583E+18,0.779821,-0.015954,0.619279,0.090101,-9.562489,1.119094,-1.407803,0.007459,-0.078324,-0.00819,38.042256,-23.291725,12.227655,4.63583E+18,0.513044,-0.396982,0.640412,0.411173,-9.708966,0.754811,-0.693774,-0.042902,-0.025459,0.010861,42.715703,13.796381,6.974475,4.63583E+18,0.522835,0.539068,0.508013,-0.421868,0
-9.307891,1.120411,2.429273,-0.062832,-0.077374,0.015371,45.053775,-4.50078,8.399202,4.63583E+18,0.780004,-0.01609,0.619017,0.090292,-9.595053,1.114898,-1.244987,-0.001784,-0.079404,-0.008545,38.013855,-23.234679,12.317439,4.63583E+18,0.513266,-0.396884,0.640216,0.411297,-9.717093,0.958338,-0.775194,-0.051452,-0.024033,0.01353,42.628235,13.71093,7.039624,4.63583E+18,0.522998,0.538938,0.508042,-0.421796,0
-9.265419,1.192065,2.434041,-0.077368,-0.063166,0.019271,45.180682,-4.640402,8.447592,4.63583E+18,0.780148,-0.016267,0.618796,0.090532,-9.590927,1.098666,-1.208567,-0.01604,-0.073335,-0.009258,37.956808,-23.206274,12.443503,4.63583E+18,0.513449,-0.396829,0.640006,0.411447,-9.676401,0.970488,-0.844347,-0.06854,-0.021719,0.010325,42.809332,13.635668,6.974495,4.63583E+18,0.523189,0.538769,0.508112,-0.42169,0
-9.263831,1.245155,2.462719,-0.089533,-0.041336,0.027954,45.095238,-4.617672,8.201787,4.63583E+18,0.780231,-0.016471,0.618642,0.090831,-9.558366,1.13126,-1.237037,-0.028848,-0.060874,-0.015317,37.87951,-23.263313,12.410778,4.63583E+18,0.513589,-0.396839,0.639792,0.411597,-9.647918,0.832141,-0.935899,-0.074236,-0.019583,0.013174,42.909021,13.69467,6.95822,4.63583E+18,0.5236,0.538348,0.508455,-0.421305,0
-9.2548,1.243567,2.439893,-0.104487,-0.032044,0.037845,45.022492,-4.362905,8.2134,4.63583E+18,0.780285,-0.016701,0.618514,0.0912,-9.586925,1.237114,-1.318479,-0.027054,-0.060889,-0.018871,37.912186,-23.348755,12.321278,4.63583E+18,0.513737,-0.396854,0.639574,0.411736,-9.613334,0.775174,-0.891149,-0.07566,-0.016557,0.015666,42.799174,13.708914,7.039591,4.63583E+18,0.523805,0.538184,0.508538,-0.42116,0
-9.268594,1.22501,2.430861,-0.119024,-0.030933,0.049595,45.053751,-4.171156,8.350958,4.63583E+18,0.780331,-0.016948,0.618383,0.091644,-9.631666,1.298071,-1.330582,-0.02528,-0.060169,-0.021365,38.046514,-23.377178,12.292855,4.63583E+18,0.513891,-0.396873,0.639357,0.411862,-9.627571,0.819928,-0.868761,-0.083849,-0.023143,0.019583,42.774742,13.708914,7.137258,4.63583E+18,0.52405,0.537998,0.508611,-0.421004,0
-9.291419,1.163984,2.439895,-0.131049,-0.021973,0.061203,45.201319,-4.299702,8.251255,4.63583E+18,0.780348,-0.017208,0.618279,0.092156,-9.635704,1.224746,-1.3184,-0.032049,-0.049484,-0.026707,37.993425,-23.43419,12.227698,4.63583E+18,0.514015,-0.396939,0.639142,0.411978,-9.682498,0.860618,-0.937925,-0.085452,-0.026347,0.022075,42.906969,13.708914,7.224738,4.63583E+18,0.524511,0.537563,0.508934,-0.420595,0
-9.305214,1.11246,2.437206,-0.144242,-0.010223,0.072302,45.253947,-4.213758,8.092407,4.63583E+18,0.780329,-0.017487,0.618207,0.092737,-9.639785,1.127113,-1.277681,-0.048788,-0.037737,-0.030265,37.940609,-23.405624,12.260345,4.63583E+18,0.514085,-0.397071,0.638917,0.412112,-9.651998,0.836216,-0.931838,-0.081002,-0.026704,0.024211,42.933437,13.637724,7.167801,4.63583E+18,0.524909,0.537212,0.509169,-0.420262,0
-9.321697,1.126254,2.496656,-0.153204,0.002498,0.085772,45.138355,-4.107897,8.195307,4.63583E+18,0.780272,-0.017765,0.618175,0.093384,-9.619415,1.106811,-1.241073,-0.057682,-0.03133,-0.033827,38.103501,-23.377178,12.227698,4.63583E+18,0.51413,-0.397242,0.638685,0.41225,-9.654019,0.758916,-0.927763,-0.074772,-0.028483,0.029906,42.801233,13.69465,7.072181,4.63583E+18,0.525163,0.537058,0.509192,-0.420115,0
-9.283494,1.160176,2.5328,-0.164952,0.023942,0.096175,44.852695,-4.448558,8.375391,4.63583E+18,0.780153,-0.018062,0.618208,0.094094,-9.61537,1.10273,-1.25738,-0.057323,-0.032759,-0.035249,38.241767,-23.369033,12.007881,4.63583E+18,0.514181,-0.397414,0.638449,0.412387,-9.666226,0.775161,-0.887084,-0.075482,-0.033289,0.033646,42.571349,13.698744,6.984692,4.63583E+18,0.525434,0.536902,0.509197,-0.419968,0
-9.250513,1.262589,2.472876,-0.177395,0.057624,0.105274,44.83017,-4.789113,8.288355,4.63583E+18,0.779943,-0.01839,0.618346,0.094863,-9.570578,1.074238,-1.26957,-0.055187,-0.031331,-0.032399,38.107357,-23.421969,11.906283,4.63583E+18,0.514227,-0.397576,0.638223,0.412523,-9.708938,0.821948,-0.939944,-0.080287,-0.03774,0.03685,42.469582,13.564517,6.970428,4.63583E+18,0.525731,0.536734,0.509194,-0.419815,0
-9.318999,1.395271,2.335444,-0.196562,0.068795,0.11629,45.117438,-4.639937,8.201791,4.63583E+18,0.779698,-0.018757,0.618513,0.095716,-9.538046,1.037615,-1.277713,-0.046638,-0.024208,-0.030264,37.912056,-23.401564,12.097654,4.63583E+18,0.514265,-0.397726,0.638031,0.412628,-9.778102,0.758926,-1.064028,-0.088297,-0.043792,0.037385,42.589534,13.538011,7.12295,4.63583E+18,0.52606,0.53654,0.50919,-0.419657,0
-9.361947,1.514169,2.198915,-0.229117,0.049511,0.116468,45.150666,-4.60671,8.21965,4.63583E+18,0.779499,-0.019221,0.618603,0.096655,-9.550267,1.090563,-1.257349,-0.039163,-0.015663,-0.032046,37.961012,-23.320179,12.317336,4.63583E+18,0.514296,-0.397879,0.637868,0.412695,-9.780169,0.744652,-1.1373,-0.099511,-0.05109,0.040054,42.809239,13.680365,7.153538,4.63583E+18,0.526697,0.535994,0.50952,-0.419154,0
-9.43949,1.607088,2.214291,-0.258515,0.043477,0.123905,44.864914,-4.916217,8.425153,4.63583E+18,0.779309,-0.019758,0.618662,0.097694,-9.574679,1.163787,-1.180026,-0.03596,-0.017092,-0.033825,38.127831,-23.291725,12.256189,4.63583E+18,0.514338,-0.398028,0.637703,0.412752,-9.767963,0.805653,-1.147496,-0.109481,-0.056787,0.045038,42.786984,13.637745,7.072203,4.63583E+18,0.527114,0.535746,0.509507,-0.418963,0
-9.463904,1.66179,2.249329,-0.291211,0.034735,0.123628,44.821752,-5.128234,8.506518,4.63583E+18,0.779138,-0.020399,0.618679,0.098817,-9.615378,1.224827,-1.188204,-0.040948,-0.022789,-0.035606,38.127765,-23.234734,12.130063,4.63583E+18,0.514391,-0.398183,0.637515,0.412828,-9.715089,0.777229,-1.116996,-0.119094,-0.059459,0.049489,42.71374,13.430294,7.066046,4.63583E+18,0.527565,0.535481,0.509495,-0.418747,0
-9.486733,1.670833,2.2769,-0.320421,0.039007,0.121216,44.9488,-5.053865,8.410901,4.63583E+18,0.778953,-0.021143,0.618696,0.100007,-9.590935,1.253296,-1.265521,-0.050205,-0.023143,-0.041304,37.993469,-23.263262,12.162667,4.63583E+18,0.514439,-0.398372,0.637301,0.412917,-9.704885,0.799567,-1.100707,-0.129597,-0.066043,0.050203,42.762498,13.452522,6.986753,4.63583E+18,0.528055,0.535184,0.509485,-0.418522,0
-9.49736,1.653878,2.317824,-0.344991,0.044249,0.117358,44.863341,-5.053865,8.398244,4.63583E+18,0.778752,-0.021979,0.618718,0.101247,-9.578745,1.192237,-1.269563,-0.055544,-0.021006,-0.04878,37.940609,-23.348711,12.260322,4.63583E+18,0.514485,-0.398595,0.637069,0.413001,-9.715051,0.917509,-1.047839,-0.139388,-0.076188,0.051092,42.835733,13.596917,6.878938,4.63583E+18,0.52859,0.534848,0.509468,-0.418297,0
-9.498942,1.612959,2.29771,-0.37025,0.054614,0.116013,44.800034,-5.044375,8.287937,4.63583E+18,0.778521,-0.022904,0.618761,0.102547,-9.574671,1.159703,-1.306207,-0.054475,-0.020295,-0.054833,38.046438,-23.263208,12.162604,4.63583E+18,0.514541,-0.398834,0.636831,0.413067,-9.717093,0.868813,-1.027464,-0.146332,-0.077975,0.050382,42.715837,13.491313,6.789404,4.63583E+18,0.529142,0.534493,0.50946,-0.418062,0
-9.509567,1.62674,2.232377,-0.399735,0.054439,0.1135,44.894929,-4.979042,8.14317,4.63583E+18,0.778286,-0.023932,0.618789,0.103914,-9.554325,1.053887,-1.330607,-0.044861,-0.023144,-0.058036,38.099304,-23.092317,12.032419,4.63583E+18,0.514626,-0.399056,0.636598,0.413106,-9.737423,0.803692,-0.994926,-0.151852,-0.082422,0.056429,42.628296,13.403774,6.937753,4.63583E+18,0.529727,0.53413,0.509439,-0.417812,0
-9.509567,1.649579,2.218589,-0.426994,0.044373,0.116051,45.05522,-4.979468,8.325876,4.63583E+18,0.778071,-0.025036,0.618771,0.105361,-9.53805,1.009146,-1.289911,-0.038453,-0.028128,-0.064446,38.042331,-23.14932,12.064991,4.63583E+18,0.514747,-0.399272,0.636355,0.413123,-9.700852,0.884958,-0.9888,-0.15986,-0.086873,0.060348,42.819324,13.330537,7.122888,4.63583E+18,0.530345,0.53375,0.509412,-0.417546,0
-9.50483,1.65547,2.195754,-0.457417,0.024217,0.121253,45.181908,-5.053865,8.398269,4.63583E+18,0.7779,-0.026217,0.618673,0.106904,-9.599096,1.192278,-1.350962,-0.035961,-0.034181,-0.073703,37.965018,-23.263248,12.097537,4.63583E+18,0.514903,-0.399497,0.636087,0.413122,-9.672351,0.872856,-0.978636,-0.171073,-0.089367,0.063552,42.992323,13.318277,7.153538,4.63583E+18,0.531374,0.532888,0.509872,-0.416776,0
-9.465057,1.615697,2.19459,-0.483841,0.006649,0.125802,45.012603,-5.064908,8.302199,4.63583E+18,0.777765,-0.027464,0.618504,0.108532,-9.59095,1.322469,-1.432335,-0.043794,-0.029908,-0.081891,38.046406,-23.291725,12.03243,4.63583E+18,0.515049,-0.399768,0.635802,0.413118,-9.688594,0.846396,-0.976592,-0.178377,-0.09595,0.068536,42.886743,13.318277,7.072218,4.63583E+18,0.532066,0.532468,0.509839,-0.416471,0
-9.415061,1.557818,2.266252,-0.507855,0.000792,0.132348,44.853922,-5.159811,8.253013,4.63583E+18,0.777637,-0.02877,0.618303,0.110243,-9.546191,1.237023,-1.436405,-0.049491,-0.023855,-0.09008,38.26206,-23.177796,11.934775,4.63583E+18,0.515183,-0.400083,0.635506,0.413101,-9.702842,0.811819,-0.956264,-0.180338,-0.09987,0.074766,42.850028,13.379261,6.903418,4.63583E+18,0.532781,0.532049,0.509785,-0.416157,0
-9.437901,1.521193,2.324139,-0.52898,-0.002725,0.138997,44.715717,-5.340607,8.449927,4.63583E+18,0.777509,-0.030124,0.618079,0.11203,-9.558393,1.135297,-1.371309,-0.052339,-0.020295,-0.100049,38.343452,-23.120821,11.967312,4.63583E+18,0.51532,-0.400436,0.635196,0.413065,-9.735373,0.724388,-0.942015,-0.17696,-0.103074,0.082952,42.9801,13.330546,6.872768,4.63583E+18,0.533716,0.531396,0.509965,-0.415573,0
-9.446954,1.489303,2.359181,-0.555267,-0.014851,0.140617,44.737786,-5.638647,8.632211,4.63583E+18,0.777403,-0.031554,0.617801,0.113891,-9.570604,1.175964,-1.28586,-0.059103,-0.017091,-0.112153,38.2865,-23.120821,12.130059,4.63583E+18,0.515459,-0.400841,0.63486,0.413014,-9.731346,0.687705,-0.960295,-0.169131,-0.102721,0.092387,43.077818,13.125192,6.872768,4.63583E+18,0.534583,0.53086,0.510027,-0.415067,0
-9.437899,1.489303,2.383596,-0.579456,-0.021777,0.145544,44.907115,-5.690997,8.616045,4.63583E+18,0.777305,-0.033047,0.617485,0.115831,-9.59501,1.314292,-1.208551,-0.069783,-0.013887,-0.123547,38.258003,-23.177769,12.06503,4.63583E+18,0.51559,-0.401305,0.634495,0.412962,-9.739461,0.703937,-0.913579,-0.163254,-0.101653,0.100221,43.031168,13.015208,6.872768,4.63583E+18,0.535307,0.530529,0.509883,-0.414735,0
-9.446954,1.497184,2.403282,-0.609261,-0.025671,0.14837,45.034286,-5.564226,8.411675,4.63583E+18,0.777207,-0.034626,0.617139,0.117856,-9.574683,1.334686,-1.208526,-0.08794,-0.007123,-0.137076,38.314952,-23.149322,11.804617,4.63583E+18,0.515696,-0.401855,0.634089,0.412917,-9.731348,0.829945,-0.903348,-0.159692,-0.10503,0.108586,43.01889,12.939926,6.791491,4.63583E+18,0.536044,0.530217,0.509706,-0.414399,0
-9.437898,1.551915,2.394226,-0.646125,-0.035593,0.154744,44.950417,-5.755585,8.266378,4.63583E+18,0.77712,-0.036303,0.616739,0.119997,-9.566532,1.139422,-1.196334,-0.091506,-0.001425,-0.146335,38.400401,-23.120821,11.837065,4.63583E+18,0.515797,-0.402447,0.633674,0.412852,-9.759779,0.844359,-0.883029,-0.160932,-0.108413,0.116242,43.150962,12.92764,6.775109,4.63583E+18,0.537014,0.529654,0.509775,-0.413778,0
-9.44853,1.562548,2.415882,-0.68575,-0.053166,0.154502,44.896072,-6.063137,8.363646,4.63583E+18,0.777066,-0.0381,0.616258,0.122241,-9.627583,0.9603,-1.159699,-0.071207,-0.000712,-0.148473,38.477745,-22.949887,11.967336,4.63583E+18,0.515933,-0.403002,0.633291,0.412728,-9.755765,0.79152,-0.848458,-0.156846,-0.106285,0.123718,43.177586,12.92764,6.775109,4.63583E+18,0.537912,0.529206,0.509735,-0.413234,0
-9.451679,1.565697,2.493459,-0.719275,-0.058886,0.160394,44.950418,-6.191913,8.361682,4.63583E+18,0.777012,-0.039987,0.615736,0.124589,-9.704909,0.964408,-1.123069,-0.03773,-0.002493,-0.149897,38.551003,-22.758618,11.93474,4.63583E+18,0.516133,-0.403486,0.63296,0.412514,-9.753716,0.781274,-0.842311,-0.152394,-0.105747,0.133861,43.045533,12.988587,6.856372,4.63583E+18,0.538676,0.528962,0.509487,-0.412856,0
-9.468225,1.575949,2.511578,-0.755589,-0.060505,0.170419,44.886623,-6.13913,8.264032,4.63583E+18,0.776943,-0.041965,0.615186,0.127063,-9.696735,1.110918,-1.110874,-0.024211,-0.003917,-0.155595,38.469559,-22.70577,11.959206,4.63583E+18,0.516368,-0.403952,0.632639,0.412256,-9.753716,0.781274,-0.852469,-0.144566,-0.106635,0.143654,43.01889,12.939937,6.954032,4.63583E+18,0.539441,0.528755,0.509201,-0.412476,0
-9.436323,1.492072,2.498176,-0.792043,-0.067084,0.182411,44.896062,-6.234019,8.167948,4.63583E+18,0.776869,-0.044026,0.614591,0.129668,-9.623493,1.220749,-1.21669,-0.031334,-0.000711,-0.166633,38.35972,-22.819727,11.995809,4.63583E+18,0.516602,-0.404469,0.632293,0.411986,-9.702932,0.832057,-0.813891,-0.136911,-0.105926,0.153267,43.089985,12.795603,6.970428,4.63583E+18,0.540204,0.528586,0.508882,-0.412087,0
-9.437895,1.420408,2.560777,-0.828873,-0.081074,0.189919,44.970868,-6.383266,8.068361,4.63583E+18,0.776812,-0.046179,0.613924,0.132393,-9.586879,1.196314,-1.293991,-0.043796,-0.002493,-0.173753,38.388228,-22.762711,11.869634,4.63583E+18,0.516832,-0.405028,0.63191,0.411737,-9.692678,0.842311,-0.775219,-0.130323,-0.104858,0.161102,43.175436,12.708005,6.970428,4.63583E+18,0.541239,0.528108,0.508891,-0.411329,0
-9.44696,1.367229,2.623021,-0.861845,-0.088962,0.204597,45.054741,-6.468709,7.874634,4.63583E+18,0.776749,-0.048397,0.613209,0.13525,-9.60723,1.155631,-1.257354,-0.065872,-0.007834,-0.181586,38.465538,-22.648792,11.804559,4.63583E+18,0.517051,-0.405645,0.631464,0.411538,-9.662209,0.811841,-0.769066,-0.115916,-0.101124,0.173023,43.189793,12.63476,6.970428,4.63583E+18,0.542143,0.527832,0.508714,-0.410713,0
-9.420617,1.359376,2.615526,-0.894577,-0.100743,0.216178,45.098143,-6.585575,7.71822,4.63583E+18,0.776693,-0.050683,0.612431,0.138228,-9.578737,1.155635,-1.249226,-0.098272,-0.004628,-0.194048,38.489944,-22.677293,11.934787,4.63583E+18,0.517228,-0.406371,0.630948,0.411391,-9.686522,0.785378,-0.748756,-0.099006,-0.09774,0.184951,43.189793,12.429505,6.818099,4.63583E+18,0.542858,0.527828,0.508277,-0.410313,0
-9.315821,1.309336,2.652516,-0.933616,-0.118184,0.220896,44.950436,-6.904202,7.752067,4.63583E+18,0.776659,-0.053073,0.611566,0.141323,-9.468876,1.062044,-1.257362,-0.11714,-0.002848,-0.205084,38.489944,-22.648802,11.804559,4.63583E+18,0.517387,-0.407168,0.630384,0.411267,-9.773918,0.771119,-0.764962,-0.086359,-0.097201,0.1967,43.250724,12.390514,6.624836,4.63583E+18,0.543563,0.527879,0.507794,-0.409913,0
-9.310754,1.343169,2.754163,-0.986423,-0.129157,0.232963,44.886623,-7.127908,7.826161,4.63583E+18,0.77662,-0.055596,0.610626,0.144591,-9.432253,0.826046,-1.208536,-0.099339,-0.006765,-0.210425,38.595735,-22.506389,11.576695,4.63583E+18,0.517595,-0.407935,0.629832,0.411091,-9.841113,0.769066,-0.789376,-0.071944,-0.094536,0.209338,43.323967,12.451444,6.429518,4.63583E+18,0.544461,0.527734,0.507533,-0.40923,0
-9.215366,1.437681,2.745788,-1.055542,-0.171423,0.229468,44.896038,-7.224336,7.728164,4.63583E+18,0.77666,-0.058324,0.609495,0.148031,-9.542114,0.659204,-1.17598,-0.068719,-0.019226,-0.215054,38.705602,-22.39245,11.641786,4.63583E+18,0.517896,-0.408625,0.629298,0.410845,-9.861528,0.799528,-0.84425,-0.058768,-0.089555,0.218601,43.27536,12.463758,6.47791,4.63583E+18,0.545259,0.52774,0.507144,-0.408642,0
-9.278844,1.507791,2.903792,-1.116736,-0.164539,0.253244,44.959866,-7.393682,7.545039,4.63583E+18,0.776636,-0.061193,0.608342,0.151699,-9.627566,0.825998,-1.245142,-0.067292,-0.02172,-0.221818,38.677133,-22.363962,11.763857,4.63583E+18,0.518216,-0.409326,0.628748,0.410585,-9.883889,0.825996,-0.834211,-0.05217,-0.083326,0.232477,43.263039,12.402837,6.656795,4.63583E+18,0.546067,0.527782,0.506745,-0.408002,0
-9.188707,1.545638,2.886885,-1.189277,-0.143269,0.276542,44.959866,-7.531968,7.360399,4.63583E+18,0.776506,-0.06425,0.607202,0.155616,-9.595037,1.163688,-1.403807,-0.094345,-0.013176,-0.235701,38.705585,-22.42091,11.670322,4.63583E+18,0.518491,-0.410136,0.628146,0.410351,-9.887997,0.809794,-0.819949,-0.045051,-0.082247,0.247432,43.323965,12.390514,6.527181,4.63583E+18,0.546872,0.527885,0.506292,-0.407353,0
-9.104253,1.510583,2.861567,-1.272093,-0.14228,0.285665,44.948893,-7.553913,7.179188,4.63583E+18,0.776323,-0.067551,0.605998,0.159768,-9.554334,1.289912,-1.505563,-0.129948,-0.005343,-0.257061,38.896786,-22.39247,11.544162,4.63583E+18,0.51872,-0.411091,0.627463,0.41015,-9.918454,0.734621,-0.899117,-0.037576,-0.077806,0.26416,43.40735,12.258531,6.413118,4.63583E+18,0.547672,0.528057,0.505789,-0.40668,0
-9.246943,1.481467,2.950395,-1.329772,-0.131303,0.304863,44.874416,-7.734217,7.106276,4.63583E+18,0.77606,-0.070995,0.604777,0.16412,-9.578733,1.212627,-1.379481,-0.152742,-0.003204,-0.272731,38.970102,-22.250062,11.446495,4.63583E+18,0.518931,-0.41214,0.626718,0.40997,-9.944923,0.740541,-1.128749,-0.032764,-0.066247,0.27592,43.36082,12.170906,6.406832,4.63583E+18,0.548456,0.528283,0.50528,-0.405963,0
-9.218478,1.422001,2.752608,-1.389092,-0.144172,0.320311,44.854055,-7.968947,7.093423,4.63583E+18,0.775775,-0.074581,0.603458,0.168669,-9.619425,1.261399,-1.232974,-0.170187,-0.009611,-0.284481,38.860271,-22.144247,11.413922,4.63583E+18,0.519148,-0.413245,0.625908,0.409821,-10.009953,0.825878,-1.182064,-0.036487,-0.060535,0.285714,43.226649,12.02658,6.652566,4.63583E+18,0.549121,0.528694,0.504596,-0.40538,0
-9.318951,1.374735,2.703774,-1.459733,-0.1407,0.358573,44.704747,-8.128894,6.910295,4.63583E+18,0.775403,-0.078298,0.60209,0.173512,-9.590967,1.200439,-1.269539,-0.201869,-0.018512,-0.295518,38.807335,-22.06287,11.535945,4.63583E+18,0.519351,-0.414432,0.625004,0.409744,-10.062883,0.953973,-1.143514,-0.058703,-0.05804,0.291773,43.262908,11.92882,6.701864,4.63583E+18,0.549838,0.52907,0.503941,-0.40473,0
-9.338344,1.328722,2.680004,-1.531838,-0.161945,0.380865,44.641229,-8.256613,6.741299,4.63583E+18,0.775013,-0.082174,0.600584,0.178608,-9.505526,0.952259,-1.40381,-0.220392,-0.03204,-0.301929,38.913087,-21.977419,11.662112,4.63583E+18,0.519567,-0.415651,0.624027,0.409725,-10.081258,1.047647,-1.15559,-0.079008,-0.050575,0.296225,43.478258,11.731715,6.539455,4.63583E+18,0.550827,0.529126,0.503636,-0.403689,0
-9.251647,1.232948,2.803009,-1.609039,-0.111473,0.399624,44.737624,-8.660675,6.679014,4.63583E+18,0.774421,-0.086286,0.599163,0.183933,-9.456679,0.63493,-1.460814,-0.211857,-0.047348,-0.304066,39.014829,-21.778121,11.564566,4.63583E+18,0.51984,-0.41683,0.623026,0.409704,-10.012261,1.062044,-1.26121,-0.100899,-0.038477,0.294281,43.712256,11.562735,6.344136,4.63583E+18,0.551729,0.52928,0.503261,-0.402723,0
-9.289545,1.225119,2.756988,-1.690498,-0.035551,0.401515,44.875662,-8.979343,6.66617,4.63583E+18,0.773569,-0.09071,0.597895,0.18943,-9.505461,0.419191,-1.326629,-0.167725,-0.068707,-0.299441,39.096207,-21.635625,11.369247,4.63583E+18,0.520236,-0.417864,0.62206,0.409615,-9.957266,1.193986,-1.474616,-0.112671,-0.007899,0.294629,43.690437,11.404054,6.311227,4.63583E+18,0.552589,0.529462,0.502971,-0.401666,0
-9.630383,1.150012,2.620545,-1.735437,-0.056496,0.405295,44.779272,-9.214073,6.45962,4.63583E+18,0.772709,-0.095248,0.596494,0.195049,-9.615316,0.406889,-1.119095,-0.137797,-0.089005,-0.29481,39.230462,-21.664038,11.312189,4.63583E+18,0.520728,-0.418786,0.621109,0.409493,-10.253509,1.190293,-1.351332,-0.11074,0.012073,0.299249,43.424362,11.306256,6.40257,4.63583E+18,0.553282,0.529849,0.502546,-0.400732,0
-9.715818,0.976018,2.32508,-1.765724,-0.138251,0.384893,44.630268,-9.384944,6.104402,4.63583E+18,0.772013,-0.099863,0.594763,0.2007,-9.704851,0.614305,-1.220617,-0.156644,-0.092219,-0.295164,39.283424,-21.692556,11.381322,4.63583E+18,0.521195,-0.419743,0.620116,0.409423,-10.244212,0.899942,-0.973328,0.064927,0.035379,0.303702,43.362754,11.230954,6.339901,4.63583E+18,0.553545,0.530689,0.501871,-0.400104,0
-9.801278,0.779119,2.192644,-1.78931,-0.161967,0.371963,44.641208,-9.56524,5.859554,4.63583E+18,0.771333,-0.10456,0.592897,0.206365,-9.704905,0.708029,-1.688392,-0.200787,-0.100754,-0.301569,39.2265,-21.586841,11.40579,4.63583E+18,0.521616,-0.420797,0.619017,0.409468,-9.986283,0.781431,-0.913495,0.305496,0.08924,0.303534,43.563629,11.218604,6.323435,4.63583E+18,0.553162,0.532172,0.500917,-0.399859,0
-9.869544,0.576303,2.16071,-1.797693,-0.212785,0.365692,44.695419,-9.820289,5.837694,4.63583E+18,0.770734,-0.109249,0.590823,0.212041,-9.684546,0.748689,-1.888072,-0.220392,-0.11642,-0.309403,39.197971,-21.420012,11.271604,4.63583E+18,0.522055,-0.421887,0.617835,0.409573,-10.17019,1.073453,-0.783654,0.359577,0.118869,0.285598,43.675868,11.218604,6.475628,4.63583E+18,0.552845,0.533439,0.500353,-0.399315,0
-9.814477,0.406974,2.190357,-1.794279,-0.286954,0.360078,44.525815,-10.129575,5.666805,4.63583E+18,0.77028,-0.11387,0.588476,0.217712,-9.647947,0.964209,-1.672612,-0.213637,-0.128172,-0.316879,39.303673,-21.362955,11.141349,4.63583E+18,0.522548,-0.422959,0.616624,0.409663,-10.105988,1.825232,-0.80759,0.30262,0.161012,0.260684,43.629418,11.157726,6.587716,4.63583E+18,0.552385,0.534764,0.499853,-0.398804,0
-9.68558,0.240457,2.422319,-1.766344,-0.335262,0.352464,44.301944,-10.300493,5.469342,4.63583E+18,0.769918,-0.118369,0.585962,0.223301,-9.721076,0.907565,-1.416199,-0.209357,-0.134939,-0.323645,39.413581,-21.411739,11.051824,4.63583E+18,0.523076,-0.424027,0.615392,0.409738,-9.819545,2.330612,-0.858476,0.171586,0.19451,0.214634,43.556182,10.952604,6.61435,4.63583E+18,0.551928,0.535924,0.499559,-0.398249,0
-9.370331,0.020747,2.638633,-1.730031,-0.326549,0.345967,44.247703,-10.480741,5.115914,4.63583E+18,0.769516,-0.122768,0.583473,0.228762,-9.80657,0.553701,-1.212743,-0.22145,-0.131744,-0.32863,39.499027,-21.379294,10.893213,4.63583E+18,0.523581,-0.425138,0.614136,0.409827,-9.552883,2.546885,-1.079766,0.027569,0.206845,0.163545,43.614822,10.781537,6.687426,4.63583E+18,0.551681,0.536666,0.499645,-0.397482,0
-9.23449,-0.211468,2.728218,-1.690847,-0.271671,0.352489,44.417323,-10.715528,4.932803,4.63583E+18,0.768952,-0.127072,0.581169,0.234109,-9.883863,0.317504,-1.253173,-0.233917,-0.132091,-0.330058,39.576345,-21.188168,10.762935,4.63583E+18,0.524066,-0.426278,0.612853,0.409944,-9.316793,2.646784,-1.366585,-0.107767,0.232259,0.109605,43.700281,10.693846,6.701864,4.63583E+18,0.55183,0.536728,0.500454,-0.396173,0
-9.095802,-0.508578,2.69343,-1.631416,-0.256284,0.353717,44.619347,-10.864589,4.760613,4.63583E+18,0.768343,-0.131191,0.578944,0.239296,-9.912412,0.406756,-1.354966,-0.23215,-0.142054,-0.327213,39.64959,-20.992795,10.730308,4.63583E+18,0.524572,-0.427388,0.611554,0.410079,-8.861681,3.026434,-1.669684,-0.268793,0.293941,0.051583,43.704566,10.742348,6.701864,4.63583E+18,0.552,0.53654,0.501648,-0.394677,0
-9.000993,-0.678188,2.751345,-1.565282,-0.230785,0.360874,44.533896,-10.886426,4.63956,4.63583E+18,0.767664,-0.135101,0.576842,0.244321,-9.855515,0.646777,-1.314412,-0.213294,-0.154871,-0.326496,39.674061,-20.992593,10.665284,4.63583E+18,0.525142,-0.428433,0.610259,0.410189,-8.48296,3.577427,-1.984976,-0.462031,0.349868,-0.003608,43.641644,10.886589,6.945309,4.63583E+18,0.552395,0.535876,0.503414,-0.392773,0
-8.848559,-0.912942,2.77083,-1.48546,-0.197639,0.353988,44.470263,-11.088439,4.347948,4.63583E+18,0.766924,-0.138799,0.5749,0.249103,-9.786327,0.740571,-1.135499,-0.205084,-0.162709,-0.332542,39.844718,-21.069908,10.445738,4.63583E+18,0.525756,-0.42946,0.608948,0.410277,-8.281102,3.613569,-2.241502,-0.655377,0.374873,-0.063407,43.578543,10.842416,7.309284,4.63583E+18,0.553079,0.53466,0.505701,-0.390522,0
-8.751151,-1.071388,2.648255,-1.41021,-0.112455,0.361241,44.523014,-11.470788,3.994184,4.63583E+18,0.765987,-0.142323,0.573289,0.253669,-9.822805,0.58213,-1.045792,-0.231393,-0.16805,-0.340376,40.036054,-21.037511,10.28687,4.63583E+18,0.526347,-0.430553,0.607565,0.410424,-8.242062,3.165075,-2.333495,-0.822777,0.383449,-0.114524,43.639218,10.69612,7.373271,4.63583E+18,0.554015,0.532972,0.508372,-0.388029,0
-8.742058,-1.155533,2.383308,-1.350192,-0.078384,0.338423,44.353668,-11.620141,3.75988,4.63583E+18,0.765001,-0.145741,0.571817,0.25799,-9.867627,0.346108,-1.248907,-0.263804,-0.173391,-0.345009,40.080986,-20.84642,10.37611,4.63583E+18,0.5269,-0.431719,0.606103,0.41065,-8.179146,2.721302,-2.019283,-0.92745,0.390745,-0.153009,43.592823,10.669271,7.535541,4.63583E+18,0.55509,0.530968,0.511299,-0.385386,0
-8.772953,-1.293985,2.316292,-1.267558,-0.073276,0.322308,44.226115,-11.714937,3.784796,4.63583E+18,0.764046,-0.148934,0.570423,0.262052,-9.827039,0.268563,-1.476898,-0.259938,-0.187262,-0.336838,40.02003,-20.602292,10.372329,4.63583E+18,0.527479,-0.432831,0.604631,0.410908,-8.034909,2.649007,-1.334533,-0.968022,0.39911,-0.176902,43.590571,10.669271,7.801852,4.63583E+18,0.556188,0.528818,0.514354,-0.382682,0
-8.937878,-1.292428,2.259175,-1.192717,-0.020317,0.317447,44.320911,-11.87519,3.93184,4.63583E+18,0.762995,-0.151955,0.569259,0.265879,-9.696925,0.171068,-1.351267,-0.234668,-0.196889,-0.322241,40.048326,-20.455648,9.957814,4.63583E+18,0.528101,-0.433832,0.603204,0.41115,-8.281853,2.841678,-0.752205,-0.958886,0.382809,-0.184953,43.531794,10.598286,8.092735,4.63583E+18,0.557281,0.526627,0.517372,-0.380037,0
-9.146953,-1.272436,2.007994,-1.138766,-0.036899,0.294084,44.448464,-12.046088,3.723825,4.63583E+18,0.762025,-0.154837,0.568074,0.269509,-9.676347,-0.105415,-1.167992,-0.213294,-0.206495,-0.312264,40.133777,-20.374238,9.765923,4.63583E+18,0.528766,-0.434743,0.601809,0.411376,-8.733131,3.002632,-0.253585,-0.923163,0.338378,-0.189407,43.45855,10.583818,8.223461,4.63583E+18,0.558367,0.524435,0.520221,-0.377576,0
-9.372862,-1.196097,1.994927,-1.081506,-0.104098,0.274786,44.353704,-12.216959,3.395213,4.63583E+18,0.761255,-0.157504,0.566715,0.272978,-9.733297,-0.317217,-1.131205,-0.194426,-0.224641,-0.299811,40.25984,-20.292876,9.952766,4.63583E+18,0.529489,-0.435549,0.600427,0.411614,-9.128097,3.798104,0.143448,-0.770069,0.322072,-0.171497,43.446148,10.90831,8.463085,4.63583E+18,0.559172,0.522604,0.522742,-0.375436,0
-9.607226,-1.089095,2.201999,-1.026481,-0.14244,0.275834,44.205881,-12.397211,3.407421,4.63583E+18,0.760595,-0.159947,0.565285,0.276341,-9.786208,-0.203759,-1.240889,-0.178754,-0.235342,-0.281304,40.422568,-20.150566,9.916723,4.63583E+18,0.530233,-0.436254,0.59908,0.411872,-9.019809,3.914642,-0.451519,-0.535289,0.338188,-0.162376,43.456287,11.03529,8.903987,4.63583E+18,0.559454,0.521335,0.524932,-0.373722,0
-9.602563,-0.92909,2.251052,-0.969779,-0.180905,0.268881,44.151297,-12.630454,3.394758,4.63583E+18,0.760057,-0.16218,0.563784,0.279569,-9.810668,-0.040843,-1.367093,-0.178373,-0.236418,-0.264563,40.528488,-20.036524,9.599558,4.63583E+18,0.53095,-0.436914,0.59776,0.412166,-8.994788,2.172617,-0.555539,-0.327587,0.34092,-0.140886,43.397523,10.915894,9.227982,4.63583E+18,0.559322,0.520578,0.526772,-0.372383,0
-9.586147,-0.854518,2.382225,-0.926917,-0.1723,0.260104,44.215214,-12.790704,3.199213,4.63583E+18,0.759525,-0.164305,0.562344,0.282657,-9.847241,-0.154321,-1.225164,-0.175542,-0.23535,-0.24961,40.552994,-20.007935,9.407968,4.63583E+18,0.531643,-0.437531,0.596473,0.412484,-9.128662,1.20043,-0.316139,-0.114536,0.328319,-0.078171,43.324278,10.828171,9.125543,4.63583E+18,0.558834,0.520453,0.528094,-0.371415,0
-9.697341,-0.845192,2.46256,-0.884755,-0.149076,0.264649,44.204334,-12.939848,2.930877,4.63583E+18,0.75895,-0.16631,0.561021,0.285641,-9.912312,-0.378131,-0.94849,-0.169487,-0.237124,-0.22684,40.609846,-19.951082,9.375286,4.63583E+18,0.53231,-0.438073,0.595232,0.412839,-9.023763,1.38852,0.086256,0.051534,0.311592,-0.015663,43.240902,10.937411,9.24658,4.63583E+18,0.558119,0.520826,0.528983,-0.370703,0
-9.732408,-0.789043,2.359137,-0.852148,-0.179799,0.270921,44.129765,-12.939848,2.77108,4.63583E+18,0.758451,-0.168159,0.559637,0.288585,-9.847488,-0.419187,-0.854518,-0.15775,-0.232512,-0.202268,40.638447,-19.979334,9.440259,4.63583E+18,0.532944,-0.438536,0.594065,0.41321,-8.82452,2.040652,0.087734,0.146276,0.303373,0.034575,43.236551,11.03321,9.439826,4.63583E+18,0.557297,0.521508,0.529604,-0.370093,0
-9.745958,-0.857826,2.395959,-0.807412,-0.21353,0.277076,44.118903,-12.941399,2.733843,4.63583E+18,0.758044,-0.169809,0.558196,0.291465,-9.721338,-0.281034,-0.740829,-0.137113,-0.223967,-0.182323,40.581601,-20.007935,9.40798,4.63583E+18,0.53356,-0.438917,0.592988,0.413558,-8.687956,2.748682,-0.038267,0.161109,0.293416,0.057805,43.299447,10.915913,9.391846,4.63583E+18,0.556489,0.522274,0.530114,-0.369498,0
-9.672494,-0.981464,2.500965,-0.757223,-0.228738,0.287875,44.033443,-12.97224,2.454813,4.63583E+18,0.757685,-0.171255,0.556769,0.294268,-9.704832,-0.244094,-0.569932,-0.118588,-0.216133,-0.164876,40.552994,-19.951092,9.245362,4.63583E+18,0.534159,-0.439227,0.591992,0.413884,-8.748346,3.112009,-0.354987,0.118718,0.279187,0.059998,43.311867,10.757233,9.375286,4.63583E+18,0.555801,0.522931,0.530643,-0.368845,0
-9.523123,-1.095564,2.499618,-0.714773,-0.237808,0.288075,43.989886,-13.13247,2.271721,4.63583E+18,0.757368,-0.172553,0.555359,0.296977,-9.708973,-0.175153,-0.512711,-0.103987,-0.206524,-0.147786,40.715398,-19.8088,8.993202,4.63583E+18,0.53473,-0.439478,0.591072,0.414194,-8.866275,2.92859,-0.39478,0.028425,0.265121,0.058929,43.322002,10.80126,9.689501,4.63583E+18,0.555352,0.523334,0.531299,-0.368005,0
-9.464042,-1.077354,2.579067,-0.673913,-0.243827,0.264918,44.213865,-13.292513,2.111881,4.63583E+18,0.757115,-0.173767,0.553958,0.29952,-9.688647,0.028103,-0.593903,-0.108573,-0.191581,-0.13567,40.862096,-19.857129,8.704335,4.63583E+18,0.535235,-0.439735,0.590199,0.414514,-8.745069,2.830261,-0.694752,-0.04768,0.245911,0.054313,43.263253,10.876582,9.753716,4.63583E+18,0.555099,0.523526,0.532032,-0.367053,0
-9.569054,-1.087816,2.691829,-0.631462,-0.255592,0.276718,44.257458,-13.387258,2.10103,4.63583E+18,0.756899,-0.174803,0.552576,0.302007,-9.769766,-0.068724,-0.651021,-0.126719,-0.178755,-0.121796,40.837977,-19.9671,8.671161,4.63583E+18,0.535651,-0.440019,0.589348,0.414886,-8.80729,2.059876,-0.300839,-0.175088,0.231829,0.064048,43.108957,10.818067,9.520638,4.63583E+18,0.555037,0.523612,0.532718,-0.366026,0
-9.532029,-0.999255,2.736009,-0.593177,-0.281606,0.307508,44.033454,-13.53666,2.003164,4.63583E+18,0.756724,-0.175613,0.551177,0.30452,-9.814753,-0.337276,-0.716021,-0.129967,-0.165943,-0.09441,40.809349,-19.938906,8.833755,4.63583E+18,0.535981,-0.440266,0.58857,0.415303,-8.319301,2.238745,-1.869344,-0.115331,0.234972,0.036966,43.090058,10.671822,9.635074,4.63583E+18,0.554797,0.523781,0.533378,-0.365187,0
-9.346225,-0.892507,2.807062,-0.571292,-0.341489,0.3139,43.96815,-13.632936,1.807699,4.63583E+18,0.756688,-0.176262,0.549618,0.307044,-9.717345,-0.500315,-0.777121,-0.109711,-0.162001,-0.071951,40.809349,-19.861571,8.704382,4.63583E+18,0.536299,-0.440418,0.587876,0.415713,-8.935028,-1.006304,-0.790915,-0.056597,0.13321,-0.151672,43.163065,10.644855,9.820259,4.63583E+18,0.554608,0.523156,0.534473,-0.364768,0
-9.332848,-0.796197,3.259952,-0.552996,-0.305712,0.316087,44.042954,-13.814706,1.5269,4.63583E+18,0.756574,-0.176892,0.548191,0.309503,-9.79814,-0.520891,-0.720426,-0.071285,-0.16662,-0.044207,40.858054,-19.78021,8.411405,4.63583E+18,0.536651,-0.440408,0.587289,0.416098,-9.862458,-2.667408,2.123638,-0.264381,0.076694,-0.209452,43.248509,10.776569,10.013484,4.63583E+18,0.554797,0.522,0.535715,-0.364314,0
-9.487095,-0.625286,3.503328,-0.531733,-0.226583,0.340655,44.097398,-14.047817,1.283328,4.63583E+18,0.756257,-0.1775,0.547055,0.311931,-9.960989,-0.439655,-0.683615,-0.031042,-0.168057,-0.016066,40.939414,-19.800283,8.386297,4.63583E+18,0.537031,-0.440237,0.586819,0.416451,-8.239121,-1.419925,0.807136,-0.226249,0.100458,-0.36611,43.192117,10.803552,10.046693,4.63583E+18,0.55461,0.520617,0.537293,-0.364256,0
-9.640289,-0.480751,3.421181,-0.49729,-0.230235,0.361286,43.94798,-14.122637,1.318851,4.63583E+18,0.755941,-0.177947,0.545963,0.314345,-10.058768,-0.362263,-0.691731,-0.001824,-0.162728,0.001045,40.919348,-19.938452,8.544853,4.63583E+18,0.537422,-0.439968,0.586444,0.416761,-9.180748,-5.185842,-0.758135,-0.206697,0.15114,-0.436358,43.116795,10.864342,10.127745,4.63583E+18,0.55416,0.519193,0.539108,-0.36429,0
-9.431449,-0.514264,3.503049,-0.468724,-0.244395,0.354742,43.862539,-14.22982,1.430295,4.63583E+18,0.754539,-0.180254,0.544211,0.319395,-10.067083,-0.301228,-0.760748,0.01351,-0.154541,0.019543,40.789295,-20.052538,8.606219,4.63583E+18,0.537788,-0.439633,0.586147,0.417059,-9.337096,-3.100707,-3.027079,-0.05635,0.209861,-0.326457,43.033429,11.008491,10.144352,4.63583E+18,0.553412,0.518457,0.540585,-0.364288,0
-9.314249,-0.540445,3.971367,-0.442565,-0.207652,0.343189,43.777087,-14.47375,0.989711,4.63583E+18,0.754219,-0.180593,0.543241,0.321606,-10.034553,-0.361928,-0.874639,0.027742,-0.153807,0.031675,40.833495,-19.805241,8.606219,4.63583E+18,0.538158,-0.439238,0.585898,0.417348,-10.35765,2.258633,-3.705871,-0.015885,0.299813,-0.317354,43.089799,11.167184,10.367215,4.63583E+18,0.552392,0.51796,0.542193,-0.364153,0
-9.328211,-0.628376,4.370861,-0.419729,-0.163373,0.302586,43.693195,-14.601402,0.769474,4.63583E+18,0.753865,-0.18101,0.542406,0.323602,-10.079082,-0.264892,-0.818177,0.054414,-0.157722,0.039861,40.931283,-19.495715,8.606219,4.63583E+18,0.538571,-0.438756,0.585702,0.417598,-13.316871,1.847137,-2.189713,-0.292211,0.215124,-0.309808,42.972649,11.254969,10.423045,4.63583E+18,0.552166,0.516717,0.544002,-0.363562,0
-9.469111,-0.441544,4.651431,-0.393957,-0.13027,0.256419,43.629261,-14.5175,0.926006,4.63583E+18,0.753515,-0.181495,0.541673,0.325369,-10.29436,0.113027,-0.809638,0.075807,-0.165544,0.039886,40.850351,-19.580172,8.606219,4.63583E+18,0.539042,-0.438212,0.585525,0.417809,-12.482031,-0.402458,-0.510461,-0.43614,0.166928,-0.239383,42.682295,11.257305,10.425122,4.63583E+18,0.552336,0.515418,0.545583,-0.36278,0
-9.809179,0.000637,4.792427,-0.369968,-0.055253,0.226565,43.638576,-14.4753,0.794397,4.63583E+18,0.753052,-0.182073,0.541183,0.32693,-10.510215,0.325363,-0.80576,0.062719,-0.157407,0.027803,40.748455,-19.722927,8.541305,4.63583E+18,0.53949,-0.43774,0.585321,0.41801,-11.952108,-1.099419,0.092176,-0.352043,0.196741,-0.18727,42.567481,11.194454,10.51628,4.63583E+18,0.552333,0.514474,0.546991,-0.362003,0
-9.981975,0.257906,4.546581,-0.362051,-0.057459,0.218546,43.693203,-14.64462,0.538482,4.63583E+18,0.752608,-0.18264,0.54069,0.328449,-10.612178,0.443262,-0.769141,0.061926,-0.154517,0.014622,40.78069,-19.694785,8.31384,4.63583E+18,0.539953,-0.437308,0.585098,0.418178,-11.041283,-0.045553,-0.266707,-0.2425,0.223514,-0.129818,42.747453,11.313653,10.67679,4.63583E+18,0.552376,0.513563,0.548535,-0.360893,0
-9.624223,0.231334,4.235767,-0.330306,-0.145953,0.207746,43.638568,-14.794023,0.465433,4.63583E+18,0.7524,-0.183011,0.539953,0.329929,-10.583971,0.618102,-0.708182,0.118756,-0.169437,0.001453,40.914816,-19.771594,8.09389,4.63583E+18,0.540578,-0.436754,0.584916,0.418204,-10.206306,1.145217,-0.435034,-0.211905,0.216882,-0.105454,42.847712,11.533099,10.776785,4.63583E+18,0.552268,0.51297,0.549772,-0.360018,0
-8.998813,-0.087954,4.159815,-0.252544,-0.204882,0.198185,43.713351,-14.857769,0.462141,4.63583E+18,0.752395,-0.183078,0.539129,0.331248,-10.437711,0.805308,-0.618712,0.186441,-0.169146,-0.02734,40.976157,-19.881613,8.032472,4.63583E+18,0.541375,-0.436117,0.5848,0.418,-9.686275,2.223879,-0.542819,-0.216446,0.192545,-0.122923,42.79943,11.704272,10.791345,4.63583E+18,0.55219,0.5123,0.550985,-0.359235,0
-8.486879,-0.571377,4.219116,-0.145859,-0.166926,0.151717,43.787956,-14.794005,0.355382,4.63583E+18,0.752449,-0.182967,0.538534,0.332152,-10.497957,0.947835,-0.488624,0.278191,-0.214533,-0.063651,40.972141,-19.853498,8.097359,4.63583E+18,0.542511,-0.435282,0.584674,0.417572,-8.827434,2.647911,-0.591922,-0.150556,0.182677,-0.152807,42.716058,11.731315,10.801472,4.63583E+18,0.551944,0.511704,0.552134,-0.358699,0
-8.319059,-0.946931,4.123601,-0.029777,-0.12848,0.103408,43.76781,-14.879465,0.293168,4.63583E+18,0.752571,-0.182653,0.538184,0.332614,-10.778372,1.451067,-0.431357,0.350226,-0.314485,-0.084354,40.968044,-19.719393,8.130131,4.63583E+18,0.544057,-0.43416,0.584409,0.417102,-8.009069,2.333302,-0.719674,-0.023312,0.191331,-0.162516,42.640742,11.731315,10.955441,4.63583E+18,0.551398,0.51138,0.553141,-0.358449,0
-8.181877,-1.390996,3.647925,0.106405,-0.217836,0.071821,43.627712,-14.94323,0.366042,4.63583E+18,0.753041,-0.181859,0.537718,0.33274,-10.718695,1.725171,-0.654338,0.300387,-0.358875,-0.130524,41.024815,-19.609357,8.000371,4.63583E+18,0.545698,-0.433184,0.58387,0.416727,-7.651009,1.944473,-1.048423,0.083284,0.195107,-0.180261,42.567498,11.731315,11.067668,4.63583E+18,0.550594,0.511257,0.554041,-0.358471,0
-8.10244,-1.837661,3.369065,0.241318,-0.320283,0.065819,43.627888,-14.890293,0.257546,4.63583E+18,0.753849,-0.180513,0.537112,0.332622,-10.575885,1.299665,-0.728522,0.183663,-0.370617,-0.212697,41.045389,-19.523913,7.86994,4.63582E+18,0.547298,-0.432651,0.582951,0.416469,-7.777349,1.960946,-1.293137,0.151794,0.205217,-0.215617,42.555008,11.731315,11.165328,4.63583E+18,0.54957,0.511218,0.554941,-0.358706,0
-7.998943,-2.066315,3.27915,0.34158,-0.381342,0.061125,43.691673,-15.061182,0.075999,4.63583E+18,0.754873,-0.178777,0.536447,0.332309,-10.701257,0.903973,-0.4891,0.0775,-0.347959,-0.2258,41.09805,-19.438464,7.837153,4.63582E+18,0.548672,-0.43243,0.581874,0.416397,-8.389835,1.947226,-1.279985,0.185392,0.21165,-0.236349,42.49426,11.792061,11.343974,4.63583E+18,0.548436,0.511203,0.55586,-0.35904,0
-8.072905,-2.143501,3.279683,0.435236,-0.463701,0.041022,43.607761,-15.219714,-0.062407,4.63583E+18,0.756174,-0.176677,0.535635,0.331783,-10.844005,0.469231,-0.21626,0.0626,-0.325816,-0.193421,41.240261,-19.458422,7.772285,4.63582E+18,0.549908,-0.432202,0.580878,0.416393,-9.3185,1.657498,-1.229073,0.188359,0.219648,-0.236607,42.410894,11.99692,11.448169,4.63583E+18,0.547277,0.511201,0.556795,-0.359362,0
-8.483267,-1.872918,3.528274,0.489299,-0.533814,-0.013432,43.543808,-15.294496,-0.009448,4.63583E+18,0.757741,-0.174429,0.534633,0.331014,-10.414724,-0.055603,0.084595,0.124765,-0.337118,-0.166689,41.40303,-19.483015,7.682748,4.63582E+18,0.551235,-0.431746,0.580011,0.41632,-10.133104,1.022088,-1.139746,0.18888,0.241482,-0.21037,42.457056,12.168115,11.462751,4.63583E+18,0.546098,0.511303,0.557712,-0.359588,0
-8.877119,-1.272467,3.718937,0.533398,-0.615513,-0.062996,43.563902,-15.369121,-0.195793,4.63583E+18,0.759583,-0.172038,0.533392,0.330046,-10.262039,0.554392,0.608751,0.101315,-0.324441,-0.20526,41.456341,-19.320884,7.516231,4.63583E+18,0.552555,-0.431458,0.579061,0.416191,-10.559994,0.133997,-1.214188,0.197034,0.255417,-0.166996,42.408819,12.195196,11.543736,4.63583E+18,0.544935,0.511541,0.558557,-0.359703,0
-9.315796,-0.23012,3.860633,0.527245,-0.695118,-0.136384,43.721062,-15.328909,-0.477966,4.63583E+18,0.761688,-0.169718,0.531831,0.328913,-10.457082,1.154853,-0.130625,0.011286,-0.243808,-0.223618,41.342843,-19.06862,7.38166,4.63583E+18,0.553549,-0.43156,0.578107,0.416091,-10.76216,-0.085152,-1.293684,0.200447,0.245023,-0.135239,42.406435,12.0636,11.641393,4.63583E+18,0.543839,0.511836,0.559311,-0.35977,0
-9.300204,0.794507,3.868056,0.514416,-0.775758,-0.240777,43.828916,-15.030109,-0.673098,4.63583E+18,0.764095,-0.167557,0.529914,0.327528,-10.251278,0.025244,-1.210217,-0.007887,-0.218928,-0.27643,41.334073,-18.933875,7.413705,4.63583E+18,0.554539,-0.431876,0.577081,0.415869,-10.882449,0.610936,-1.265701,0.188411,0.233612,-0.096656,42.337659,12.097236,11.658071,4.63583E+18,0.542849,0.51218,0.559969,-0.35975,0
-9.092656,1.512194,3.77827,0.4856,-0.794149,-0.283684,43.659386,-14.891644,-0.779885,4.63583E+18,0.766568,-0.165555,0.527862,0.326079,-10.213102,-0.427946,-0.808535,-0.003196,-0.219346,-0.296621,41.464055,-18.901162,7.446516,4.63583E+18,0.555572,-0.432228,0.576024,0.41559,-10.627798,1.070778,-1.3485,0.156618,0.239763,-0.058712,42.252181,12.302146,11.577058,4.63583E+18,0.541957,0.512568,0.560591,-0.359575,0
-8.886679,2.356184,3.854914,0.40572,-0.866931,-0.408871,43.466237,-14.967822,-0.914786,4.63583E+18,0.769303,-0.163981,0.525372,0.324449,-9.545032,-0.285068,-0.16798,-0.001436,-0.218252,-0.274232,41.51738,-18.848427,7.251983,4.63583E+18,0.556566,-0.432523,0.575011,0.415355,-10.227288,0.811219,-1.387484,0.126683,0.250263,-0.032844,42.166726,12.473338,11.56041,4.63583E+18,0.541025,0.513147,0.561057,-0.359427,0
-8.671314,2.470814,4.112638,0.377939,-0.921488,-0.426018,43.632633,-14.9368,-1.393906,4.63583E+18,0.772146,-0.162457,0.522648,0.322857,-8.93683,-0.418447,0.713102,-0.019856,-0.233153,-0.237244,41.51738,-18.767083,7.088702,4.63583E+18,0.557497,-0.432746,0.573998,0.415276,-10.176814,0.552235,-1.300499,0.112908,0.260944,-0.004915,42.293944,12.307964,11.641429,4.63583E+18,0.540323,0.513485,0.561772,-0.358882,0
-8.280304,2.69502,4.234022,0.338778,-0.799948,-0.393377,43.804521,-14.618028,-1.844995,4.63583E+18,0.774641,-0.161149,0.520275,0.321366,-8.384229,-0.419463,1.597016,-0.109328,-0.246715,-0.195588,41.630836,-18.786989,7.063983,4.63583E+18,0.558226,-0.433052,0.572872,0.415532,-10.221478,0.603845,-1.281777,0.096911,0.268081,0.028353,42.323067,12.26844,11.809959,4.63583E+18,0.539618,0.513983,0.562356,-0.358314,0
-7.594671,2.872111,3.908746,0.270117,-0.742658,-0.325208,43.655076,-14.373862,-1.965676,4.63583E+18,0.776863,-0.159989,0.518034,0.320202,-7.802069,-0.402742,2.033815,-0.27718,-0.241437,-0.157475,41.793634,-18.75488,7.068087,4.63583E+18,0.558573,-0.433666,0.571536,0.416266,-10.179175,0.501069,-1.46404,0.088681,0.268287,0.067849,42.191433,12.389949,11.922187,4.63583E+18,0.538989,0.514554,0.562869,-0.357636,0
-6.773689,3.016283,3.514313,0.191156,-0.738147,-0.293283,43.609711,-14.140554,-2.199482,4.63583E+18,0.77897,-0.159019,0.515716,0.319304,-7.106924,-0.366433,1.751345,-0.497083,-0.194587,-0.108399,41.790257,-18.677538,6.995159,4.63583E+18,0.558323,-0.434755,0.570013,0.417552,-9.905499,0.152066,-1.845785,0.101764,0.262789,0.104008,42.042863,12.344049,12.029972,4.63583E+18,0.538281,0.515412,0.563106,-0.357094,0
-6.897675,2.691794,3.544279,0.152929,-0.573558,-0.246678,43.843197,-14.001891,-2.636799,4.63583E+18,0.780629,-0.158291,0.513908,0.318528,-6.175916,-0.123063,0.404012,-0.601252,-0.126253,0.015901,41.656205,-18.701522,6.836695,4.63583E+18,0.557502,-0.435907,0.56869,0.419248,-9.466644,0.044954,-2.078554,0.150745,0.256381,0.130395,42.149501,12.207983,12.119579,4.63583E+18,0.537719,0.51612,0.563482,-0.356324,0
-7.302229,2.74834,3.174808,0.088452,-0.47379,-0.197696,44.07657,-14.012688,-2.636799,4.63583E+18,0.781963,-0.157799,0.512369,0.317982,-6.702066,-0.587459,-0.118294,-0.509262,-0.153586,0.152375,41.71626,-18.782872,6.580658,4.63583E+18,0.556672,-0.436471,0.567708,0.42109,-9.144511,0.380847,-2.32449,0.195657,0.243771,0.147875,42.298069,12.375349,12.053165,4.63583E+18,0.537023,0.517094,0.563594,-0.355784,0
-7.764152,2.805797,2.75425,0.036927,-0.62872,-0.167554,44.204426,-14.078097,-2.684574,4.63583E+18,0.783548,-0.157205,0.510272,0.317744,-7.522063,-0.271382,-0.223163,-0.310084,-0.176614,0.297889,41.830438,-18.916917,6.360621,4.63583E+18,0.556,-0.436187,0.567285,0.422839,-9.418491,0.907265,-2.702336,0.211807,0.200651,0.153266,42.191452,12.546545,12.117494,4.63583E+18,0.536399,0.518052,0.563572,-0.355365,0
-7.928648,2.531434,2.793143,-0.014801,-0.798527,-0.157806,44.088154,-14.004852,-3.064544,4.63583E+18,0.785441,-0.156532,0.507555,0.317755,-7.277643,0.336347,-0.989635,-0.090046,-0.170923,0.41131,41.753876,-19.083714,6.29902,4.63583E+18,0.555513,-0.435133,0.567467,0.424318,-9.849581,1.152853,-3.044402,0.203886,0.154179,0.159128,42.042896,12.310427,12.215143,4.63583E+18,0.535805,0.519104,0.563292,-0.355172,0
-7.950686,2.484265,3.376226,-0.100592,-0.73014,-0.149147,43.769352,-13.951639,-3.441299,4.63583E+18,0.787113,-0.156211,0.504948,0.317929,-7.282712,-0.378528,-1.043072,0.042812,-0.182944,0.457808,41.538466,-19.197916,6.29902,4.63583E+18,0.555211,-0.43364,0.567937,0.425611,-9.570322,1.184118,-3.151294,0.186822,0.121535,0.158451,42.362057,12.074023,12.38366,4.63583E+18,0.535522,0.519749,0.563258,-0.354708,0
-8.457089,2.54691,4.02853,-0.143028,-0.473928,-0.149107,43.585213,-14.015549,-3.711223,4.63583E+18,0.788213,-0.156367,0.503122,0.318023,-7.53539,-1.125703,-0.85064,0.164065,-0.195092,0.493354,41.464441,-19.283362,6.29902,4.63583E+18,0.555091,-0.431757,0.568657,0.426719,-9.082326,1.629521,-2.847911,0.159806,0.104028,0.137714,42.08876,12.411043,12.182105,4.63583E+18,0.535214,0.520408,0.563131,-0.354408,0
-8.851816,2.661038,4.103137,-0.16982,-0.413919,-0.100559,43.807936,-13.940855,-3.906545,4.63583E+18,0.789102,-0.156588,0.501486,0.318293,-7.759106,-1.306076,-0.878702,0.255075,-0.189811,0.525088,41.411852,-19.425508,6.242322,4.63583E+18,0.555063,-0.429596,0.569604,0.427673,-9.371399,2.10591,-2.267026,0.083136,0.07313,0.119347,41.410516,12.862717,11.911458,4.63583E+18,0.53501,0.520976,0.562933,-0.354196,0
-8.737134,2.510304,3.974613,-0.161745,-0.410992,0.016746,43.937424,-13.951621,-4.075735,4.63583E+18,0.789831,-0.156541,0.499946,0.318928,-7.586063,-0.945814,-0.789952,0.330164,-0.172392,0.545413,41.334499,-19.588312,6.278366,4.63583E+18,0.555087,-0.427242,0.570757,0.428461,-10.106432,1.749898,-1.846942,0.002824,0.03541,0.123513,41.629571,12.494498,12.098392,4.63583E+18,0.535076,0.521318,0.56276,-0.353867,0
-8.381357,2.698182,3.515127,-0.214601,-0.317001,0.045518,43.851895,-14.026306,-4.077359,4.63583E+18,0.79029,-0.156733,0.498663,0.319705,-7.126676,-0.732563,-0.805333,0.309991,-0.09399,0.534866,41.309853,-19.755095,6.376017,4.63583E+18,0.554904,-0.425096,0.572033,0.429131,-10.30274,0.799895,-1.873373,-0.014224,0.020869,0.145342,41.973766,12.220538,12.460127,4.63583E+18,0.535244,0.521652,0.562533,-0.353482,0
-7.87864,3.114934,2.90374,-0.261367,-0.355499,-0.093967,43.691747,-14.006331,-4.187309,4.63583E+18,0.790982,-0.157316,0.497097,0.320145,-7.881418,-2.493749,2.105444,0.561907,-0.261755,0.534391,41.204576,-19.869303,6.408887,4.63583E+18,0.555563,-0.422064,0.573365,0.429492,-9.849731,0.298734,-1.831427,0.028436,0.020112,0.179648,41.230601,12.739594,12.453955,4.63583E+18,0.535372,0.52216,0.562166,-0.353121,0
-8.255788,3.616315,2.856825,-0.348172,-0.422149,-0.045956,43.61705,-13.86761,-4.382604,4.63583E+18,0.791688,-0.157997,0.495226,0.320965,-11.637744,-6.892092,5.382794,0.288662,-0.297281,0.33994,41.102567,-20.011443,6.214529,4.63583E+18,0.55617,-0.420063,0.57378,0.430115,-9.197123,0.748053,-1.798663,0.063064,0.022066,0.191171,41.126425,12.662118,12.287546,4.63583E+18,0.535437,0.522775,0.561727,-0.352812,0
-8.968355,3.356456,3.248961,-0.449545,-0.371408,0.085748,43.61705,-13.858406,-4.577905,4.63583E+18,0.792042,-0.158807,0.49347,0.322394,-12.731165,-3.711736,1.363682,-0.084623,-0.29819,0.204548,41.247954,-20.174235,6.059228,4.63583E+18,0.556366,-0.419247,0.573284,0.431316,-9.051948,1.309912,-2.007005,0.065705,0.014462,0.186068,41.938417,12.065863,12.165154,4.63583E+18,0.535506,0.523373,0.561278,-0.352536,0
-9.720761,2.451331,3.618072,-0.426683,-0.341286,0.131018,43.61705,-13.794366,-4.773244,4.63583E+18,0.792283,-0.159488,0.491871,0.323903,-12.819892,5.694019,-1.629191,-0.473048,-0.197858,0.223766,41.334267,-20.284345,5.965683,4.63583E+18,0.555608,-0.419465,0.572354,0.433313,-9.531381,1.333021,-2.162149,0.043022,-0.00489,0.170623,41.769418,12.396268,12.146366,4.63583E+18,0.535647,0.523854,0.560852,-0.352284,0
-10.46503,1.324998,3.807605,-0.357576,-0.542417,0.184859,43.595562,-13.794366,-4.99158,4.63583E+18,0.792905,-0.159558,0.489735,0.32558,-12.810673,7.451371,-5.677321,-0.594773,-0.076154,0.188626,41.115656,-20.31312,5.80325,4.63583E+18,0.554406,-0.420265,0.571421,0.435303,-10.13756,1.18686,-1.820863,0.021631,-0.015628,0.179209,41.235045,12.801843,12.156485,4.63583E+18,0.535871,0.524292,0.560415,-0.351986,0
-10.760905,-0.037202,4.457867,-0.212954,-0.760041,0.288492,43.455343,-13.826549,-5.357676,4.63583E+18,0.793919,-0.158642,0.48714,0.327446,-13.339379,5.134628,-5.427445,-0.557325,-0.105075,0.061409,40.956093,-20.418364,5.421744,4.63583E+18,0.553566,-0.421227,0.570263,0.436959,-10.231893,0.785323,-1.381397,0.011076,-0.01709,0.200178,41.341318,12.482104,12.239521,4.63583E+18,0.536153,0.524753,0.559944,-0.35162,0
-10.775516,-0.991928,5.579214,-0.186856,-0.594647,0.432439,43.540864,-14.081394,-5.613933,4.63583E+18,0.794409,-0.157572,0.485217,0.329622,-13.158296,1.282838,-4.313327,-0.657366,-0.050675,-0.11254,41.044729,-20.585122,5.204737,4.63583E+18,0.552734,-0.422929,0.568739,0.438352,-10.067929,0.84967,-1.589473,0.014925,-0.034795,0.217295,41.322394,12.594948,12.327053,4.63583E+18,0.536493,0.525237,0.559389,-0.351263,0
-9.861552,-1.074152,6.126385,-0.070822,-0.332937,0.383824,43.690296,-14.294869,-5.664136,4.63583E+18,0.794507,-0.156574,0.484284,0.331228,-11.252184,-0.394212,-3.98548,-0.528691,-0.117243,-0.134103,41.15898,-20.642719,5.297339,4.63583E+18,0.552322,-0.424261,0.567255,0.439505,-9.953551,1.405013,-1.961624,0.022219,-0.048191,0.220924,41.239033,12.826884,12.341684,4.63583E+18,0.536852,0.525724,0.558786,-0.350944,0
-8.863655,-0.774739,5.660804,0.071736,-0.230977,0.291536,43.659675,-14.284152,-5.493331,4.63583E+18,0.794617,-0.15543,0.483824,0.332173,-10.000229,-0.568937,-1.757485,-0.330654,-0.217646,-0.077822,41.074493,-20.586075,5.35905,4.63583E+18,0.552392,-0.424819,0.566,0.440495,-9.613085,1.73629,-2.127598,0.005795,-0.051973,0.209599,41.497558,12.35064,12.42262,4.63583E+18,0.537239,0.526143,0.558223,-0.35062,0
-7.928683,0.223196,4.814064,0.152499,-0.19903,0.138011,43.424698,-14.220142,-5.528571,4.63583E+18,0.794926,-0.154373,0.483481,0.332426,-9.142988,-0.731887,0.530027,-0.172929,-0.241041,-0.061232,41.016876,-20.500624,5.164845,4.63583E+18,0.552765,-0.42493,0.565008,0.441192,-9.283213,2.055372,-2.087816,-0.035919,-0.055879,0.18421,41.220223,12.365399,12.368543,4.63583E+18,0.53769,0.526403,0.557767,-0.350265,0
-7.967109,0.990521,4.383874,0.177011,-0.112266,0.058484,43.28596,-14.305584,-5.809308,4.63583E+18,0.795185,-0.153515,0.483408,0.33231,-9.048424,-0.708442,1.936571,-0.060154,-0.253439,-0.054164,41.130168,-20.415169,4.944687,4.63583E+18,0.553353,-0.424742,0.564207,0.441661,-9.188341,2.091653,-1.761725,-0.106627,-0.058382,0.15644,40.675798,12.967012,12.12127,4.63583E+18,0.53826,0.526437,0.557469,-0.349812,0
-8.536034,1.481802,4.089363,0.098398,-0.069718,0.058735,43.369873,-14.391029,-6.079345,4.63583E+18,0.795308,-0.152975,0.483366,0.332326,-9.345771,-0.096918,2.493442,0.064255,-0.272304,-0.035335,41.292966,-20.443003,4.81823,4.63583E+18,0.55417,-0.424188,0.563624,0.441913,-9.281107,1.521082,-1.464207,-0.156801,-0.062288,0.141942,40.911169,12.702004,12.14392,4.63583E+18,0.538928,0.526318,0.557267,-0.349284,0
-8.531368,1.893792,3.706344,0.081571,-0.1354,0.016675,43.433941,-14.476487,-6.225699,4.63583E+18,0.79561,-0.152485,0.483057,0.332278,-9.428232,0.802136,2.28449,0.152509,-0.277371,-0.03202,41.346474,-20.52036,4.785302,4.63583E+18,0.555148,-0.423412,0.563197,0.441974,-9.473959,0.918438,-1.537412,-0.16007,-0.059481,0.1532,41.3342,12.106703,12.401281,4.63583E+18,0.539613,0.526221,0.557051,-0.348716,0
-8.296341,2.20047,3.392076,0.053255,-0.168511,-0.014684,43.424765,-14.54052,-6.030405,4.63583E+18,0.796004,-0.152106,0.482579,0.332204,-9.496934,1.572055,1.375751,0.140474,-0.25612,-0.066039,41.184656,-20.55315,4.720575,4.63583E+18,0.556117,-0.422782,0.562736,0.441947,-9.56013,0.575195,-1.734461,-0.137918,-0.052554,0.177186,41.205262,12.131341,12.451551,4.63583E+18,0.540268,0.52624,0.556766,-0.348131,0
-7.911908,2.476575,3.267088,-0.015633,-0.20054,0.003083,43.349998,-14.455076,-5.861082,4.63583E+18,0.796393,-0.151875,0.48191,0.332348,-9.889939,1.782426,0.187896,0.054534,-0.218067,-0.12118,41.102325,-20.444008,4.752362,4.63583E+18,0.556946,-0.422551,0.562107,0.441926,-9.469479,0.484468,-1.790299,-0.117591,-0.043307,0.199282,41.021787,12.279924,12.218963,4.63583E+18,0.540888,0.526368,0.556422,-0.347522,0
-7.872329,2.432249,3.732574,-0.081333,-0.158312,0.072658,43.275246,-14.369616,-5.883996,4.63583E+18,0.796559,-0.151781,0.481334,0.332828,-10.19245,1.414138,-0.7051,-0.037399,-0.180658,-0.177095,41.20749,-20.386364,4.785302,4.63583E+18,0.557628,-0.422732,0.561296,0.441923,-9.428307,0.617647,-1.774266,-0.093058,-0.036349,0.219758,41.123908,12.052279,12.089891,4.63583E+18,0.541467,0.526609,0.556014,-0.346908,0
-8.142387,2.152991,4.254342,-0.144873,-0.013312,0.15396,43.285949,-14.316276,-5.967891,4.63583E+18,0.796281,-0.151935,0.481202,0.333612,-9.987268,1.330021,-0.806568,-0.086752,-0.15178,-0.214582,41.317649,-20.273112,4.720587,4.63583E+18,0.558223,-0.423167,0.560394,0.441898,-9.515115,0.798658,-1.810518,-0.063884,-0.029941,0.234744,41.36349,11.878545,12.224788,4.63583E+18,0.541988,0.526959,0.555544,-0.346314,0
-8.320874,1.831106,4.458751,-0.167834,0.143539,0.204151,43.360695,-14.485617,-5.932789,4.63583E+18,0.795603,-0.152283,0.48159,0.33451,-9.592574,1.193424,-0.465557,-0.094371,-0.142424,-0.236341,41.338386,-20.05371,4.622943,4.63583E+18,0.558823,-0.423689,0.559462,0.441823,-9.564315,0.769437,-1.758237,-0.02159,-0.027955,0.253938,41.407513,11.853389,12.256233,4.63583E+18,0.542439,0.527451,0.554975,-0.34577,0
-8.374279,1.734972,4.385505,-0.198011,0.290544,0.236863,43.371382,-14.644315,-5.748154,4.63583E+18,0.794564,-0.15287,0.482442,0.335483,-9.606294,0.112112,-0.192129,-0.037738,-0.162583,-0.239639,41.390873,-20.076437,4.525291,4.63583E+18,0.559575,-0.424048,0.55858,0.441643,-9.398737,0.878177,-1.765878,0.02946,-0.024233,0.268924,41.336743,11.78262,12.104585,4.63583E+18,0.542791,0.528098,0.554308,-0.345301,0
-8.346779,1.673957,4.326004,-0.249684,0.420328,0.246204,43.446148,-14.793859,-5.652028,4.63583E+18,0.793214,-0.15379,0.483656,0.336506,-9.86646,-1.029471,-0.041209,0.089446,-0.197097,-0.226876,41.476326,-20.130009,4.492324,4.63583E+18,0.560607,-0.424016,0.557873,0.441257,-9.282201,1.236965,-1.952046,0.061453,-0.027922,0.270425,41.261404,11.575855,12.083231,4.63583E+18,0.543082,0.528815,0.553582,-0.344911,0
-8.206446,1.7197,4.409943,-0.263293,0.469443,0.221641,43.435462,-14.859458,-5.676451,4.63583E+18,0.791787,-0.154873,0.484995,0.337442,-9.904636,-1.225638,-0.032346,0.273658,-0.252519,-0.200587,41.497084,-19.911672,4.427632,4.63583E+18,0.562044,-0.423391,0.55742,0.440601,-9.447392,1.528603,-2.15156,0.063571,-0.042109,0.272011,41.319582,11.404572,12.156096,4.63583E+18,0.543403,0.52952,0.552816,-0.344553,0
-8.639815,1.350438,4.846365,-0.153276,0.307223,0.227781,43.360695,-14.804532,-5.835134,4.63583E+18,0.790746,-0.155351,0.485956,0.33828,-9.714079,-0.706913,-0.186284,0.429535,-0.313426,-0.168906,41.598076,-19.630611,4.265296,4.63583E+18,0.563837,-0.422213,0.557165,0.439763,-9.62667,1.453454,-2.063825,0.0471,-0.054592,0.280338,41.465675,11.508709,12.322407,4.63583E+18,0.5438,0.530187,0.552027,-0.344165,0
-9.105191,1.214632,5.342261,-0.076102,0.248345,0.185055,43.362222,-14.879301,-5.700845,4.63583E+18,0.789934,-0.155579,0.486802,0.338857,-9.688237,-0.185027,-0.304866,0.477795,-0.335384,-0.155256,41.651661,-19.438947,4.191262,4.63583E+18,0.565738,-0.420848,0.556967,0.438881,-9.383136,1.13513,-1.836474,0.045563,-0.055727,0.293489,41.62437,11.546104,12.434757,4.63583E+18,0.544221,0.530879,0.551208,-0.343746,0
-8.882441,1.069686,5.139378,0.017092,0.277983,0.131918,43.372906,-14.963218,-5.35905,4.63583E+18,0.789195,-0.155649,0.487842,0.339051,-9.943474,0.100824,-0.3296,0.415929,-0.316658,-0.171499,41.595065,-19.328761,4.18714,4.63583E+18,0.567513,-0.419697,0.556668,0.438069,-9.104077,1.175333,-1.78438,0.076887,-0.053775,0.293224,41.591011,11.477446,12.370686,4.63583E+18,0.544567,0.531643,0.550348,-0.343395,0
-8.57573,0.932371,4.532013,0.006402,0.305885,0.107225,43.353099,-15.028837,-5.381903,4.63583E+18,0.788425,-0.155843,0.488942,0.339167,-10.244856,0.235584,-0.31343,0.283008,-0.270479,-0.19891,41.566208,-19.299904,4.18714,4.63583E+18,0.568996,-0.419008,0.556186,0.437417,-9.280245,1.590496,-1.873243,0.092159,-0.072863,0.290019,41.436919,11.392004,12.13154,4.63583E+18,0.544918,0.532406,0.549429,-0.343127,0
-8.461233,0.793481,4.487714,0.041249,0.324195,0.055027,43.194403,-15.037998,-5.517787,4.63583E+18,0.787714,-0.156055,0.490116,0.339028,-10.315418,0.308983,-0.232428,0.162467,-0.21813,-0.224558,41.679384,-19.404997,4.130551,4.63583E+18,0.570192,-0.418757,0.555561,0.436892,-9.589229,2.066574,-1.780974,0.077195,-0.093709,0.284162,41.407513,11.25602,11.923623,4.63583E+18,0.54534,0.533091,0.548496,-0.342885,0
-8.566522,0.808702,4.638783,0.082764,0.267591,-0.024812,43.055511,-15.037968,-5.334666,4.63583E+18,0.787256,-0.156213,0.491111,0.338578,-10.157544,0.240681,-0.065981,0.090329,-0.168983,-0.243466,41.842198,-19.515186,4.037019,4.63583E+18,0.571183,-0.418811,0.554888,0.436402,-9.704489,2.047436,-1.596159,0.052478,-0.104276,0.275985,41.538899,11.038784,11.809158,4.63583E+18,0.545829,0.533686,0.547591,-0.342628,0
-8.641289,0.929254,4.704478,0.132581,0.21136,-0.088917,43.085953,-15.102111,-5.238529,4.63583E+18,0.787036,-0.15626,0.491949,0.337852,-10.06715,-0.030995,0.161652,0.081467,-0.144258,-0.247464,41.83923,-19.487474,4.068689,4.63583E+18,0.572107,-0.418939,0.55425,0.435879,-9.555406,1.93548,-1.410966,0.026845,-0.110168,0.269209,41.636947,10.867499,11.792352,4.63583E+18,0.546378,0.534197,0.546725,-0.34234,0
-8.702391,1.052813,4.535135,0.143525,0.208561,-0.11267,43.310312,-15.006009,-5.116558,4.63583E+18,0.78686,-0.156315,0.492777,0.337028,-10.091232,-0.316234,0.446225,0.130371,-0.134976,-0.241791,41.810356,-19.240358,4.037023,4.63583E+18,0.573083,-0.418954,0.553732,0.43524,-9.430828,2.229824,-1.278384,0.002979,-0.110203,0.257495,41.591028,10.769438,11.883298,4.63583E+18,0.546963,0.534626,0.545917,-0.342024,0
-8.603181,1.263387,4.319901,0.161157,0.190153,-0.160493,43.385113,-14.845775,-4.750358,4.63583E+18,0.7868,-0.156384,0.493537,0.336021,-10.212791,-0.475579,0.646313,0.211438,-0.119015,-0.240679,41.858847,-19.072429,4.0606,4.63583E+18,0.574162,-0.418801,0.5534,0.434388,-9.381593,2.355623,-1.227047,-0.02671,-0.108251,0.242024,41.507677,10.825458,11.821376,4.63583E+18,0.547587,0.534955,0.54519,-0.341671,0
-8.598531,1.420536,4.319857,0.155698,0.152612,-0.151289,43.385113,-14.781602,-4.516697,4.63583E+18,0.7868,-0.1564,0.494173,0.33508,-10.274507,-0.278344,0.800883,0.263323,-0.095891,-0.252009,41.988662,-18.986978,4.08948,4.63583E+18,0.575296,-0.41859,0.553196,0.433348,-9.344973,2.044909,-1.331884,-0.044422,-0.10081,0.227772,41.563691,10.708822,11.804559,4.63583E+18,0.548212,0.535221,0.544537,-0.341294,0
-8.703923,1.644871,4.387063,0.126566,0.146355,-0.126308,43.385113,-14.867053,-4.600671,4.63583E+18,0.786757,-0.156451,0.494762,0.334285,-10.044252,0.011028,0.927257,0.251177,-0.041621,-0.279346,42.042297,-18.901523,4.024823,4.63583E+18,0.576333,-0.418569,0.553052,0.432174,-9.257833,1.836147,-1.445955,-0.047883,-0.079888,0.212118,41.709763,10.620855,11.723729,4.63583E+18,0.548776,0.535473,0.54397,-0.340897,0
-8.609311,1.817276,4.33059,0.144603,0.095924,-0.124988,43.385113,-14.920593,-4.555043,4.63583E+18,0.786828,-0.156369,0.495212,0.333489,-9.892295,0.17039,1.077521,0.223709,0.020025,-0.305385,42.042297,-18.824158,4.05647,4.63583E+18,0.577225,-0.418784,0.552959,0.430893,-9.301627,1.968356,-1.454785,-0.058676,-0.054621,0.193444,41.73711,10.547611,11.62607,4.63583E+18,0.549278,0.535693,0.543518,-0.340462,3
-8.545182,1.983675,4.356301,0.138332,0.000551,-0.100549,43.404859,-14.749692,-4.310732,4.63583E+18,0.787057,-0.156125,0.495356,0.332848,-9.916188,0.247924,1.482715,0.191729,0.08194,-0.327107,42.034218,-18.742843,4.218755,4.63583E+18,0.577956,-0.419236,0.552918,0.429524,-9.455684,2.10304,-1.351656,-0.083868,-0.026336,0.175987,41.797727,10.595604,11.690061,4.63583E+18,0.549748,0.535855,0.543205,-0.339947,3
-8.516346,2.027947,4.710408,0.12857,-0.031877,-0.086122,43.543808,-14.590949,-4.345704,4.63583E+18,0.787327,-0.155838,0.495389,0.332296,-9.928746,0.333204,2.072295,0.182277,0.129063,-0.349885,41.981608,-18.657389,4.34136,4.63583E+18,0.578601,-0.419846,0.552932,0.428038,-9.505355,2.083684,-1.027575,-0.101914,0.001617,0.16155,41.881065,10.547627,11.777607,4.63583E+18,0.550175,0.535983,0.543013,-0.339361,3
-8.287444,2.049259,4.878341,0.137797,-0.072253,-0.083448,43.533185,-14.537432,-4.541019,4.63583E+18,0.787681,-0.15546,0.495304,0.33176,-10.078133,0.42278,2.832203,0.170996,0.15691,-0.367727,42.005323,-18.523462,4.305613,4.63583E+18,0.579192,-0.420573,0.552961,0.426485,-9.398459,2.166166,-0.732066,-0.103795,0.027621,0.145013,41.90591,10.272368,11.802452,4.63583E+18,0.550523,0.536106,0.542921,-0.338751,3
-8.096618,2.143799,4.928758,0.128059,-0.036916,-0.086241,43.449258,-14.622875,-4.710541,4.63583E+18,0.78796,-0.155168,0.49532,0.331211,-10.091941,0.556678,3.411746,0.148946,0.175096,-0.386919,42.127017,-18.243639,4.337209,4.63583E+18,0.579735,-0.421428,0.552958,0.424904,-9.415684,2.518412,-0.693714,-0.112447,0.0453,0.119087,41.978711,10.156999,11.956053,4.63583E+18,0.550813,0.536175,0.542939,-0.338141,3
-8.033988,2.293397,4.89828,0.111625,0.032191,-0.098277,43.394209,-14.70681,-4.687722,4.63583E+18,0.788101,-0.15505,0.495532,0.330612,-9.945819,0.868841,3.936114,0.106364,0.179103,-0.403334,42.23312,-18.02299,4.426791,4.63583E+18,0.58022,-0.422429,0.552859,0.423372,-9.474612,2.688963,-0.827113,-0.12578,0.060438,0.090432,41.932871,10.204949,12.068465,4.63583E+18,0.551058,0.536169,0.543074,-0.337532,3
-8.046193,2.368236,4.84625,0.110401,0.010471,-0.09172,43.449267,-14.770958,-4.602191,4.63583E+18,0.788278,-0.154892,0.495674,0.330051,-9.944534,1.388691,4.166486,0.035653,0.188981,-0.413686,42.253955,-17.912761,4.455702,4.63583E+18,0.580575,-0.423642,0.552639,0.421959,-9.454854,2.518156,-0.97571,-0.144084,0.081578,0.067778,41.910124,10.217597,12.004534,4.63583E+18,0.551264,0.5361,0.543333,-0.336887,3
-8.058401,2.359147,4.936336,0.130431,-0.054399,-0.101053,43.374508,-14.751264,-4.591586,4.63583E+18,0.788614,-0.154599,0.495625,0.329459,-10.046135,1.465819,3.751022,0.002892,0.187336,-0.417284,42.306357,-17.827312,4.455702,4.63583E+18,0.58088,-0.424937,0.55235,0.420615,-9.468727,2.154963,-1.233264,-0.166843,0.097822,0.05702,41.847426,10.157008,11.997768,4.63583E+18,0.551469,0.535977,0.543686,-0.336179,3
-8.058481,2.282863,4.97751,0.145142,-0.130307,-0.126935,43.320884,-14.580425,-4.493999,4.63583E+18,0.78915,-0.154206,0.49533,0.328801,-10.188294,1.088915,3.665219,0.028263,0.130021,-0.409873,42.327199,-17.68534,4.520304,4.63583E+18,0.581347,-0.426052,0.551977,0.41933,-9.432553,1.915802,-1.36256,-0.178856,0.114543,0.045824,41.905456,10.144352,12.070562,4.63583E+18,0.551647,0.535823,0.544118,-0.335431,3
-7.982127,2.194303,5.024995,0.13394,-0.133285,-0.172229,43.488739,-14.355906,-4.357864,4.63583E+18,0.789748,-0.15394,0.49498,0.328019,-10.08859,1.097333,3.94541,0.028595,0.059443,-0.408016,42.323067,-17.522518,4.609885,4.63583E+18,0.581972,-0.427037,0.551435,0.418172,-9.54529,1.970821,-1.399632,-0.19377,0.116613,0.037609,41.849537,10.073667,12.095427,4.63583E+18,0.551841,0.53562,0.544594,-0.334664,3
-7.968405,2.175947,4.890716,0.111376,-0.100149,-0.185296,43.638254,-14.357421,-4.55318,4.63583E+18,0.790279,-0.15382,0.494699,0.327218,-9.993921,1.232567,4.093232,-0.028802,-0.001475,-0.421112,42.484563,-17.517242,4.646888,4.63583E+18,0.582655,-0.428084,0.55062,0.417222,-9.681667,2.151353,-1.504818,-0.211558,0.100526,0.03455,41.713611,10.0589,12.17831,4.63583E+18,0.552107,0.535345,0.545065,-0.333899,3
-7.965179,2.209439,4.780661,0.088012,-0.0945,-0.212685,43.777363,-14.35752,-4.736371,4.63583E+18,0.79082,-0.15384,0.494387,0.326372,-10.155206,0.813302,3.879754,-0.137838,-0.020656,-0.442095,42.728691,-17.429005,4.58643,4.63583E+18,0.583223,-0.429409,0.54953,0.416504,-9.533247,2.225511,-1.758143,-0.231483,0.085717,0.022696,41.557029,10.0589,12.356739,4.63583E+18,0.552433,0.534977,0.545554,-0.333148,3
-8.096535,2.301044,4.838671,0.064654,-0.126129,-0.219385,43.672241,-14.262991,-4.834029,4.63583E+18,0.79142,-0.153909,0.493933,0.325571,-10.258158,-0.729996,3.186674,-0.152967,-0.032304,-0.454635,42.80329,-17.153155,4.545288,4.63583E+18,0.583809,-0.430778,0.548361,0.415809,-9.477167,2.425787,-1.978335,-0.26768,0.071831,0.00351,41.660839,9.927647,12.309743,4.63583E+18,0.552845,0.534461,0.546104,-0.332391,3
-8.105827,2.361966,4.869242,0.041893,-0.167802,-0.207088,43.437187,-14.123965,-4.931679,4.63583E+18,0.792073,-0.15397,0.493319,0.324885,-10.516699,-2.46953,2.667102,0.063176,-0.106269,-0.418314,42.799156,-16.936582,4.60574,4.63583E+18,0.584888,-0.431408,0.54745,0.41484,-9.523421,2.536562,-1.93346,-0.32133,0.046463,-0.009717,41.819519,9.839633,12.05057,4.63583E+18,0.553414,0.533756,0.546699,-0.331597,3
-8.041447,2.506954,4.875191,0.065298,-0.189874,-0.203902,43.317715,-14.143636,-5.005138,4.63583E+18,0.792781,-0.153917,0.492665,0.324174,-10.774029,-2.845689,2.188048,0.453436,-0.198215,-0.341906,42.847597,-16.931279,4.7034,4.63583E+18,0.586742,-0.430752,0.547124,0.41333,-9.503698,2.410018,-1.987227,-0.364692,0.019575,-0.018816,41.907548,9.897624,12.151301,4.63583E+18,0.554128,0.532893,0.547311,-0.330785,3
-8.213843,2.636685,5.021549,0.057558,-0.180385,-0.184158,43.561834,-14.282661,-4.931677,4.63583E+18,0.793437,-0.153862,0.492044,0.323538,-10.678727,-2.088868,1.743699,0.908966,-0.305918,-0.257873,42.872402,-16.851142,4.736473,4.63583E+18,0.589509,-0.4286,0.547463,0.411176,-9.51755,2.138165,-2.143343,-0.384082,-0.007129,-0.027361,41.869747,9.902316,12.425267,4.63583E+18,0.554932,0.531927,0.547905,-0.330006,3
-8.375789,2.71772,5.221748,0.051514,-0.184603,-0.158604,43.786321,-14.252454,-5.018753,4.63583E+18,0.794062,-0.153769,0.491417,0.323001,-10.426517,-1.333994,1.861605,1.345357,-0.415296,-0.179505,42.920832,-16.627877,4.671898,4.63583E+18,0.593154,-0.424999,0.548407,0.408403,-9.67318,1.895685,-2.15273,-0.397268,-0.043545,-0.023541,41.859184,9.779079,12.556716,4.63583E+18,0.555853,0.530887,0.548424,-0.329269,3
-8.386486,2.6962,5.174681,0.068229,-0.222428,-0.167325,43.829485,-13.997739,-5.043042,4.63583E+18,0.794786,-0.153587,0.490681,0.322425,-10.105586,-0.937428,2.304609,1.754907,-0.507968,-0.102254,43.107082,-16.428026,4.574238,4.63583E+18,0.597578,-0.420032,0.549931,0.405031,-9.735166,1.643562,-2.239344,-0.403903,-0.080231,-0.0083,41.919746,9.753716,12.331381,4.63583E+18,0.556891,0.529816,0.548831,-0.328561,3
-8.369886,2.775608,5.012446,0.065973,-0.231788,-0.150993,43.625971,-13.719477,-5.127244,4.63583E+18,0.795505,-0.153367,0.48992,0.321913,-9.7516,-0.632468,2.845227,2.087308,-0.573295,-0.032054,43.076801,-16.265206,4.662217,4.63583E+18,0.602573,-0.413937,0.551937,0.401158,-9.468984,1.427581,-2.571268,-0.375683,-0.113899,0.006141,41.861775,9.753716,12.209993,4.63583E+18,0.557962,0.528795,0.549089,-0.327958,3
-8.235591,2.798641,5.172669,0.059651,-0.222934,-0.161158,43.795384,-13.814001,-5.05223,4.63583E+18,0.796215,-0.1532,0.489173,0.321375,-9.454114,-0.258627,3.410837,2.304775,-0.6087,0.026396,42.857502,-16.163015,4.845307,4.63583E+18,0.607873,-0.407065,0.554269,0.396957,-9.179786,1.543028,-2.757906,-0.335139,-0.144359,0.002364,41.796517,9.683069,12.356672,4.63583E+18,0.559007,0.527817,0.549227,-0.327522,3
-8.108863,2.731438,5.293738,0.080386,-0.155334,-0.162468,43.863474,-13.913802,-5.152779,4.63583E+18,0.7968,-0.153057,0.488677,0.320746,-9.322729,0.636496,3.811001,2.427018,-0.627275,0.079462,42.82316,-16.138187,4.971935,4.63583E+18,0.613272,-0.399689,0.556788,0.392598,-9.282518,2.129816,-2.409883,-0.338518,-0.188395,-0.011295,41.785942,9.728815,12.541895,4.63583E+18,0.56014,0.526738,0.549296,-0.327207,3
-8.053724,2.69346,5.064858,0.076353,-0.120173,-0.181547,43.268731,-13.543705,-5.360265,4.63583E+18,0.797336,-0.153013,0.48828,0.320039,-9.334319,1.848503,4.15259,2.462407,-0.633756,0.116265,42.847984,-16.081701,5.069591,4.63583E+18,0.618618,-0.392081,0.559349,0.388218,-9.657378,2.528739,-2.018761,-0.367231,-0.238926,-0.021833,41.846492,9.812152,12.49289,4.63583E+18,0.561435,0.525498,0.549308,-0.32696,3
-8.126976,2.57878,4.872399,0.08904,-0.121313,-0.207317,42.616043,-12.841224,-5.533108,4.63583E+18,0.797916,-0.152978,0.487878,0.319221,-9.399284,2.972574,4.611486,2.416207,-0.637304,0.130984,42.73502,-15.996252,5.159177,4.63583E+18,0.623804,-0.38451,0.561788,0.383947,-9.890753,2.113701,-2.003638,-0.376315,-0.280479,-0.012904,41.859184,9.695779,12.243878,4.63583E+18,0.562856,0.524199,0.549214,-0.326761,3
-8.206253,2.570006,4.788458,0.101846,-0.164529,-0.227948,42.616043,-12.486665,-5.456849,4.63583E+18,0.798619,-0.152884,0.487336,0.318336,-9.496736,3.606965,5.261369,2.305447,-0.658521,0.134931,42.838461,-16.023765,5.38987,4.63583E+18,0.628791,-0.377143,0.563942,0.37994,-9.904437,1.600509,-2.014221,-0.354983,-0.319117,-0.001852,41.919729,9.476543,12.033747,4.63583E+18,0.564332,0.52292,0.548974,-0.326668,3
-8.298182,2.359041,4.709205,0.118315,-0.231572,-0.208816,42.566346,-12.445847,-5.372763,4.63583E+18,0.799441,-0.152608,0.486605,0.317523,-9.542049,3.707338,5.900821,2.137037,-0.695483,0.134243,43.034167,-16.052734,5.493331,4.63583E+18,0.633542,-0.370125,0.565679,0.376349,-10.263464,1.685257,-1.81241,-0.356533,-0.369931,0.007063,41.992975,9.375779,11.929244,4.63583E+18,0.565937,0.521587,0.548595,-0.32666,3
-8.156531,2.324723,4.600685,0.110664,-0.289418,-0.209135,42.192116,-12.150496,-5.374429,4.63583E+18,0.800374,-0.15228,0.485669,0.316761,-9.409067,3.573712,6.442474,1.92718,-0.720543,0.128578,43.035672,-15.939811,5.299747,4.63583E+18,0.637987,-0.363605,0.566967,0.373246,-10.682667,1.85239,-1.689368,-0.379897,-0.419797,0.02973,42.005676,9.423607,11.833721,4.63583E+18,0.567735,0.520179,0.548078,-0.326652,3
-7.84114,1.943826,4.602028,0.12534,-0.394983,-0.181101,42.122094,-11.593697,-5.33431,4.63583E+18,0.801491,-0.151708,0.484417,0.316129,-9.330596,3.402795,6.777752,1.696173,-0.732693,0.123924,42.950214,-15.776961,5.256823,4.63583E+18,0.642076,-0.357667,0.567818,0.37067,-10.653846,1.647925,-1.642151,-0.4066,-0.452159,0.056247,42.005676,9.375797,11.736066,4.63583E+18,0.569697,0.518722,0.54746,-0.326588,3
-7.300754,2.020779,4.695159,0.145894,-0.439646,-0.15133,42.809546,-11.905869,-5.558151,4.63583E+18,0.802669,-0.150947,0.483059,0.315581,-9.326456,3.481942,6.900888,1.467198,-0.749363,0.117897,42.969622,-15.771529,5.285806,4.63583E+18,0.645837,-0.352311,0.568231,0.368625,-10.41072,1.185577,-1.625704,-0.439482,-0.480117,0.082951,41.935062,9.363078,11.719108,4.63583E+18,0.571826,0.517207,0.54676,-0.326444,3
-6.923616,1.802182,4.751689,0.171487,-0.386729,-0.123672,43.706503,-13.134137,-5.965897,4.63583E+18,0.803717,-0.150114,0.481928,0.31504,-9.286129,3.826581,6.824812,1.238996,-0.773892,0.109008,43.00254,-15.852839,5.035775,4.63583E+18,0.649309,-0.347538,0.568191,0.367117,-10.212789,0.856592,-1.452116,-0.461304,-0.508768,0.10877,41.789101,9.292473,11.567811,4.63583E+18,0.574099,0.515654,0.545961,-0.326248,3
-6.645859,1.780604,4.774599,0.213103,-0.359394,-0.103524,43.965394,-13.59673,-6.192335,4.63583E+18,0.804707,-0.149136,0.480954,0.314465,-9.015373,4.112594,6.581525,0.992396,-0.783658,0.082456,43.063144,-15.881832,4.77832,4.63583E+18,0.652466,-0.343469,0.56769,0.366122,-10.14063,0.77543,-1.456403,-0.446994,-0.53143,0.14323,41.822043,9.277626,11.304015,4.63583E+18,0.576434,0.51418,0.54501,-0.326047,3
-6.392536,1.851016,4.797326,0.213697,-0.368129,-0.077612,43.730292,-13.202765,-6.128117,4.63583E+18,0.805678,-0.148093,0.479966,0.31398,-8.733754,4.098424,6.353091,0.75336,-0.779786,0.040153,43.140524,-15.768921,4.776578,4.63583E+18,0.65532,-0.340147,0.566761,0.365564,-9.920336,0.345448,-1.575836,-0.367383,-0.543967,0.190137,42.157527,9.287713,11.083761,4.63583E+18,0.578687,0.512981,0.543816,-0.325939,3
-6.154588,1.871503,4.831864,0.244211,-0.284847,-0.058633,43.601469,-13.008214,-6.140139,4.63583E+18,0.806475,-0.147018,0.479308,0.313446,-8.735694,3.810922,6.173909,0.555815,-0.79243,0.008338,43.165379,-15.710928,4.680684,4.63583E+18,0.657961,-0.337414,0.565441,0.365397,-9.270692,0.034487,-1.609255,-0.233175,-0.552001,0.235738,42.285918,9.168814,10.96702,4.63583E+18,0.580728,0.512195,0.542318,-0.32604,3
-5.891866,2.271689,4.41986,0.234569,-0.193683,-0.048626,43.760344,-13.178906,-6.236287,4.63583E+18,0.807069,-0.146073,0.478949,0.312907,-8.760994,3.291474,5.898167,0.427516,-0.819095,0.001411,43.06054,-15.710928,4.364398,4.63583E+18,0.660485,-0.335003,0.563835,0.365545,-9.173599,1.117278,-1.792902,-0.128872,-0.579773,0.259421,42.369247,8.881143,10.879448,4.63583E+18,0.582638,0.511673,0.540558,-0.326375,3
-5.795121,2.464198,4.062259,0.179683,-0.156247,-0.038962,43.824577,-13.382709,-6.299216,4.63583E+18,0.807541,-0.145343,0.478649,0.312488,-8.672073,2.773994,5.439576,0.371206,-0.847933,0.011309,43.006683,-15.710928,4.17146,4.63583E+18,0.662973,-0.332676,0.562068,0.365887,-9.875811,2.212221,-1.962212,-0.090978,-0.610053,0.292766,42.454696,8.765445,10.783911,4.63583E+18,0.584576,0.511274,0.538597,-0.326778,3
-5.960006,2.504638,3.919196,0.127517,-0.154551,-0.04469,43.815577,-13.222325,-6.203067,4.63583E+18,0.807984,-0.144802,0.478283,0.312152,-8.662882,2.435018,4.979217,0.388889,-0.894405,0.030131,43.119552,-15.710928,4.138309,4.63583E+18,0.665555,-0.330179,0.560217,0.366299,-10.738206,1.152382,-1.73772,-0.078579,-0.645251,0.328197,42.661142,8.692207,10.524926,4.63583E+18,0.58661,0.510931,0.536454,-0.327193,3
-6.040081,2.274869,3.651721,0.065361,-0.254697,-0.006259,43.740836,-13.168372,-6.138616,4.63583E+18,0.80854,-0.144263,0.477522,0.31213,-8.647221,2.424428,4.632616,0.453131,-0.959817,0.059955,43.338798,-15.815716,4.0174,4.63583E+18,0.668321,-0.327329,0.558314,0.366727,-11.372999,0.356729,-1.704788,-0.071613,-0.666569,0.35727,42.691413,8.618964,10.242038,4.63583E+18,0.588711,0.510636,0.534183,-0.327596,3
-5.821866,2.326703,3.608244,0.033038,-0.406623,-0.00731,43.665882,-13.318277,-6.260032,4.63583E+18,0.809377,-0.143637,0.476205,0.312259,-8.582273,2.75606,4.367744,0.515909,-1.014796,0.087787,43.421734,-15.756782,3.632793,4.63583E+18,0.671244,-0.324148,0.55638,0.367153,-12.019454,0.697893,-2.072033,-0.097849,-0.704138,0.414157,42.558208,8.344055,9.971351,4.63583E+18,0.591023,0.510347,0.531728,-0.327877,3
-5.63832,1.836024,3.926131,0.01972,-0.554152,0.041889,43.653881,-13.298776,-6.652002,4.63583E+18,0.810432,-0.142766,0.474401,0.312667,-8.56545,3.018204,4.462122,0.576753,-1.069552,0.117996,43.260531,-15.65036,3.208978,4.63583E+18,0.674313,-0.320636,0.554413,0.367588,-12.406373,0.753153,-2.067847,-0.204178,-0.732559,0.46041,42.591084,8.157761,9.763307,4.63583E+18,0.59368,0.509853,0.529244,-0.327865,3
-5.546617,1.698329,4.612482,0.096717,-0.651574,0.12003,43.557722,-13.18058,-7.114792,4.63583E+18,0.811619,-0.141353,0.472412,0.313243,-8.537356,3.068206,4.980549,0.634836,-1.126184,0.162393,43.072804,-15.730258,2.890882,4.63583E+18,0.677504,-0.316762,0.55242,0.368079,-11.858853,-0.495406,-1.980271,-0.30742,-0.726436,0.504899,42.865963,8.079722,9.487338,4.63583E+18,0.596595,0.509203,0.526814,-0.327497,3
-4.888985,1.659581,4.768599,0.145413,-0.681636,0.17926,43.473777,-13.340975,-7.371554,4.63583E+18,0.812809,-0.139617,0.470416,0.313939,-8.512708,3.346129,5.595253,0.680503,-1.195827,0.216118,43.244545,-15.945356,2.674608,4.63583E+18,0.680812,-0.312519,0.550354,0.368697,-10.914593,-1.09968,-2.066222,-0.353832,-0.728616,0.594761,42.981726,7.877517,9.12375,4.63583E+18,0.599726,0.508623,0.524243,-0.326804,3
-4.306434,1.295702,4.722985,0.249215,-0.478524,0.200156,43.418518,-13.405446,-7.460004,4.63583E+18,0.813628,-0.137754,0.469252,0.314381,-8.516618,3.886145,6.201402,0.690066,-1.275545,0.27236,43.521849,-16.084724,2.491519,4.63583E+18,0.684205,-0.307986,0.54813,0.369543,-10.470333,-0.29488,-1.795122,-0.355555,-0.759535,0.719661,42.984392,7.575052,8.755469,4.63583E+18,0.603087,0.50826,0.521322,-0.325853,3
-4.226319,1.139823,4.601132,0.277661,-0.199827,0.198487,43.512738,-13.351463,-7.566872,4.63583E+18,0.813918,-0.136163,0.469067,0.314601,-8.496596,4.484283,6.698946,0.663917,-1.358836,0.32192,43.5001,-16.057371,2.106985,4.63583E+18,0.687651,-0.303274,0.54567,0.370683,-9.465367,0.142141,-1.380641,-0.298175,-0.76498,0.805869,43.052829,7.267753,8.459824,4.63583E+18,0.606443,0.50821,0.518116,-0.324815,3
-4.413091,0.537586,4.362187,0.311547,-0.061056,0.219383,43.726917,-13.520851,-7.629857,4.63583E+18,0.813926,-0.134597,0.469407,0.314746,-8.419688,5.146904,7.114241,0.618435,-1.437579,0.361505,43.341405,-16.02832,1.497831,4.63583E+18,0.691127,-0.298468,0.542941,0.372123,-8.458995,1.112626,-1.588441,-0.200707,-0.769204,0.858079,43.067719,7.083531,8.330259,4.63583E+18,0.609658,0.508501,0.514645,-0.323857,3
-4.340307,0.375205,3.887826,0.39727,-0.044378,0.215615,43.698471,-13.649604,-7.508243,4.63583E+18,0.813952,-0.132769,0.469914,0.314701,-8.378429,5.874955,7.468742,0.533687,-1.507073,0.383722,43.351911,-16.133065,0.955339,4.63583E+18,0.69459,-0.293734,0.539883,0.373888,-8.188036,2.041966,-1.426259,-0.142967,-0.790419,0.90419,43.208825,6.803902,8.313242,4.63583E+18,0.612844,0.508997,0.510933,-0.322943,3
-4.091676,0.472396,3.404369,0.426997,-0.010705,0.221782,43.484499,-13.58511,-7.239223,4.63583E+18,0.813917,-0.130872,0.470575,0.314598,-8.438737,6.466519,7.556626,0.396599,-1.568363,0.396561,43.39317,-16.404562,0.47925,4.63583E+18,0.697969,-0.289259,0.536424,0.376056,-7.551944,1.965519,-1.359279,-0.10372,-0.804403,0.918372,43.500672,6.307225,8.000798,4.63583E+18,0.61598,0.509591,0.507088,-0.322097,3
-3.830388,0.767806,3.392164,0.424731,0.124509,0.213348,43.411021,-13.700434,-7.152044,4.63583E+18,0.813623,-0.129176,0.471685,0.314396,-8.35915,6.761671,7.503894,0.260058,-1.624992,0.403375,43.348981,-16.621347,0.075705,4.63583E+18,0.701266,-0.285062,0.532568,0.378599,-6.928238,2.329795,-1.647308,-0.067217,-0.817916,0.93114,43.747513,5.961598,7.541738,4.63583E+18,0.619069,0.510274,0.50312,-0.321316,3
-3.745691,1.253156,3.323125,0.422573,0.359197,0.165581,43.411265,-14.019595,-7.115907,4.63583E+18,0.812926,-0.127888,0.473559,0.313908,-8.357424,6.831994,7.636197,0.176656,-1.698155,0.416106,43.21935,-16.626978,-0.435505,4.63583E+18,0.704569,-0.280951,0.528355,0.381431,-6.682852,3.525605,-1.60826,-0.091747,-0.823865,0.934443,43.586404,5.575822,7.156395,4.63583E+18,0.62221,0.51088,0.499149,-0.320479,3
-3.976599,1.727448,2.839615,0.425298,0.591969,0.103003,43.327316,-14.242798,-6.897943,4.63583E+18,0.811846,-0.127017,0.476189,0.313077,-8.563691,6.844201,7.787572,0.123529,-1.78533,0.449405,43.117049,-16.763164,-1.134181,4.63583E+18,0.70791,-0.276769,0.52381,0.384559,-6.602648,3.749803,-1.536576,-0.132659,-0.821083,0.924048,43.553885,5.183063,7.102579,4.63583E+18,0.625402,0.511347,0.495249,-0.319569,3
-4.550338,2.237927,2.357778,0.401824,0.633858,0.029018,43.273497,-14.296618,-6.606464,4.63583E+18,0.810759,-0.126426,0.478886,0.312016,-8.622832,7.017493,7.77662,0.058187,-1.872231,0.500928,43.051862,-17.063681,-1.834629,4.63583E+18,0.711238,-0.27251,0.518931,0.388058,-6.410605,3.092644,-1.384842,-0.127583,-0.815047,0.927102,43.68702,4.862968,6.872929,4.63583E+18,0.628558,0.511829,0.491339,-0.318641,3
-5.083724,2.434016,2.336531,0.335506,0.459834,-0.039598,43.378347,-14.200723,-6.337663,4.63583E+18,0.810068,-0.125969,0.480869,0.310946,-8.501514,7.161089,7.775864,-0.018334,-1.947112,0.563178,43.039151,-17.280522,-2.441602,4.63583E+18,0.714493,-0.268203,0.513742,0.391965,-6.694663,3.226215,-1.153523,-0.124973,-0.81481,0.935273,43.835609,4.618293,6.269816,4.63583E+18,0.631703,0.512321,0.487395,-0.317687,3
-5.268132,2.411819,2.756614,0.346035,0.275827,-0.106834,43.612059,-14.041757,-6.166488,4.63583E+18,0.809834,-0.125372,0.482206,0.309722,-8.552229,7.182106,7.941354,-0.075166,-2.016541,0.638201,42.938599,-17.439219,-3.079784,4.63583E+18,0.717656,-0.263772,0.508299,0.396266,-7.538726,3.062127,-0.697772,-0.132026,-0.825576,0.949108,43.921654,4.265431,5.920791,4.63583E+18,0.634886,0.512794,0.483389,-0.316697,3
-5.018042,2.641277,3.055262,0.356593,0.208876,-0.154802,43.742379,-13.975984,-6.067612,4.63583E+18,0.809799,-0.124749,0.483305,0.30835,-8.847819,7.105473,7.931677,-0.102067,-2.093717,0.734513,42.731596,-17.605955,-4.000791,4.63583E+18,0.720736,-0.259069,0.502645,0.400964,-7.461079,2.13873,-0.177158,-0.091205,-0.837511,0.975521,44.015043,3.876956,5.881836,4.63583E+18,0.638023,0.513397,0.479229,-0.315736,3
-4.798188,2.697294,3.501898,0.325109,0.358827,-0.234601,43.648248,-13.954825,-5.872303,4.63583E+18,0.809545,-0.124584,0.484826,0.306692,-8.948283,6.826502,7.724926,-0.061378,-2.179121,0.838483,42.394978,-17.825168,-4.929793,4.63583E+18,0.723799,-0.253859,0.496869,0.405945,-7.017038,2.527359,0.287258,-0.02143,-0.851023,0.992899,44.092542,3.546806,5.571698,4.63583E+18,0.641043,0.514189,0.474889,-0.314888,3
-5.149904,2.906165,4.020727,0.33565,0.656617,-0.3239,43.433941,-13.869339,-5.678402,4.63583E+18,0.808802,-0.124945,0.487314,0.304554,-8.710341,6.452227,7.730415,0.021803,-2.258253,0.939275,42.109028,-18.13374,-5.538828,4.63583E+18,0.726872,-0.248031,0.491053,0.411101,-7.296432,3.666377,0.688557,0.021422,-0.878129,0.991107,44.095274,3.168982,5.122766,4.63583E+18,0.644003,0.51504,0.470411,-0.314178,3
-5.846908,3.24871,4.030422,0.396831,0.813557,-0.38927,43.484795,-13.783896,-5.471379,4.63583E+18,0.807844,-0.125428,0.490368,0.301986,-8.650375,5.912791,7.816375,0.098134,-2.32245,1.044241,41.98983,-18.515779,-6.143709,4.63583E+18,0.729897,-0.24162,0.485228,0.416441,-6.789039,3.791297,1.341092,0.051569,-0.882477,0.96902,44.103212,2.65747,4.729395,4.63583E+18,0.646859,0.515908,0.465915,-0.313586,3
-6.634406,3.891986,3.871243,0.438223,0.801284,-0.469685,43.868436,-13.679,-5.118377,4.63583E+18,0.807019,-0.12592,0.493382,0.299064,-8.800234,5.386855,7.474842,0.142904,-2.362174,1.146483,41.824129,-18.926658,-7.00027,4.63583E+18,0.732785,-0.23477,0.479407,0.421993,-5.255195,4.044025,1.777113,0.121827,-0.874359,0.937218,44.22621,2.311761,4.280501,4.63583E+18,0.649488,0.516898,0.461404,-0.31319,3
-7.379047,4.729031,3.916351,0.430637,0.797039,-0.537239,43.998717,-13.433359,-4.934016,4.63583E+18,0.806268,-0.126568,0.496327,0.295927,-8.669342,4.918817,6.708123,0.167903,-2.363902,1.233845,41.548036,-19.39807,-8.016858,4.63583E+18,0.735458,-0.227637,0.473651,0.427712,-4.190771,5.068552,2.085034,0.171786,-0.891183,0.867974,44.312266,2.12744,3.95763,4.63583E+18,0.651933,0.517855,0.456919,-0.313104,3
-8.123621,5.304951,4.189621,0.417231,0.888125,-0.609407,43.955364,-13.197951,-4.595,4.63583E+18,0.805393,-0.127519,0.499513,0.29252,-8.271768,4.390614,5.917872,0.209688,-2.30601,1.291064,41.194602,-20.003136,-8.873343,4.63583E+18,0.737864,-0.220338,0.468143,0.433417,-3.363723,5.81746,2.277297,0.206768,-0.917139,0.777849,44.325081,1.968744,3.835868,4.63583E+18,0.654218,0.518687,0.4525,-0.313378,3
-8.908616,6.150504,4.355561,0.42401,1.057568,-0.702052,44.126266,-13.100545,-3.838141,4.63583E+18,0.80426,-0.128844,0.503213,0.288691,-8.254763,3.748581,5.463001,0.291609,-2.212857,1.327474,40.751778,-20.45305,-9.573854,4.63583E+18,0.740009,-0.212858,0.463047,0.438936,-2.014318,6.486665,2.00509,0.264549,-0.940316,0.64704,44.526487,1.628798,3.508738,4.63583E+18,0.656235,0.519387,0.448215,-0.31416,3
-10.042592,6.906359,4.159737,0.4411,1.207463,-0.798097,44.265795,-12.880092,-3.141059,4.63583E+18,0.802908,-0.130489,0.507366,0.284413,-8.752093,2.94419,5.278551,0.405719,-2.160004,1.372903,40.275669,-20.786822,-10.18089,4.63583E+18,0.741984,-0.205011,0.458309,0.444277,-1.929057,8.014012,1.326704,0.204211,-1.015614,0.433287,44.690069,1.371217,3.049756,4.63583E+18,0.658229,0.519412,0.444254,-0.315569,3
-11.619749,7.481486,4.20841,0.455186,1.208262,-0.874146,44.192291,-12.42023,-2.860617,4.63583E+18,0.80162,-0.132242,0.511476,0.279839,-8.771219,2.25461,4.786237,0.458118,-2.093135,1.413265,39.864009,-21.341765,-10.754592,4.63583E+18,0.743716,-0.197024,0.453856,0.449535,-3.959261,8.756324,1.095625,0.027816,-1.096847,0.186894,44.574738,1.451448,2.885839,4.63583E+18,0.660417,0.518379,0.440827,-0.317497,3
-13.271707,8.086909,4.829987,0.449275,0.989241,-0.921411,44.222413,-12.184747,-2.504806,4.63583E+18,0.800819,-0.133856,0.514802,0.275229,-8.08777,1.543793,3.692181,0.403012,-1.933378,1.406599,39.533887,-21.948758,-11.263929,4.63583E+18,0.745033,-0.189499,0.449741,0.454697,-5.953196,7.088321,1.033976,-0.111251,-1.155806,-0.008404,44.413921,1.346201,2.647225,4.63583E+18,0.662741,0.516514,0.437834,-0.319826,3
-14.645936,8.827061,5.774942,0.454877,0.707476,-0.969761,44.39155,-12.0396,-2.238968,4.63583E+18,0.800655,-0.135227,0.51715,0.270594,-7.393951,0.484984,2.860845,0.339321,-1.725911,1.366151,39.107976,-22.313247,-11.740018,4.63583E+18,0.745917,-0.182623,0.446075,0.459646,-8.834164,5.677008,0.844187,-0.217214,-1.24552,-0.203575,44.506942,1.197577,2.126954,4.63583E+18,0.66518,0.513868,0.435143,-0.322686,3
-15.724447,9.569223,6.614744,0.460658,0.537033,-1.008176,44.614791,-11.464475,-2.090733,4.63583E+18,0.800882,-0.136466,0.518901,0.265907,-6.900452,-0.48203,2.379553,0.309906,-1.506325,1.297327,38.579482,-22.674199,-12.344828,4.63583E+18,0.746444,-0.176372,0.442947,0.464232,-13.03018,5.517121,0.755346,-0.394454,-1.398225,-0.324535,44.633294,1.242391,1.31156,4.63583E+18,0.66809,0.510289,0.432511,-0.325876,3
-16.826475,10.558112,7.726651,0.451508,0.439407,-1.012131,44.689534,-10.90978,-1.981695,4.63583E+18,0.8013,-0.137632,0.5203,0.261276,-6.348394,-1.066768,1.767288,0.285049,-1.264804,1.219338,38.134813,-23.201845,-12.823051,4.63583E+18,0.746612,-0.170799,0.440438,0.468416,-18.216082,6.1944,3.442708,-0.776281,-1.654316,-0.328781,44.634548,1.448643,0.616065,4.63583E+18,0.672235,0.505266,0.429674,-0.328917,3
-17.808869,11.536378,8.974313,0.438445,0.352094,-0.984513,44.794346,-10.589154,-1.615511,4.63583E+18,0.801849,-0.138683,0.521396,0.256808,-5.59323,-1.526469,0.681149,0.26291,-0.989864,1.132579,37.848783,-23.626865,-12.887691,4.63583E+18,0.746392,-0.165982,0.438658,0.472152,-23.160128,4.35242,4.368585,-0.84408,-1.688534,-0.235936,44.610131,1.559773,0.037416,4.63583E+18,0.676671,0.500141,0.426612,-0.331629,3
-18.305434,12.420358,9.712576,0.541197,0.323346,-0.910966,45.038495,-10.334288,-1.273127,4.63583E+18,0.802425,-0.139197,0.522538,0.252374,-4.81146,-1.861601,-0.351147,0.231719,-0.69974,1.011866,37.61686,-23.904289,-12.975064,4.63583E+18,0.745833,-0.162049,0.43762,0.475354,-20.901223,0.830112,0.819333,-0.787274,-1.773625,0.02981,44.464912,1.504285,-0.604661,4.63583E+18,0.681464,0.495499,0.422651,-0.333848,3
-18.173843,13.026454,9.072651,0.656528,0.445442,-0.833723,45.233477,-10.079711,-1.124571,4.63583E+18,0.802702,-0.139283,0.524241,0.247871,-4.480974,-1.655591,-0.586812,0.06766,-0.378612,0.84878,37.328645,-24.261011,-13.351186,4.63583E+18,0.744886,-0.159554,0.437136,0.478121,-16.384632,3.271203,-1.380529,-0.844175,-1.865456,0.134213,44.35442,1.489303,-1.263796,4.63583E+18,0.686634,0.490717,0.418264,-0.335836,3
-18.228382,12.540483,7.767718,0.745733,0.681482,-0.770464,45.094147,-9.759054,-1.089109,4.63583E+18,0.80243,-0.139173,0.52685,0.243242,-4.411321,-1.244118,-0.991727,-0.349917,-0.031576,0.62501,37.172112,-24.571513,-13.642292,4.63583E+18,0.743465,-0.159453,0.436744,0.480717,-12.464218,7.645009,-1.070617,-0.90547,-1.874843,-0.005339,44.377552,1.630222,-2.013573,4.63583E+18,0.6917,0.485467,0.41419,-0.338111,3
-18.815168,11.41336,7.040414,0.865196,0.679043,-0.658479,45.114982,-9.513147,-0.712213,4.63583E+18,0.802095,-0.138411,0.529622,0.238719,-4.209675,-1.762361,-1.960702,-0.925973,0.334975,0.333575,37.147129,-24.658955,-13.644569,4.63583E+18,0.741568,-0.162399,0.436133,0.483209,-10.43563,7.076453,-0.406491,-0.8881,-1.987147,-0.39761,44.365986,1.851454,-2.702114,4.63583E+18,0.696318,0.479392,0.41053,-0.341746,3
-19.070382,10.664254,6.669703,0.949133,0.34901,-0.546171,45.273975,-9.343746,-0.36833,4.63583E+18,0.802405,-0.136788,0.531425,0.23457,-3.663512,-3.145206,-3.928206,-1.601281,0.68207,0.011108,37.195383,-24.441806,-13.611255,4.63583E+18,0.739206,-0.16871,0.435002,0.48568,-10.486543,7.280474,0.431662,-0.981802,-2.261424,-0.893442,44.401962,2.022985,-3.36339,4.63583E+18,0.700814,0.471758,0.407155,-0.347171,3
-18.727094,10.386406,6.731625,1.004994,0.09996,-0.478482,45.329367,-9.164205,-0.19711,4.63583E+18,0.803214,-0.134582,0.532476,0.23066,-2.827088,-4.185274,-5.142765,-2.349601,1.193374,-0.374155,37.324926,-24.216759,-13.739935,4.63583E+18,0.736106,-0.179045,0.433621,0.487918,-11.918069,9.358059,1.109293,-0.804852,-2.353423,-1.379854,44.309892,2.372898,-4.34463,4.63583E+18,0.704325,0.463621,0.40416,-0.354452,3
-17.880303,10.627411,6.92076,1.045112,0.173225,-0.408259,45.265053,-8.853986,-0.111676,4.63583E+18,0.803797,-0.132154,0.533839,0.22685,-2.353893,-7.04093,-9.134434,-3.047174,1.506227,-0.736858,37.58815,-23.828746,-13.94328,4.63583E+18,0.732534,-0.19278,0.43144,0.489989,-14.069277,5.500851,-0.238567,-0.379589,-2.44093,-2.364421,44.117368,2.964818,-5.47498,4.63583E+18,0.705587,0.454864,0.402113,-0.365447,3
-16.659222,11.285135,6.662719,1.058545,0.360255,-0.339377,45.265053,-8.714278,-0.002453,4.63583E+18,0.803888,-0.129701,0.535866,0.223133,-2.246457,-7.518152,-9.761868,-3.655515,2.203938,-1.161562,38.106507,-22.934335,-14.07842,4.63583E+18,0.727886,-0.210506,0.429686,0.491162,-15.603572,3.260873,-2.412102,-0.265415,-2.922997,-2.738453,43.829209,3.972408,-6.471895,4.63583E+18,0.706701,0.444971,0.399086,-0.378556,3
-15.55654,11.978275,6.034138,1.007332,0.553402,-0.266476,45.27546,-8.787844,0.290237,4.63583E+18,0.803433,-0.127433,0.538519,0.219665,-1.848006,-11.16879,-17.472522,-4.162737,2.21181,-1.380762,38.576337,-22.229616,-13.991149,4.63583E+18,0.72295,-0.230098,0.426563,0.492384,-18.04048,6.704523,-4.006038,-0.216198,-3.222688,-2.77366,43.534066,5.069029,-7.506851,4.63583E+18,0.707957,0.434559,0.395047,-0.392293,3
-14.710712,12.963472,5.38212,0.913453,0.707662,-0.194054,45.369811,-8.747417,0.656739,4.63583E+18,0.802496,-0.125455,0.541628,0.216562,-4.365563,-20.787262,-0.078288,-3.749433,3.289989,-2.010415,39.071482,-21.56833,-13.808045,4.63583E+18,0.717453,-0.25167,0.426734,0.489715,-22.655282,6.558831,-8.520013,-0.570246,-3.587821,-3.143867,43.291441,6.228115,-8.566758,4.63583E+18,0.709596,0.42174,0.391038,-0.40706,3
-14.135167,13.444041,4.881335,0.89107,0.676122,-0.140853,45.500297,-8.512199,0.947868,4.63583E+18,0.801552,-0.1234,0.544627,0.2137,-25.902917,-97.453229,1.829145,-2.257909,2.148125,-5.195109,39.97445,-19.987746,-13.697304,4.63583E+18,0.721639,-0.271972,0.422954,0.475793,-24.804548,1.728392,-13.310687,-0.698397,-3.728514,-3.434048,42.868215,7.520736,-9.77973,4.63583E+18,0.710896,0.40765,0.387173,-0.422547,3
-14.379173,12.160547,4.313433,0.807646,0.354956,-0.107653,45.416663,-8.372459,1.259182,4.63583E+18,0.80125,-0.12126,0.546486,0.211299,-55.739858,-92.66196,-0.044919,1.977763,-0.058635,-2.632409,40.843892,-18.254818,-13.439157,4.63583E+18,0.729135,-0.270537,0.423664,0.464415,-25.214966,-4.13861,-18.868407,-0.644056,-3.658401,-3.582915,42.20297,8.839108,-11.095339,4.63583E+18,0.711402,0.393415,0.383496,-0.438249,3
-13.886531,9.265729,2.851743,0.615255,-0.686467,-0.112809,45.286161,-8.447523,1.090649,4.63583E+18,0.803215,-0.118856,0.544688,0.209842,-30.9384,-0.108955,-12.885972,6.055541,0.379298,-0.4521,41.110363,-18.098751,-12.546658,4.63583E+18,0.735933,-0.253602,0.435875,0.451777,-24.681069,-6.353963,-24.323966,-0.620516,-3.400616,-3.5354,41.494943,10.087027,-12.274917,4.63583E+18,0.711229,0.379622,0.380292,-0.45323,3
-10.732962,5.647122,3.364546,0.438289,-1.964655,-0.229437,45.368277,-8.429748,0.333584,4.63583E+18,0.808061,-0.116186,0.538376,0.20902,9.120577,34.767567,-21.587541,5.761415,1.200321,-0.099677,41.122572,-18.797232,-11.189884,4.63583E+18,0.739808,-0.238316,0.450152,0.439605,-23.987455,-8.094176,-30.615099,-0.1877,-3.109227,-3.438692,40.98833,11.400392,-13.422299,4.63583E+18,0.70981,0.367662,0.37683,-0.467968,3
-8.513529,2.165415,7.052833,0.388226,-2.138675,-0.309595,45.495508,-8.271387,-0.315649,4.63583E+18,0.81328,-0.113704,0.531355,0.208109,17.096387,32.770447,-11.981022,4.921775,0.818516,-1.196322,41.383964,-18.95126,-9.994365,4.63583E+18,0.745184,-0.226849,0.460388,0.425775,-23.080238,-9.790096,-34.328639,0.332852,-2.706639,-2.825807,40.393586,12.529628,-14.569771,4.63583E+18,0.707929,0.358869,0.372483,-0.480944,3
-7.679579,-0.03097,9.890781,0.394822,-1.354964,-0.273662,45.483302,-8.058367,-0.802413,4.63583E+18,0.816687,-0.111792,0.52698,0.206921,-17.503632,25.88172,42.64298,3.879191,-0.815234,-2.109871,41.670087,-18.623795,-9.318191,4.63583E+18,0.754028,-0.217381,0.462652,0.41248,-18.121348,-0.277944,-30.628229,-0.736055,-2.018829,-2.52832,39.720671,13.485215,-15.465589,4.63583E+18,0.707012,0.34868,0.371776,-0.490243,3
-7.807214,-2.539856,11.582743,0.311924,-0.885473,-0.182097,45.491828,-8.060208,-1.291823,4.63583E+18,0.818925,-0.110364,0.524161,0.206003,-53.903189,35.273948,47.146916,0.10351,0.136373,-2.084915,41.902016,-18.313237,-9.219846,4.63583E+18,0.757415,-0.221316,0.461342,0.405592,-13.730493,29.105438,-25.648334,-2.420108,-1.54939,-2.236566,39.318972,14.412886,-15.623334,4.63583E+18,0.708262,0.334868,0.37539,-0.495288,3
-7.949624,-6.057016,12.753786,-0.080946,-0.952503,-0.110184,45.620919,-7.975137,-1.818531,4.63583E+18,0.821054,-0.110059,0.5208,0.206216,-45.968454,33.625435,11.518418,-4.388523,1.710368,-1.302014,42.238435,-17.622901,-9.518423,4.63583E+18,0.752126,-0.240527,0.458016,0.408258,-13.878738,36.875976,-30.770091,-3.25436,-0.880984,-1.629999,38.856384,15.531877,-15.393966,4.63583E+18,0.710714,0.320842,0.381764,-0.496188,3
-7.270507,-9.18579,12.070819,-0.339616,-0.609682,0.005358,45.535474,-7.824945,-1.916181,4.63583E+18,0.822211,-0.110682,0.518436,0.207226,-2.418259,4.938206,-13.411873,-6.555374,2.727264,-1.877576,42.669219,-16.482417,-9.607842,4.63583E+18,0.743196,-0.269191,0.453305,0.41196,-12.412161,18.803016,-32.51752,-2.849805,-0.19572,-0.230133,38.629793,16.057444,-15.193721,4.63583E+18,0.714292,0.311595,0.387385,-0.492573,3
-6.73885,-9.615793,9.595063,-0.251858,0.1374,0.151413,45.441137,-7.845657,-2.024205,4.63583E+18,0.821664,-0.111334,0.518772,0.208201,7.711233,-21.407427,-24.620312,-5.118244,2.855335,-2.584944,43.169085,-15.233141,-9.277472,4.63583E+18,0.736236,-0.29474,0.45029,0.410274,-15.704242,29.814316,-17.873773,-1.43117,0.548347,1.309084,39.404964,15.431533,-14.940177,4.63583E+18,0.717909,0.31055,0.39027,-0.485649,3
-7.213963,-7.126723,7.869284,-0.158662,0.195771,0.400903,45.282461,-8.025408,-2.171824,4.63583E+18,0.820816,-0.111177,0.519504,0.209801,-14.347674,-23.940274,-21.854354,-2.635692,2.560959,-2.401102,43.806497,-14.092444,-8.620745,4.63583E+18,0.732176,-0.311672,0.450605,0.40464,-16.27871,28.165803,-16.334541,-0.556354,1.590274,1.971477,40.260767,14.58924,-14.510593,4.63583E+18,0.719973,0.315278,0.393608,-0.476771,3
-8.909553,-6.217137,8.176399,0.024423,-0.276876,0.67651,45.153316,-8.260673,-2.073782,4.63583E+18,0.82083,-0.109384,0.518903,0.212165,-29.865513,-18.019334,-19.759223,0.058463,2.109906,-1.744374,44.245167,-13.391716,-7.855912,4.63583E+18,0.731184,-0.31832,0.454835,0.396444,-12.612739,10.692178,-21.948947,0.44946,2.369417,2.592292,40.10458,14.240075,-13.785043,4.63583E+18,0.720551,0.325537,0.396405,-0.466579,3
-10.358117,-8.234298,7.816364,0.198388,-0.351222,0.864577,45.238774,-8.459674,-2.073397,4.63583E+18,0.820907,-0.106521,0.518281,0.214827,-28.667037,-8.56683,-14.176672,1.750023,1.845734,-0.898096,44.389665,-12.947469,-7.030641,4.63583E+18,0.731445,-0.317734,0.462117,0.387919,-16.198451,-2.61118,-23.092118,1.245049,2.612113,3.260528,40.472991,13.361983,-13.094413,4.63583E+18,0.72075,0.339671,0.397368,-0.455238,3
-10.754917,-8.952167,5.831008,0.171102,0.095951,0.888622,45.305021,-8.853615,-2.111586,4.63583E+18,0.819972,-0.104099,0.519166,0.217429,-16.253789,0.896767,2.038683,1.742056,1.953831,-0.913032,44.394467,-12.540451,-6.111853,4.63583E+18,0.731416,-0.317334,0.469637,0.379171,-19.220033,-3.230693,-17.642412,1.841365,2.708576,3.731627,41.662039,11.79534,-12.513585,4.63583E+18,0.720565,0.356431,0.396672,-0.443163,3
-11.458517,-7.146259,4.522356,0.138153,0.618966,0.665982,45.221438,-9.171402,-1.770961,4.63583E+18,0.818082,-0.102744,0.521705,0.219112,-8.247476,5.84841,14.782752,1.000548,2.262159,-1.173717,44.594971,-12.242066,-5.21598,4.63583E+18,0.730119,-0.32015,0.476518,0.370621,-18.518976,1.761596,-10.432299,2.397798,2.986162,3.933669,42.207753,10.593729,-11.700476,4.63583E+18,0.719126,0.375539,0.395294,-0.430778,3
-12.194897,-5.10221,2.832022,-0.016504,0.48159,0.373852,45.092277,-9.395959,-1.267305,4.63583E+18,0.816682,-0.102424,0.523504,0.220191,-5.619093,5.054246,16.46181,0.193824,2.531672,-1.281364,44.904319,-12.046122,-4.164547,4.63583E+18,0.727279,-0.326006,0.482766,0.362936,-18.435467,3.151272,-8.267993,2.443251,3.211999,4.166701,42.394976,9.374433,-10.672852,4.63583E+18,0.717264,0.395365,0.393927,-0.417181,3
-13.391601,-2.739204,1.772842,-0.161899,0.029622,0.128593,45.186587,-9.556525,-1.475514,4.63583E+18,0.816427,-0.102719,0.523525,0.220945,-3.892402,1.008932,13.116812,-0.349266,2.720532,-1.327148,45.153277,-11.666378,-3.081309,4.63583E+18,0.72328,-0.333836,0.488629,0.355894,-18.842067,5.367948,-7.990749,2.08355,3.358283,4.088269,43.024403,7.354588,-9.459911,4.63583E+18,0.715207,0.414017,0.393526,-0.402748,3
-14.378439,-1.737062,1.135035,-0.290794,-0.373276,0.04581,45.324613,-9.622791,-1.830703,4.63583E+18,0.817071,-0.103261,0.52202,0.221871,-5.673596,-3.115828,8.904603,-0.316,2.809876,-1.250153,45.316772,-11.009462,-2.095806,4.63583E+18,0.718914,-0.341487,0.494838,0.348833,-18.187003,7.41261,-7.488494,1.573408,3.530537,3.825349,43.082742,5.87375,-8.194633,4.63583E+18,0.712922,0.430785,0.394736,-0.387751,3
-14.263431,-1.927712,0.874095,-0.291899,-0.862351,0.115717,45.29472,-9.568714,-1.950462,4.63583E+18,0.818706,-0.103202,0.518874,0.223245,-9.667158,-4.495519,4.796647,0.203867,2.83756,-1.139199,45.402855,-10.369335,-1.087616,4.63583E+18,0.714951,-0.347336,0.501962,0.340936,-16.440846,6.051553,-7.164158,1.237503,3.705754,3.616389,43.107957,4.995977,-7.10627,4.63583E+18,0.710255,0.446279,0.397186,-0.372313,3
-12.678232,-1.797189,1.05165,-0.28536,-1.282143,0.241058,45.134538,-9.664496,-2.253377,4.63583E+18,0.821117,-0.102457,0.514345,0.225209,-11.646671,-3.50928,2.892346,0.808028,2.844815,-1.10306,45.463891,-10.008189,-0.04999,4.63583E+18,0.711675,-0.351261,0.509934,0.331816,-14.592596,2.197902,-7.086737,1.203249,3.879859,3.40036,43.840852,3.641312,-5.744602,4.63583E+18,0.70668,0.461367,0.40041,-0.356953,3
-11.071359,-1.56212,2.121044,-0.268479,-1.246537,0.286742,44.993115,-9.814753,-2.731891,4.63583E+18,0.823391,-0.101587,0.509957,0.22727,-12.72135,-1.33298,4.298148,1.275917,2.85257,-1.145175,45.629278,-9.715905,1.252424,4.63583E+18,0.708996,-0.353835,0.518421,0.321504,-13.737285,-0.750413,-6.738261,1.297671,4.041644,3.125559,44.257036,2.224575,-4.376694,4.63583E+18,0.701902,0.476292,0.404305,-0.342077,3
-9.866701,-1.72316,3.425884,-0.178376,-1.135514,0.301882,45.056052,-9.816226,-3.304645,4.63583E+18,0.82543,-0.100478,0.506028,0.229139,-14.724593,0.992927,7.455723,1.553332,2.80144,-1.233511,45.849011,-9.278103,2.500235,4.63583E+18,0.706814,-0.355642,0.526896,0.310344,-13.512818,-1.683435,-5.75997,1.348711,4.156776,2.869248,44.111702,1.19303,-3.102275,4.63583E+18,0.696128,0.490873,0.408778,-0.327645,3
-8.796467,-2.478349,4.053075,-0.043642,-1.110817,0.329413,45.035004,-9.837275,-3.780727,4.63583E+18,0.827428,-0.098868,0.502313,0.230803,-19.012261,3.620341,13.106359,1.611306,2.61135,-1.340243,45.900169,-8.61702,3.575527,4.63583E+18,0.705133,-0.357195,0.534622,0.298962,-13.127124,-1.772224,-4.058008,1.443479,4.256349,2.634291,44.12907,0.251024,-1.54335,4.63583E+18,0.689339,0.505233,0.413697,-0.313699,3
-7.853224,-4.194994,4.370006,0.160432,-1.046559,0.320466,44.920115,-9.943329,-4.265599,4.63583E+18,0.829366,-0.096633,0.499,0.231977,-23.004979,7.166633,14.121766,1.619108,2.384659,-1.390553,45.815388,-7.880455,4.49267,4.63583E+18,0.7039,-0.358488,0.541518,0.287697,-12.526758,-1.870642,-2.428074,1.475494,4.357257,2.379629,44.152028,-0.819666,0.24111,4.63583E+18,0.681653,0.519142,0.419205,-0.30018,3
-6.956623,-5.88845,4.761072,0.293859,-1.105045,0.279162,44.611128,-10.179073,-4.794321,4.63583E+18,0.8315,-0.093965,0.495586,0.23275,-26.859182,11.085049,11.891247,1.495456,2.107435,-1.399947,45.87408,-7.356728,5.282942,4.63583E+18,0.703004,-0.359775,0.547349,0.27705,-12.646209,-0.816193,-0.338485,1.341937,4.304744,2.161449,43.832398,-1.797555,2.069889,4.63583E+18,0.673767,0.531992,0.425014,-0.287028,3
-5.897377,-7.534399,4.994124,0.421791,-1.20428,0.186372,44.480401,-10.254219,-5.15066,4.63583E+18,0.833957,-0.090945,0.491903,0.23297,-26.233629,13.960188,10.723132,0.985992,1.916027,-1.474451,46.020568,-6.997861,6.104012,4.63583E+18,0.701772,-0.362454,0.551847,0.267597,-13.409632,-0.354681,1.919133,1.396339,4.209615,1.966173,43.884206,-2.548605,3.649576,4.63583E+18,0.665411,0.544313,0.430744,-0.274611,3
-4.550319,-8.293799,4.667414,0.566286,-1.20141,0.033509,44.563916,-10.265974,-5.356223,4.63583E+18,0.836587,-0.087738,0.488298,0.232354,-21.785319,13.402607,9.267115,0.407985,1.801883,-1.489327,45.998519,-6.39548,6.958396,4.63583E+18,0.699871,-0.366691,0.555285,0.259572,-13.341206,-1.753162,3.264614,1.653546,4.139689,1.746632,44.282078,-3.115859,5.095058,4.63583E+18,0.656076,0.556654,0.43631,-0.263313,3
-2.928767,-8.391013,4.095135,0.67044,-1.079542,-0.158046,44.70351,-10.360694,-5.626708,4.63583E+18,0.839168,-0.084672,0.485134,0.230808,-18.142639,11.307631,8.49389,-0.101414,1.587326,-1.489183,45.832498,-5.650889,7.676444,4.63583E+18,0.697624,-0.372147,0.557496,0.253031,-12.399039,-2.776899,4.784001,1.994199,4.055373,1.551186,44.220944,-3.67304,6.844917,4.63583E+18,0.64563,0.569258,0.44155,-0.253261,3
-1.562227,-7.29984,3.532133,0.735648,-0.922389,-0.275521,44.693226,-10.426591,-5.81027,4.63583E+18,0.841545,-0.081764,0.482528,0.228657,-16.040317,10.014149,12.567426,-0.609365,1.089252,-1.428009,45.757533,-5.074732,8.018543,4.63583E+18,0.695632,-0.378386,0.557779,0.248601,-11.694653,-3.140909,6.574162,2.345612,3.928011,1.351571,43.788642,-4.113921,8.512972,4.63583E+18,0.634117,0.582081,0.446374,-0.244595,3
-0.736311,-5.34048,2.946712,0.715227,-0.73967,-0.33137,44.61659,-10.41825,-5.943142,4.63583E+18,0.843581,-0.079213,0.480513,0.226284,-12.782742,9.981869,17.73897,-1.152265,0.530499,-1.241922,45.689161,-4.578412,8.137466,4.63583E+18,0.693849,-0.385166,0.55614,0.246839,-11.554664,-3.789368,8.093601,2.687356,3.785318,1.143533,43.420992,-4.388218,9.827039,4.63583E+18,0.621578,0.595045,0.4508,-0.237364,3
-0.50237,-3.177581,2.174194,0.695406,-0.59263,-0.288573,44.60585,-10.25957,-6.344003,4.63583E+18,0.84526,-0.076782,0.479001,0.224048,-7.762879,10.40076,17.924044,-1.66106,0.126732,-1.069137,45.543358,-4.190238,8.287106,4.63583E+18,0.691965,-0.392576,0.553053,0.247388,-11.286833,-4.330738,9.003291,3.017317,3.642892,0.933317,43.209905,-4.44134,11.464127,4.63583E+18,0.60803,0.60809,0.454871,-0.231557,3
0.180246,-1.175596,0.71035,0.691351,-0.784524,-0.318448,44.585323,-10.119937,-6.786361,4.63583E+18,0.847334,-0.074245,0.476791,0.221773,-3.625177,11.140937,11.367136,-2.137544,-0.103754,-0.955492,45.532925,-4.021108,8.349864,4.63583E+18,0.689658,-0.400829,0.548952,0.24972,-10.808608,-4.579919,8.630669,3.341714,3.518423,0.742248,42.755382,-4.393232,12.944076,4.63582E+18,0.593462,0.621225,0.458608,-0.22707,3
0.688497,0.779328,-0.253426,0.714164,-1.057595,-0.412348,44.443738,-10.109682,-6.981659,4.63583E+18,0.850021,-0.071559,0.473597,0.2192,-1.482959,13.560476,3.921068,-2.854983,-0.193611,-0.91409,45.71848,-3.823347,8.221503,4.63583E+18,0.686228,-0.410904,0.543846,0.25393,-9.954113,-4.09167,7.867357,3.51935,3.432906,0.506065,41.971254,-4.211566,14.16124,4.63582E+18,0.578124,0.634005,0.462383,-0.223632,3
0.637715,2.311612,-0.151359,0.689724,-1.060625,-0.399572,44.52724,-9.996393,-7.213608,4.63583E+18,0.85267,-0.06893,0.470359,0.216714,-1.249342,11.019081,-8.901345,-3.728632,0.409745,-1.034303,45.898442,-3.575024,8.090369,4.63583E+18,0.679919,-0.424301,0.53922,0.258689,-8.755058,-2.361361,7.35539,3.49769,3.339108,0.180193,41.259694,-3.742728,15.312932,4.63582E+18,0.56248,0.645755,0.46662,-0.221094,3
0.663598,3.121652,0.462926,0.637717,-0.891208,-0.357057,44.656625,-9.708296,-7.711225,4.63583E+18,0.85491,-0.066553,0.467676,0.214427,-3.420979,-9.754688,-13.622504,-2.824749,0.153727,-0.906117,45.956686,-3.547465,7.992717,4.63583E+18,0.675503,-0.434486,0.534958,0.26218,-7.960068,-1.933814,6.773062,3.382847,3.226958,-0.147724,41.03844,-3.268075,16.681526,4.63582E+18,0.546839,0.656241,0.471397,-0.219317,3
