Accelerometer-X,Accelerometer-Y,Accelerometer-Z,Gyroscope-X,Gyroscope-Y,Gyroscope-Z,Magnetometer-X,Magnetometer-Y,Magnetometer-Z,Barometer-pressure,Orientation-S,Orientation-X,Orientation-Y,Orientation-Z,Accelerometer-X,Accelerometer-Y,Accelerometer-Z,Gyroscope-X,Gyroscope-Y,Gyroscope-Z,Magnetometer-X,Magnetometer-Y,Magnetometer-Z,Barometer-pressure,Orientation-S,Orientation-X,Orientation-Y,Orientation-Z,Accelerometer-X,Accelerometer-Y,Accelerometer-Z,Gyroscope-X,Gyroscope-Y,Gyroscope-Z,Magnetometer-X,Magnetometer-Y,Magnetometer-Z,Barometer-pressure,Orientation-S,Orientation-X,Orientation-Y,Orientation-Z,jump
-8.70437,2.66525,1.238756,-0.393225,0.134914,0.185703,45.31526,-6.011063,6.588355,4.63583E+18,0.809285,0.131266,0.570509,-0.048454,-9.99973,-2.059033,-1.023994,0.356476,-1.210865,-1.051579,41.460359,-20.251225,11.050861,4.63582E+18,0.495805,-0.501631,0.576912,0.411967,-9.485835,-0.024415,-1.60425,-0.041624,-0.133399,-0.07824,43.059607,16.932049,6.360057,4.63583E+18,0.439045,0.57773,0.497475,-0.475379,0
-8.540251,2.864617,1.560203,-0.44841,0.159501,0.161969,45.232066,-5.971684,6.683755,4.63583E+18,0.80911,0.130149,0.571152,-0.046764,-10.072974,-1.74602,-0.300881,0.563082,-1.229985,-1.040653,41.808414,-19.830498,10.754798,4.63582E+18,0.501612,-0.500811,0.573233,0.411069,-9.54247,0.046473,-1.451632,-0.020767,-0.118413,-0.070319,42.999871,17.0802,6.308503,4.63583E+18,0.439149,0.577267,0.497517,-0.475801,0
-8.458852,3.064429,1.83236,-0.504538,0.215345,0.126571,45.285814,-6.039012,6.701864,4.63583E+18,0.808823,0.128771,0.572011,-0.045029,-10.190012,-1.318218,0.060384,0.695616,-1.241677,-1.018964,42.21124,-19.547875,10.27873,4.63582E+18,0.507662,-0.499618,0.569772,0.409904,-9.627922,0.21942,-1.195277,-0.003915,-0.100048,-0.064474,42.800832,17.076113,6.165733,4.63583E+18,0.439186,0.576884,0.497545,-0.476203,0
-8.487288,3.200092,1.909764,-0.549641,0.256892,0.07701,45.430908,-6.194048,6.632277,4.63583E+18,0.808446,0.12713,0.573041,-0.043329,-10.376558,-0.701926,0.181519,0.782801,-1.262435,-0.992507,42.583402,-19.15262,9.833329,4.63582E+18,0.513872,-0.498116,0.566441,0.408609,-9.642489,0.265844,-1.042034,0.005519,-0.090614,-0.055751,42.809678,16.99643,6.079287,4.63583E+18,0.439198,0.576556,0.49755,-0.476584,0
-8.615661,3.20287,1.886735,-0.594111,0.265572,0.020316,45.390775,-6.295372,6.546816,4.63583E+18,0.808056,0.125206,0.574133,-0.041709,-10.468645,-0.087841,0.301072,0.817679,-1.285934,-0.974128,42.808842,-18.613637,9.473343,4.63582E+18,0.520152,-0.49643,0.563125,0.407296,-9.567891,0.026448,-1.1614,0.026585,-0.085897,-0.042874,43.007021,17.001183,6.021302,4.63583E+18,0.439175,0.576302,0.497491,-0.476974,0
-8.732314,3.029336,1.909764,-0.628532,0.245962,-0.031271,45.245679,-6.301286,6.610492,4.63583E+18,0.807716,0.123039,0.575188,-0.040189,-10.432952,0.593889,0.455383,0.811364,-1.310581,-0.962239,42.874254,-18.119648,9.137524,4.63582E+18,0.526429,-0.49466,0.559737,0.406052,-9.541103,-0.236689,-1.429284,0.064148,-0.086639,-0.027861,43.116547,17.086635,5.92432,4.63583E+18,0.439093,0.576148,0.497319,-0.477414,0
-8.732828,2.811895,1.996082,-0.644917,0.227485,-0.07364,45.156583,-6.29902,6.936758,4.63583E+18,0.807415,0.120712,0.576199,-0.038781,-10.4295,0.970366,0.60186,0.778475,-1.339581,-0.960427,43.070057,-17.816338,8.751295,4.63582E+18,0.532675,-0.492883,0.556202,0.404924,-9.616375,-0.098362,-1.588993,0.095153,-0.090911,-0.012967,43.077895,17.04324,5.935505,4.63583E+18,0.438975,0.576073,0.497042,-0.477901,0
-8.648767,2.612027,2.143453,-0.657735,0.236489,-0.097706,45.212563,-6.368606,7.086576,4.63583E+18,0.807088,0.118286,0.577249,-0.037417,-10.472348,0.898046,0.840272,0.75135,-1.378439,-0.962622,43.476353,-17.529342,8.473542,4.63582E+18,0.53893,-0.491077,0.552497,0.403911,-9.623174,0.265135,-1.597819,0.104619,-0.09462,-0.004154,42.998214,16.884553,5.930097,4.63583E+18,0.43886,0.576027,0.496719,-0.478399,0
-8.521308,2.476375,2.31206,-0.656637,0.27492,-0.108431,45.288062,-6.384472,7.025199,4.63583E+18,0.806659,0.115843,0.578429,-0.036071,-10.565626,1.041795,1.142434,0.706969,-1.416083,-0.954601,43.810075,-17.130652,8.305859,4.63582E+18,0.545139,-0.489261,0.548617,0.403071,-9.492632,0.421493,-1.632727,0.092338,-0.099515,0.000118,42.964293,16.764505,5.935499,4.63583E+18,0.438792,0.575957,0.4964,-0.478875,0
-8.406909,2.384121,2.443203,-0.642799,0.338713,-0.121324,45.371242,-6.314905,7.00705,4.63583E+18,0.806061,0.113426,0.57982,-0.034771,-10.550428,1.543181,1.098218,0.562095,-1.423982,-0.943699,44.046374,-16.630187,7.837872,4.63582E+18,0.551022,-0.487709,0.544467,0.40258,-9.399027,0.427259,-1.652419,0.067595,-0.104233,0.004391,43.008703,16.769227,6.033152,4.63583E+18,0.438803,0.575843,0.496111,-0.479302,0
-8.436177,2.268854,2.426143,-0.630255,0.369682,-0.136079,45.387127,-6.29902,7.076617,4.63583E+18,0.805371,0.111019,0.581315,-0.033533,-10.258842,2.103106,0.708277,0.318843,-1.40778,-0.940816,44.286147,-16.155939,7.130987,4.63582E+18,0.556342,-0.486711,0.539922,0.402592,-9.471212,0.401499,-1.623585,0.040388,-0.110818,0.00979,43.088384,16.854674,6.072847,4.63583E+18,0.438903,0.575677,0.495852,-0.479678,0
-8.576704,2.206414,2.33757,-0.61329,0.360809,-0.153641,45.327504,-6.428201,7.181934,4.63583E+18,0.804686,0.108626,0.582779,-0.032399,-9.777479,2.651277,0.297838,0.012623,-1.36677,-0.947688,44.491826,-15.7637,6.657895,4.63582E+18,0.560935,-0.486483,0.534918,0.403175,-9.610588,0.31403,-1.649344,0.023264,-0.120995,0.017326,43.122316,16.933686,5.918962,4.63583E+18,0.43908,0.575476,0.49559,-0.480029,0
-8.725475,2.157581,2.34922,-0.603825,0.342177,-0.182235,45.244314,-6.258958,7.500506,4.63583E+18,0.804029,0.106192,0.584187,-0.031391,-9.326049,2.860703,0.070498,-0.319768,-1.299767,-0.958449,44.650511,-15.39913,6.259956,4.63582E+18,0.564698,-0.487145,0.529464,0.40432,-9.668263,0.134012,-1.730367,0.024297,-0.131112,0.026997,43.026399,17.006925,5.689722,4.63583E+18,0.439294,0.575276,0.495284,-0.480387,0
-8.782523,2.178318,2.415658,-0.600696,0.327298,-0.213212,45.228428,-6.004866,7.717663,4.63583E+18,0.803397,0.103691,0.585552,-0.0305,-9.084851,2.597023,0,-0.626941,-1.223706,-0.968205,44.804834,-14.976245,5.674001,4.63582E+18,0.567661,-0.488656,0.523626,0.405946,-9.661825,-0.027093,-1.82735,0.041797,-0.144105,0.038805,42.945644,17.002904,5.654706,4.63583E+18,0.439517,0.575108,0.494891,-0.480789,0
-8.799267,2.324243,2.498832,-0.59943,0.309066,-0.249402,45.168808,-6.155953,7.761638,4.63583E+18,0.802796,0.101103,0.586866,-0.029739,-9.010695,2.28533,-0.069981,-0.885084,-1.148013,-0.966737,44.986307,-14.618071,5.127435,4.63582E+18,0.569904,-0.490877,0.517506,0.407966,-9.630302,-0.073244,-1.803348,0.062985,-0.157874,0.051623,42.990714,16.84596,5.700857,4.63583E+18,0.439744,0.574977,0.494399,-0.481244,0
-8.682297,2.455396,2.633966,-0.590536,0.307229,-0.287656,45.095564,-6.270918,7.773845,4.63583E+18,0.802184,0.098452,0.588183,-0.029128,-8.829959,2.311755,-0.208437,-1.108563,-1.065692,-0.952309,45.199826,-14.335498,4.64701,4.63582E+18,0.571459,-0.49371,0.511203,0.410312,-9.607226,-0.105433,-1.636218,0.079452,-0.170186,0.066693,43.069722,16.736349,5.597855,4.63583E+18,0.439986,0.574884,0.493816,-0.481733,0
-8.545758,2.527781,2.730763,-0.596374,0.363266,-0.326106,45.141554,-6.088102,7.835729,4.63583E+18,0.801425,0.095693,0.589697,-0.028606,-8.465376,2.65229,-0.319398,-1.324473,-0.971743,-0.934996,45.358521,-14.001525,4.09312,4.63582E+18,0.572309,-0.497151,0.504758,0.412944,-9.665159,-0.140718,-1.512385,0.095532,-0.181314,0.084345,43.142962,16.82003,5.454043,4.63583E+18,0.440248,0.574834,0.493137,-0.482249,0
-8.560509,2.559011,2.587701,-0.612941,0.42554,-0.353257,45.085638,-5.903571,7.84936,4.63583E+18,0.800507,0.092819,0.591424,-0.028108,-8.033763,2.868212,-0.213748,-1.50851,-0.878642,-0.909633,45.517209,-13.690339,3.452349,4.63582E+18,0.572502,-0.501104,0.498239,0.415806,-9.832959,-0.075682,-1.444244,0.118254,-0.198812,0.104757,43.177586,16.849988,5.356384,4.63583E+18,0.440533,0.574832,0.49233,-0.482814,0
-8.659004,2.563555,2.322863,-0.621537,0.403842,-0.376953,45.069733,-5.67308,7.918899,4.63583E+18,0.799634,0.089855,0.593082,-0.027675,-7.817272,2.359913,0.234498,-1.610411,-0.796342,-0.843817,45.649665,-13.434003,2.971352,4.63582E+18,0.572161,-0.505272,0.491841,0.418838,-10.014061,-0.134495,-1.455341,0.152219,-0.219999,0.129439,43.132532,16.770977,5.213677,4.63583E+18,0.440828,0.574901,0.491357,-0.483453,0
-8.768868,2.722496,2.181173,-0.662714,0.3337,-0.399582,45.069733,-5.498474,8.083819,4.63583E+18,0.798937,0.08669,0.594511,-0.027241,-7.36653,3.100887,-0.893161,-1.814166,-0.617119,-0.720923,45.669546,-13.182019,2.713346,4.63582E+18,0.57077,-0.509949,0.485739,0.422175,-9.935298,-0.347116,-1.68814,0.194554,-0.233088,0.155015,43.092133,16.774963,5.075625,4.63583E+18,0.441101,0.575073,0.490213,-0.484162,0
-8.779396,2.82841,2.269982,-0.73271,0.256793,-0.411583,45.13927,-5.458983,8.26693,4.63583E+18,0.798444,0.083253,0.595688,-0.0267,-6.089968,5.516428,-3.041015,-1.944436,-0.417143,-0.563846,45.637454,-12.994703,2.452472,4.63582E+18,0.568381,-0.514931,0.480179,0.425696,-9.699589,-0.259294,-1.849091,0.234909,-0.245574,0.175077,43.092133,16.770986,4.977972,4.63583E+18,0.441341,0.575335,0.488915,-0.484944,0
-8.72746,2.834392,2.533375,-0.758803,0.227695,-0.41685,45.155186,-5.456709,8.380495,4.63583E+18,0.79802,0.079712,0.596764,-0.026119,-5.85922,6.411452,-3.25382,-2.010873,-0.349276,-0.398258,45.753489,-12.966067,2.039112,4.63582E+18,0.565379,-0.519819,0.474981,0.429567,-9.671559,0.088906,-1.804718,0.249831,-0.263283,0.192223,43.130733,16.69775,4.880325,4.63583E+18,0.441616,0.575622,0.487511,-0.485765,0
-8.706154,2.762591,2.727022,-0.807651,0.217358,-0.417646,45.155186,-5.258062,8.46822,4.63583E+18,0.797628,0.076006,0.597802,-0.025422,-5.697774,6.949096,-3.75902,-2.139297,-0.219889,-0.150705,45.836994,-13.013092,1.558654,4.63582E+18,0.561358,-0.524709,0.470355,0.433963,-9.787193,0.314249,-1.763641,0.244996,-0.293203,0.212069,43.171811,16.579482,4.834132,4.63583E+18,0.442003,0.575878,0.486014,-0.486609,0
-8.743608,2.597681,2.887994,-0.858179,0.216635,-0.414169,45.085658,-5.212561,8.404687,4.63583E+18,0.79724,0.072139,0.598832,-0.024586,-4.532067,8.416473,-5.587082,-1.862196,-0.144464,0.214035,45.759366,-13.043696,1.214551,4.63582E+18,0.557096,-0.528333,0.46717,0.438475,-9.89706,0.18611,-1.699973,0.262169,-0.322593,0.233432,43.299805,16.465814,4.73121,4.63583E+18,0.44245,0.576149,0.484374,-0.487516,0
-8.752708,2.434465,2.987079,-0.884713,0.193374,-0.380356,44.940644,-5.351581,8.396416,4.63583E+18,0.796909,0.068266,0.599766,-0.023576,-4.253248,9.651634,-6.971524,-1.383207,-0.235293,0.653144,45.739524,-13.159805,1.124697,4.63582E+18,0.553236,-0.529796,0.46559,0.443252,-9.839693,-0.213562,-1.500068,0.329942,-0.330506,0.2683,43.486708,16.392574,4.535904,4.63583E+18,0.44282,0.576597,0.482496,-0.488512,0
-8.484582,2.394928,3.092397,-0.921718,0.140203,-0.331944,44.911037,-5.244436,8.468208,4.63583E+18,0.796713,0.064386,0.600503,-0.022327,-4.809422,9.948857,-7.81229,-0.896116,-0.238079,1.005467,45.806553,-13.387594,0.961401,4.63582E+18,0.549786,-0.529426,0.465662,0.447886,-9.587161,-0.311499,-1.296487,0.447511,-0.331803,0.312482,43.510997,16.312902,4.250561,4.63583E+18,0.442997,0.577345,0.480268,-0.489662,0
-8.115288,2.42244,3.291622,-0.941452,0.138803,-0.278269,45.109631,-5.083475,8.474216,4.63583E+18,0.796517,0.060574,0.601212,-0.020849,-8.232998,3.566879,-6.026845,-0.423688,-0.272769,0.964671,45.788135,-13.774037,0.715653,4.63582E+18,0.547509,-0.527972,0.466433,0.451574,-9.480686,-0.297561,-1.406588,0.625818,-0.324201,0.342323,43.50915,16.278899,3.922926,4.63583E+18,0.442788,0.578493,0.477614,-0.49109,0
-7.895755,2.300206,3.39219,-0.934687,0.17835,-0.215982,45.35375,-4.984368,8.392512,4.63583E+18,0.796213,0.056944,0.602026,-0.019169,-13.138555,-10.528471,-2.842269,-0.28077,-0.433349,0.753373,45.719272,-14.266652,0.567549,4.63582E+18,0.546247,-0.526291,0.466632,0.454848,-9.541719,-0.822123,-1.678294,0.77636,-0.313978,0.367175,43.620972,16.323258,3.68141,4.63583E+18,0.442242,0.579983,0.474604,-0.49274,0
-7.891352,2.270577,3.435649,-0.93423,0.202562,-0.156238,45.200775,-5.097477,8.533126,4.63583E+18,0.795839,0.053467,0.602895,-0.017285,-12.982467,-16.315494,-4.84655,-0.482189,-0.240635,0.637622,45.627612,-14.710328,0.412101,4.63582E+18,0.544382,-0.52565,0.466627,0.45782,-9.634901,-0.886398,-1.634399,0.787144,-0.317468,0.394831,43.651717,16.274335,3.492532,4.63583E+18,0.441728,0.581532,0.471492,-0.494361,0
-7.89819,2.052162,3.631119,-0.949397,0.250456,-0.076641,44.897058,-5.196605,8.738372,4.63583E+18,0.795341,0.050144,0.603896,-0.015087,-8.043293,-8.704959,-11.759857,-0.739713,0.209129,0.613431,45.529241,-14.899037,0.231941,4.63582E+18,0.541119,-0.526489,0.46709,0.460246,-9.911286,0.06344,-1.430784,0.689243,-0.326013,0.415966,43.610621,16.077061,3.257983,4.63583E+18,0.441505,0.582917,0.468508,-0.495764,0
-7.788996,1.773699,3.604941,-0.968422,0.330984,-0.016586,44.90728,-5.272122,8.777122,4.63583E+18,0.794635,0.046914,0.605141,-0.012624,-4.752512,-0.604162,-15.116768,-0.819907,0.515582,0.685161,45.552017,-14.874812,0.332517,4.63582E+18,0.536935,-0.527946,0.468237,0.462308,-10.384172,0.794857,-1.335085,0.538067,-0.345246,0.438118,43.611272,15.845135,3.073664,4.63583E+18,0.441729,0.584021,0.465741,-0.496871,0
-8.14116,1.562401,3.311002,-0.96854,0.325431,0.051792,45.052303,-5.424793,8.935966,4.63583E+18,0.793931,0.043856,0.606342,-0.009934,-8.179183,-0.229591,-15.014387,-0.677937,0.683774,0.732687,45.462553,-15.047722,0.517084,4.63582E+18,0.532631,-0.529302,0.470124,0.463818,-10.561938,0.837768,-1.280479,0.36436,-0.360023,0.474944,43.61705,15.613207,3.033864,4.63583E+18,0.442477,0.584841,0.463212,-0.497603,0
-9.150867,1.267861,3.038732,-0.935608,0.144142,0.121609,45.15142,-5.585742,9.131251,4.63583E+18,0.793669,0.041076,0.606919,-0.007128,-13.992497,-1.988401,-14.287777,-0.209353,0.59492,0.831343,45.064099,-15.43852,0.524918,4.63582E+18,0.529333,-0.529241,0.472925,0.464815,-10.183385,0.621867,-1.30236,0.195428,-0.366096,0.493314,43.662048,15.419835,2.988218,4.63583E+18,0.443684,0.585369,0.460975,-0.497986,0
-10.246405,0.493932,3.407664,-0.909115,0.175691,0.200588,45.038368,-5.54593,9.24716,4.63583E+18,0.793313,0.038585,0.607576,-0.004122,-17.714681,-1.237644,-8.362171,0.398075,0.370188,0.660112,44.843978,-15.882157,0.734746,4.63582E+18,0.528141,-0.527733,0.476021,0.464725,-10.080171,0.539068,-1.497072,0.087632,-0.396518,0.46441,43.734641,15.344706,2.736307,4.63583E+18,0.445149,0.585576,0.458972,-0.498284,0
-11.263389,-0.950727,3.880675,-0.713665,0.530089,0.412901,44.939221,-5.599429,9.116544,4.63583E+18,0.792019,0.037284,0.609356,-0.000851,-20.694456,1.874862,-2.027154,0.786728,0.195589,0.611344,44.99063,-16.188993,1.250759,4.63582E+18,0.528237,-0.525122,0.479369,0.464132,-10.685455,0.45164,-1.513684,0.035636,-0.433841,0.439458,43.763542,15.222598,2.358546,4.63583E+18,0.446758,0.585558,0.457067,-0.498617,0
-12.472821,-2.078856,3.42153,-0.542937,0.681593,0.82298,44.933169,-6.012406,9.102158,4.63583E+18,0.790299,0.037589,0.611558,0.003365,-18.128328,7.699845,1.524607,0.985077,0.091229,0.75337,45.067768,-16.437501,1.536478,4.63582E+18,0.52869,-0.521576,0.48317,0.463672,-10.865814,0.232553,-1.307451,0.006576,-0.427929,0.434567,43.847089,14.990658,2.082298,4.63583E+18,0.448415,0.585486,0.455242,-0.498884,0
-13.610975,-2.866007,2.998284,-0.526804,0.580475,1.225536,44.875907,-6.570121,9.354819,4.63583E+18,0.788803,0.038975,0.613345,0.008848,-13.662422,6.103283,2.537619,0.651833,0.222083,0.578671,44.884817,-16.632658,1.59917,4.63582E+18,0.528484,-0.519358,0.486224,0.463204,-10.052379,0.494135,-1.374963,0.01743,-0.391557,0.382614,44.089311,14.842269,1.983381,4.63583E+18,0.449865,0.585408,0.453587,-0.499177,0
-13.918028,-3.141968,3.277143,-0.479433,0.555906,1.430867,44.743109,-7.074439,9.749349,4.63583E+18,0.787323,0.041043,0.614993,0.014881,-10.383323,3.606951,3.40478,0.164523,0.431784,0.37334,44.868378,-16.744323,1.66908,4.63582E+18,0.527189,-0.51903,0.48835,0.462811,-9.452383,1.813811,-1.674349,0.010624,-0.380598,0.263829,44.201077,14.769029,1.984025,4.63583E+18,0.451063,0.585114,0.452254,-0.49965,0
-13.107354,-2.509108,3.138738,-0.433988,0.58342,1.416078,44.527187,-7.622187,10.084948,4.63583E+18,0.78573,0.04322,0.616709,0.020753,-9.773884,3.376306,5.332502,-0.223366,0.505066,0.242574,44.892665,-16.876796,1.794488,4.63582E+18,0.525157,-0.519957,0.489601,0.462759,-9.591815,3.590304,-1.870305,-0.070332,-0.3996,0.14594,44.03788,14.689359,1.989807,4.63583E+18,0.452247,0.584405,0.451341,-0.500235,0
-12.290266,-1.552243,2.741158,-0.390591,0.524496,1.284122,44.424238,-8.124218,10.243585,4.63583E+18,0.784261,0.045205,0.618233,0.02607,-9.626786,3.035322,6.516059,-0.508494,0.51046,0.160834,44.807213,-16.931669,1.794488,4.63582E+18,0.52265,-0.521681,0.490131,0.463095,-9.554556,4.106205,-1.897289,-0.171069,-0.405053,0.048689,44.044303,14.693855,1.887015,4.63583E+18,0.453482,0.58331,0.450862,-0.500825,0
-11.987589,0.081609,2.661214,-0.352006,0.54858,1.072928,44.341068,-8.612524,10.365662,4.63583E+18,0.78272,0.046769,0.61986,0.030602,-9.00086,2.173573,5.283495,-0.787024,0.58642,0.048971,44.721762,-16.874879,1.894963,4.63582E+18,0.519593,-0.524379,0.490039,0.463585,-9.208267,3.150922,-1.847821,-0.218182,-0.398925,-0.06981,44.269807,14.779303,1.588927,4.63583E+18,0.454572,0.581916,0.45078,-0.501533,0
-11.693067,1.695036,2.135329,-0.391027,0.597511,0.815447,44.136556,-8.902326,10.477801,4.63583E+18,0.781074,0.047536,0.621675,0.034403,-9.063843,1.514597,1.940371,-0.943086,0.660419,-0.047489,44.754248,-16.79918,2.215033,4.63582E+18,0.516221,-0.527745,0.489583,0.464015,-8.961525,2.354111,-1.741808,-0.224929,-0.389425,-0.190802,44.251846,14.774816,1.307483,4.63583E+18,0.455406,0.580299,0.451022,-0.502431,0
-10.929187,2.823262,1.061701,-0.455451,0.430467,0.501935,44.033609,-9.086936,10.65712,4.63583E+18,0.779907,0.047305,0.622989,0.037317,-10.295224,-0.285861,-0.998646,-0.822523,0.6216,-0.067962,44.972175,-16.846216,2.465895,4.63582E+18,0.513222,-0.530806,0.489221,0.464232,-8.906901,2.299472,-1.479703,-0.241623,-0.368401,-0.294799,44.097005,14.817844,1.27213,4.63583E+18,0.45602,0.578498,0.451589,-0.503442,0
-10.15176,3.312891,0.385895,-0.496499,0.157201,0.240595,44.079428,-9.178463,10.703607,4.63583E+18,0.779491,0.046306,0.623454,0.039435,-11.175726,-2.46313,-2.531805,-0.485239,0.521507,-0.020172,44.990233,-16.789445,2.430959,4.63582E+18,0.511076,-0.532848,0.489394,0.464078,-9.276162,2.348336,-1.075016,-0.293496,-0.348895,-0.39176,44.056519,15.015041,1.36335,4.63583E+18,0.456517,0.576454,0.452532,-0.504488,0
-9.692602,3.569948,0.211324,-0.584697,-0.01358,0.086761,43.964169,-9.331067,10.477712,4.63583E+18,0.779557,0.044649,0.623375,0.04125,-10.613728,-3.282101,-3.119038,-0.145137,0.43882,0.055889,44.799386,-16.718086,2.403168,4.63582E+18,0.509704,-0.533847,0.490213,0.463574,-9.910275,2.248777,-0.686941,-0.399273,-0.334504,-0.458839,44.050098,15.208444,1.256172,4.63583E+18,0.457096,0.574108,0.453883,-0.505423,0
-9.510307,3.831645,0.21516,-0.698989,-0.113506,0.004661,43.934444,-9.501967,10.355678,4.63583E+18,0.779912,0.042426,0.622962,0.043077,-9.734313,-3.305539,-3.029862,0.050946,0.369162,0.128517,44.752342,-16.921401,2.605593,4.63582E+18,0.508769,-0.534145,0.491421,0.462977,-10.532814,2.172285,-0.383676,-0.583231,-0.335224,-0.490834,44.037892,15.322189,0.968999,4.63583E+18,0.458044,0.571346,0.455692,-0.506067,0
-9.554588,3.991068,0.160217,-0.876363,-0.175447,0.00187,43.934444,-9.662935,10.577737,4.63583E+18,0.780452,0.03963,0.622309,0.045345,-9.366474,-3.103996,-2.482955,0.146209,0.300581,0.201151,44.726148,-17.188025,2.891457,4.63582E+18,0.508046,-0.533959,0.492827,0.462491,-10.988452,2.083678,-0.160065,-0.818035,-0.351356,-0.51051,44.025685,15.485302,0.881459,4.63583E+18,0.459533,0.568056,0.458006,-0.506333,0
-9.818554,3.877384,0.106817,-1.085763,-0.165898,0.059813,43.736085,-9.494319,10.62273,4.63583E+18,0.780977,0.036302,0.621626,0.048346,-9.197354,-2.528268,-1.59,0.174788,0.261081,0.266525,44.648541,-17.188025,2.919271,4.63582E+18,0.507342,-0.533501,0.494348,0.46217,-11.081797,1.629058,-0.349279,-1.021241,-0.341991,-0.533162,43.942865,15.716611,1.126764,4.63583E+18,0.461426,0.564342,0.46081,-0.50622,0
-10.054329,3.458496,0.057984,-1.210014,-0.130914,0.112558,43.095163,-9.121207,10.223686,4.63583E+18,0.781403,0.0327,0.621009,0.051846,-9.158207,-1.650354,-0.719172,0.125927,0.265675,0.313896,44.56746,-17.249121,2.891445,4.63582E+18,0.506428,-0.533055,0.495886,0.462038,-10.746654,0.80038,-0.912676,-1.130465,-0.290964,-0.560988,43.789966,15.904237,1.40889,4.63583E+18,0.463407,0.560457,0.463996,-0.505816,0
-10.194691,2.843654,-0.149506,-1.302326,-0.136921,0.153874,42.620682,-8.84735,9.904059,4.63583E+18,0.781825,0.028905,0.62033,0.055718,-9.294258,-0.962435,-0.204751,0.035228,0.294283,0.347767,44.489852,-17.389476,3.024017,4.63582E+18,0.505187,-0.532785,0.497383,0.4621,-10.094665,0.103087,-1.562148,-1.130972,-0.215758,-0.581964,43.708292,15.979491,1.398824,4.63583E+18,0.465185,0.556674,0.467364,-0.50526,0
-10.177937,2.127349,-0.373789,-1.367746,-0.216273,0.196861,42.413906,-8.662727,9.841459,4.63583E+18,0.782427,0.025027,0.619351,0.059889,-9.433726,-0.455049,0.351629,-0.037186,0.324349,0.367675,44.404403,-17.474924,3.214963,4.63582E+18,0.503684,-0.532681,0.498845,0.462285,-9.54897,-0.095774,-2.148865,-1.052074,-0.12458,-0.584618,43.702503,16.062924,1.306192,4.63583E+18,0.466583,0.553217,0.470737,-0.504637,0
-9.990301,1.43458,-0.355563,-1.398065,-0.319811,0.209422,42.453507,-8.630634,9.839167,4.63583E+18,0.783268,0.021109,0.618003,0.064168,-9.376968,-0.049591,0.969707,-0.145986,0.375011,0.371943,44.353857,-17.586545,3.336984,4.63582E+18,0.501825,-0.532891,0.500209,0.46259,-9.221274,0.676937,-2.528038,-1.002484,-0.007787,-0.580511,43.619081,16.298617,1.40245,4.63583E+18,0.467635,0.550097,0.474211,-0.503821,0
-9.711051,0.929386,-0.014581,-1.348684,-0.35095,0.174852,42.469555,-9.1066,9.710259,4.63583E+18,0.784168,0.017273,0.616548,0.068203,-9.239279,0.251993,1.089878,-0.283315,0.432685,0.362786,44.361702,-17.719062,3.41026,4.63582E+18,0.499556,-0.533516,0.501404,0.463032,-9.204221,2.780103,-2.584216,-1.166932,0.072387,-0.556424,43.453978,16.648699,1.540635,4.63583E+18,0.468942,0.546858,0.47812,-0.502435,0
-9.636226,0.396134,0.150272,-1.295477,-0.243376,0.130193,42.667856,-9.543785,9.46234,4.63583E+18,0.784775,0.013465,0.615442,0.071962,-9.554957,0.100247,0.592881,-0.405749,0.460524,0.345621,44.361702,-17.804503,3.59771,4.63582E+18,0.496987,-0.53448,0.502378,0.463628,-9.192336,7.182843,-2.803466,-1.590557,0.131942,-0.545809,43.334406,16.834009,1.689626,4.63583E+18,0.4711,0.542917,0.482989,-0.500028,0
-9.909255,-0.510118,0.012267,-1.279977,-0.103387,0.10008,42.961574,-9.222843,9.233442,4.63583E+18,0.785008,0.009589,0.614782,0.07559,-10.16266,-0.258969,-0.126428,-0.453581,0.446257,0.332499,44.361702,-17.920466,3.727618,4.63582E+18,0.494364,-0.535539,0.503195,0.464325,-8.934747,11.198223,-4.700061,-2.216032,0.256178,-0.643573,43.26758,16.872503,2.083819,4.63583E+18,0.474183,0.537773,0.489592,-0.496236,0
-10.498868,-1.280723,-0.09381,-1.242141,0.002898,0.079451,42.761136,-8.932866,9.023644,4.63583E+18,0.784953,0.005752,0.614464,0.079057,-10.385014,-0.443826,-0.656582,-0.392927,0.416731,0.336848,44.305026,-18.09137,3.735465,4.63582E+18,0.491926,-0.536401,0.504073,0.464966,-9.192853,9.816664,-7.870507,-2.92486,0.357453,-0.717523,43.129567,16.984233,2.856399,4.63583E+18,0.478434,0.53122,0.497965,-0.490854,0
-11.08631,-1.723334,-0.179251,-1.171264,0.017026,0.050687,42.63211,-9.620486,8.865703,4.63583E+18,0.78485,0.002069,0.6142,0.082247,-10.299559,-0.52142,-0.740301,-0.23935,0.367599,0.348292,44.146338,-18.231752,3.835726,4.63582E+18,0.48991,-0.536826,0.505168,0.465415,-9.058649,6.445342,-9.829506,-3.409405,0.415062,-0.597385,42.954118,17.092232,3.609711,4.63583E+18,0.483793,0.52397,0.507086,-0.484008,0
-11.491579,-2.091879,-0.274623,-1.080474,-0.117556,0.060475,43.54787,-10.732075,8.719204,4.63583E+18,0.78507,-0.001245,0.613513,0.085235,-10.358838,-0.642634,-0.626936,-0.061213,0.296955,0.352641,44.044312,-18.317198,4.085967,4.63582E+18,0.488432,-0.536739,0.506471,0.465653,-8.804439,5.157103,-9.204148,-3.531658,0.457711,-0.353734,42.974408,17.043602,4.080795,4.63583E+18,0.489714,0.516962,0.515899,-0.476212,0
-11.64962,-2.329216,-0.233505,-1.014238,-0.282905,0.117862,43.95187,-11.009513,8.533078,4.63583E+18,0.785678,-0.004135,0.612296,0.088242,-10.36324,-0.390725,-0.669651,0.100161,0.234006,0.355617,44.074819,-18.459307,4.215912,4.63582E+18,0.487441,-0.536193,0.507963,0.465696,-9.633036,5.150471,-6.602067,-3.424761,0.463359,-0.076557,43.113234,16.929809,4.613128,4.63583E+18,0.495835,0.51067,0.523805,-0.467966,0
-11.343187,-2.070881,-0.031408,-0.981309,-0.430252,0.139854,43.073679,-10.369105,8.407146,4.63583E+18,0.786639,-0.006807,0.610597,0.091239,-10.138293,0.310291,-0.715013,0.171366,0.209127,0.342881,44.103618,-18.703443,4.223762,4.63582E+18,0.486686,-0.535479,0.509511,0.465616,-10.261872,6.365976,-3.757091,-3.269389,0.452008,0.169808,43.09483,16.933527,5.32943,4.63583E+18,0.502031,0.505114,0.530757,-0.45948,0
-10.801577,-1.813689,0.319474,-0.920781,-0.544763,0.164613,42.929575,-10.544687,8.247721,4.63583E+18,0.787868,-0.009172,0.608533,0.094165,-9.938595,0.768204,-0.605193,0.112948,0.219042,0.310687,44.026021,-18.834297,4.223762,4.63582E+18,0.485842,-0.534969,0.510891,0.465571,-10.483224,7.544949,-2.364759,-3.147717,0.445979,0.341557,43.005445,16.884925,6.092654,4.63583E+18,0.50822,0.500089,0.537006,-0.45083,0
-10.108887,-1.205099,0.648345,-0.842879,-0.544235,0.163765,43.926917,-11.492682,8.007434,4.63583E+18,0.789085,-0.011283,0.606489,0.096889,-9.823509,0.648803,-0.324465,-0.009123,0.241013,0.276276,43.940569,-18.726199,4.289113,4.63582E+18,0.484745,-0.534821,0.512,0.465666,-10.605766,7.435659,-2.691679,-3.027605,0.460512,0.472047,43.123333,16.521052,6.810381,4.63583E+18,0.514282,0.495552,0.542697,-0.442065,0
-9.368899,-0.340864,0.608923,-0.840822,-0.47004,0.161491,44.283016,-11.892906,7.651997,4.63583E+18,0.790103,-0.013422,0.604679,0.099597,-9.698807,0.410745,-0.038395,-0.132952,0.267565,0.245683,43.889972,-18.733908,4.511422,4.63582E+18,0.483375,-0.535039,0.512851,0.465903,-10.245212,6.462885,-3.591943,-2.842253,0.49451,0.617833,43.353424,15.933246,7.481788,4.63583E+18,0.520071,0.491728,0.547733,-0.433264,0
-8.653995,0.384077,0.476941,-0.863781,-0.394996,0.160423,44.055203,-11.879378,7.432142,4.63583E+18,0.790919,-0.015669,0.603097,0.102354,-9.652559,0.240714,-0.062691,-0.22452,0.284659,0.21692,43.871691,-19.067838,4.704205,4.63582E+18,0.48182,-0.535534,0.513493,0.466239,-9.967652,5.339623,-3.74178,-2.548425,0.533975,0.798532,43.420503,15.387643,8.108273,4.63583E+18,0.52542,0.488956,0.551879,-0.4246,0
-8.243277,0.978498,0.412032,-0.893552,-0.350111,0.174964,43.99548,-11.994431,7.397686,4.63583E+18,0.791601,-0.017996,0.60164,0.10523,-9.72923,0.124715,-0.267636,-0.256131,0.288325,0.189456,43.794094,-19.287697,4.537867,4.63582E+18,0.480239,-0.536156,0.514016,0.466577,-10.108071,4.909832,-2.740049,-2.177123,0.55672,1.004704,43.371676,14.950045,8.591625,4.63583E+18,0.530263,0.487456,0.554933,-0.416242,0
-8.317689,1.373825,0.442481,-0.93493,-0.319465,0.224334,44.183754,-12.093656,7.090502,4.63583E+18,0.792169,-0.020348,0.600258,0.108369,-9.891413,0.081098,-0.406261,-0.23128,0.28093,0.163284,43.743479,-19.31382,4.223762,4.63582E+18,0.478781,-0.536769,0.514512,0.466825,-10.345195,5.334432,-1.307827,-1.810462,0.558534,1.219294,43.399773,14.470273,8.982262,4.63583E+18,0.534678,0.487218,0.556867,-0.408212,0
-8.65704,1.589107,0.352585,-0.993462,-0.346116,0.286147,44.286876,-12.119653,6.791352,4.63583E+18,0.792756,-0.022724,0.598756,0.111859,-9.963887,-0.000771,-0.526626,-0.164083,0.264833,0.142302,43.751335,-19.365295,4.328253,4.63582E+18,0.477548,-0.53726,0.515057,0.466922,-10.513636,5.964885,-0.544435,-1.514667,0.549775,1.415016,43.548706,13.844057,9.417744,4.63583E+18,0.538801,0.48804,0.557834,-0.400415,0
-9.075105,1.534405,0.339509,-1.056282,-0.419451,0.337897,44.300667,-12.320129,6.669124,4.63583E+18,0.793479,-0.025144,0.596973,0.115683,-9.868019,-0.138635,-0.595517,-0.079991,0.24858,0.11896,43.690381,-19.342673,4.582047,4.63582E+18,0.476583,-0.537601,0.51568,0.466827,-10.513936,6.212959,-0.740051,-1.29244,0.536958,1.5714,43.737593,13.186768,9.848917,4.63583E+18,0.54272,0.489665,0.558041,-0.392777,0
-9.442842,1.305681,0.530031,-1.079416,-0.479811,0.386155,44.241226,-12.633576,6.435091,4.63583E+18,0.794307,-0.027489,0.594968,0.119727,-9.744156,0.001523,-0.695731,-0.025196,0.236524,0.08974,43.549956,-19.287697,4.69985,4.63582E+18,0.475825,-0.537873,0.516317,0.466584,-10.275922,5.957869,-1.57129,-1.11033,0.533112,1.682991,43.965546,12.519372,10.18827,4.63583E+18,0.546417,0.491919,0.557671,-0.385288,0
-9.588824,1.069126,0.613377,-1.110641,-0.499815,0.422088,44.286865,-12.90375,5.998093,4.63583E+18,0.795141,-0.029836,0.592868,0.123968,-9.687476,0.386077,-0.82745,-0.006251,0.226224,0.059073,43.525443,-19.374744,4.739021,4.63582E+18,0.475191,-0.538152,0.516901,0.466261,-9.966761,5.333796,-2.523188,-0.928827,0.54972,1.760889,44.195663,11.734451,10.481247,4.63583E+18,0.549789,0.494758,0.556847,-0.37798,0
-9.597319,0.827273,0.424429,-1.166696,-0.496828,0.448266,44.231314,-13.021407,5.680512,4.63583E+18,0.795924,-0.032304,0.590735,0.12843,-9.673466,0.545934,-0.871078,-0.02584,0.214326,0.028933,43.610896,-19.562311,4.879355,4.63582E+18,0.474599,-0.538511,0.517354,0.465947,-9.768691,4.648068,-3.090556,-0.746557,0.59599,1.823185,44.390969,10.87358,10.780613,4.63583E+18,0.552735,0.498196,0.555673,-0.370827,0
-9.575202,0.622736,0.209983,-1.231054,-0.500823,0.462432,44.017041,-13.235679,5.568161,4.63583E+18,0.796675,-0.034947,0.588535,0.133095,-9.696182,0.460378,-0.857174,-0.062314,0.189546,0.006799,43.604956,-19.560723,5.000684,4.63582E+18,0.474022,-0.538942,0.517636,0.465724,-9.621605,4.293981,-3.2792,-0.616234,0.655083,1.867917,44.535026,10.135027,11.079375,4.63583E+18,0.555302,0.502094,0.554299,-0.363723,0
-9.590425,0.576045,0.279915,-1.275408,-0.490757,0.447302,43.842235,-13.489767,5.177785,4.63583E+18,0.797376,-0.037776,0.586321,0.137813,-9.645663,0.506545,-0.917967,-0.099379,0.155432,-0.010892,43.468871,-19.458601,4.892757,4.63582E+18,0.47347,-0.539417,0.517738,0.465621,-9.494946,4.325645,-3.308206,-0.569672,0.7067,1.892673,44.639085,9.467651,11.321091,4.63583E+18,0.557648,0.506198,0.552881,-0.356533,0
-9.803112,0.474656,0.582642,-1.292383,-0.47167,0.419004,43.93128,-13.676739,4.704029,4.63583E+18,0.798016,-0.04074,0.584134,0.142472,-9.600215,0.444066,-1.11607,-0.140212,0.136808,-0.036602,43.478295,-19.428145,4.742514,4.63582E+18,0.472917,-0.539992,0.517664,0.465598,-9.262793,4.33642,-3.327421,-0.580689,0.75028,1.906907,44.748946,8.721234,11.522803,4.63583E+18,0.559895,0.510335,0.551507,-0.349164,0
-10.059436,0.263427,0.815423,-1.289394,-0.497324,0.392567,43.958858,-13.837714,4.396429,4.63583E+18,0.798707,-0.04374,0.581838,0.147035,-9.73605,0.131882,-1.108343,-0.165699,0.12011,-0.059043,43.580429,-19.403602,4.936722,4.63582E+18,0.472387,-0.540633,0.517457,0.465623,-8.960016,4.067639,-3.434495,-0.623592,0.793725,1.903578,44.820384,7.895127,11.8264,4.63583E+18,0.562084,0.514388,0.550261,-0.341583,0
-10.196908,-0.067617,0.884244,-1.262176,-0.573526,0.36693,43.899409,-14.075691,4.276475,4.63583E+18,0.799575,-0.046663,0.579278,0.151457,-9.955065,-0.04448,-1.063726,-0.177165,0.091051,-0.070338,43.549983,-19.458601,5.188147,4.63582E+18,0.471917,-0.541264,0.517143,0.465716,-8.748493,3.888359,-3.592589,-0.706544,0.835119,1.881392,44.895434,7.034806,12.268275,4.63583E+18,0.564279,0.518215,0.549232,-0.333747,0
-10.128417,-0.51082,0.762325,-1.231865,-0.658113,0.376842,43.875708,-14.322143,3.883845,4.63583E+18,0.800619,-0.049404,0.576437,0.15585,-9.931791,0.046007,-1.136967,-0.167713,0.056946,-0.083449,43.494976,-19.458601,5.118564,4.63582E+18,0.471568,-0.541838,0.516749,0.465839,-8.60962,4.009433,-3.630201,-0.832964,0.868632,1.831768,44.928447,6.173937,12.711712,4.63583E+18,0.566554,0.521635,0.54852,-0.325637,0
-9.939299,-0.845856,0.702721,-1.217564,-0.676602,0.402801,43.873409,-14.447375,3.410102,4.63583E+18,0.801665,-0.052021,0.573527,0.160294,-9.781642,0.273582,-1.166726,-0.158847,0.027947,-0.107474,43.612372,-19.428166,4.962392,4.63582E+18,0.471349,-0.542389,0.51626,0.465961,-8.550986,3.88978,-3.537151,-0.972113,0.895124,1.768505,44.923844,5.345681,13.114533,4.63583E+18,0.568938,0.524575,0.54815,-0.317273,0
-9.771423,-0.913254,0.804791,-1.217286,-0.632132,0.413233,43.675284,-14.792679,3.033132,4.63583E+18,0.80257,-0.054638,0.570746,0.164757,-9.826794,0.393312,-1.148332,-0.160603,0.005589,-0.137455,43.824577,-19.37315,4.972596,4.63582E+18,0.471233,-0.542965,0.515655,0.466078,-8.481157,3.28968,-3.47911,-1.086523,0.918114,1.711389,44.909842,4.597067,13.45973,4.63583E+18,0.571395,0.5271,0.548064,-0.308705,0
-9.751415,-0.717412,1.028247,-1.198617,-0.601724,0.404039,43.629261,-15.007318,2.738534,4.63583E+18,0.803386,-0.057232,0.568058,0.169134,-9.97161,0.288795,-1.167563,-0.155584,-0.01813,-0.166456,43.763706,-19.342714,5.090487,4.63582E+18,0.471236,-0.543546,0.514946,0.466181,-8.391099,2.808142,-3.472708,-1.17817,0.943293,1.646938,44.822605,3.850667,13.810307,4.63583E+18,0.573864,0.529247,0.548251,-0.299999,0
-9.941911,-0.394066,1.252543,-1.190722,-0.641296,0.413757,43.748121,-15.049426,2.447907,4.63583E+18,0.804263,-0.059747,0.565225,0.173528,-9.999706,0.223073,-1.129271,-0.148692,-0.047276,-0.191476,43.653675,-19.226832,4.986149,4.63582E+18,0.471366,-0.544111,0.514135,0.466286,-8.28525,2.71064,-3.383679,-1.257355,0.968316,1.576493,44.738941,3.101403,14.20675,4.63583E+18,0.576312,0.53103,0.548704,-0.291198,0
-10.04509,-0.081958,1.402947,-1.196851,-0.738245,0.422645,43.775749,-15.051728,2.085574,4.63583E+18,0.805333,-0.062187,0.562043,0.177986,-9.919441,0.391283,-1.135102,-0.167052,-0.072003,-0.223429,43.6841,-19.116793,4.762738,4.63582E+18,0.471571,-0.544731,0.513165,0.466422,-8.093963,2.59423,-3.173784,-1.313794,0.987893,1.516029,44.690114,2.387612,14.603763,4.63583E+18,0.578716,0.532518,0.549358,-0.282344,0
-9.920233,0.054823,1.4976,-1.207995,-0.828585,0.437055,43.577653,-15.121062,1.786411,4.63583E+18,0.80657,-0.064561,0.558531,0.182534,-9.896689,0.468421,-1.297307,-0.198569,-0.098074,-0.263709,43.708703,-19.147215,4.734618,4.63582E+18,0.471839,-0.545448,0.51199,0.466606,-7.990042,2.24129,-2.866241,-1.348117,0.997194,1.468173,44.641287,1.679623,14.955382,4.63583E+18,0.581068,0.53378,0.550134,-0.27348,0
-9.600766,0.15248,1.682095,-1.235344,-0.847505,0.458276,43.462268,-15.206511,1.347175,4.63583E+18,0.807795,-0.066959,0.554917,0.187216,-9.895033,0.409667,-1.382955,-0.211584,-0.142605,-0.303461,43.649331,-19.115355,4.867022,4.63582E+18,0.472249,-0.546187,0.51061,0.466839,-8.00225,1.879203,-2.480198,-1.389385,0.989197,1.426057,44.50924,0.933143,15.260586,4.63583E+18,0.583432,0.534791,0.550984,-0.264617,0
-9.316109,0.230324,1.97873,-1.274116,-0.811715,0.486771,43.505569,-15.499924,0.811713,4.63583E+18,0.80887,-0.069446,0.551377,0.192066,-9.863582,0.649008,-1.410665,-0.202876,-0.202325,-0.343956,43.671872,-18.866883,4.888582,4.63582E+18,0.472884,-0.546877,0.509034,0.467109,-7.988856,1.675256,-2.122777,-1.442737,0.971599,1.408431,44.346531,0.190324,15.610552,4.63583E+18,0.585886,0.535567,0.551841,-0.25569,0
-9.176281,0.303573,2.236721,-1.313842,-0.778982,0.506282,43.519394,-15.831853,0.331669,4.63583E+18,0.809808,-0.072044,0.547895,0.197056,-9.811459,1.009467,-1.567487,-0.227796,-0.263917,-0.396203,43.783385,-18.671337,4.526107,4.63582E+18,0.473694,-0.547605,0.507166,0.467467,-7.753872,1.349023,-1.907212,-1.471554,0.951151,1.43683,44.218072,-0.434439,16.007543,4.63583E+18,0.588429,0.53627,0.552567,-0.24665,0
-9.106042,0.357001,2.461023,-1.349891,-0.788935,0.512972,43.450078,-16.101984,-0.043014,4.63583E+18,0.810716,-0.074735,0.544327,0.202145,-9.660634,1.039741,-1.848014,-0.310472,-0.308726,-0.456017,43.972477,-18.585888,4.181153,4.63582E+18,0.474525,-0.548532,0.504909,0.467981,-7.466798,1.002093,-1.779329,-1.472313,0.923173,1.491461,44.128582,-1.11175,16.308005,4.63583E+18,0.591041,0.53702,0.553053,-0.237514,0
-9.035106,0.41573,2.700549,-1.381673,-0.781303,0.53024,43.364629,-16.348426,-0.406914,4.63583E+18,0.811544,-0.077497,0.540736,0.207353,-9.666949,0.753831,-2.095331,-0.384253,-0.358173,-0.50747,44.186212,-18.470048,4.126102,4.63582E+18,0.47539,-0.549611,0.502287,0.468658,-7.411071,0.884153,-1.657263,-1.477049,0.89449,1.530663,44.124542,-1.981959,16.617888,4.63583E+18,0.593713,0.537773,0.553334,-0.228311,0
-8.961854,0.46687,2.915013,-1.397055,-0.724957,0.548804,43.338585,-16.602501,-0.931616,4.63583E+18,0.812186,-0.080312,0.537301,0.212631,-9.893976,0.649202,-2.083124,-0.410764,-0.436076,-0.538848,44.28846,-18.303487,4.056629,4.63582E+18,0.476414,-0.550651,0.499381,0.469502,-7.408719,0.90511,-1.586375,-1.482538,0.872214,1.539098,44.077997,-2.88349,16.96953,4.63583E+18,0.596403,0.538461,0.553496,-0.219103,0
-8.85891,0.575107,3.003701,-1.420934,-0.634477,0.566961,43.395693,-16.72021,-1.503016,4.63583E+18,0.812563,-0.083243,0.534131,0.217983,-9.805761,0.90391,-2.218531,-0.444238,-0.496716,-0.576474,44.28846,-18.140456,3.791853,4.63582E+18,0.477556,-0.551711,0.496196,0.470474,-7.443056,0.901586,-1.421217,-1.472565,0.860824,1.509636,43.866358,-3.628665,17.274714,4.63583E+18,0.599014,0.539047,0.553635,-0.209996,0
-8.818357,0.608064,2.89641,-1.459767,-0.56867,0.58512,43.270903,-16.746252,-1.997539,4.63583E+18,0.812725,-0.086319,0.531128,0.223451,-9.61998,0.716422,-2.304477,-0.515964,-0.530965,-0.640107,44.314503,-17.939181,3.435972,4.63582E+18,0.478723,-0.552968,0.492647,0.47154,-7.456966,0.5341,-1.262587,-1.44708,0.852634,1.470173,43.535017,-4.384946,17.535104,4.63583E+18,0.6015,0.539552,0.553772,-0.201045,0
-8.774139,0.531158,2.789527,-1.489295,-0.54631,0.586817,43.040589,-16.94659,-2.226088,4.63583E+18,0.812786,-0.089507,0.528147,0.228972,-9.92732,-0.087065,-1.855263,-0.564338,-0.576775,-0.687317,44.413784,-17.596034,3.173387,4.63582E+18,0.479958,-0.554319,0.488793,0.472707,-7.486091,-0.337573,-0.797223,-1.398843,0.85712,1.408801,43.251913,-5.175052,17.850866,4.63583E+18,0.603765,0.539995,0.55397,-0.192331,0
-8.764915,0.294929,2.632492,-1.522057,-0.495181,0.614131,42.865784,-17.200589,-2.555346,4.63583E+18,0.812656,-0.09279,0.525291,0.234627,-10.172584,-0.549045,-1.59836,-0.556439,-0.641309,-0.70519,44.564603,-17.182353,2.974556,4.63582E+18,0.481369,-0.555552,0.484774,0.473963,-7.377728,-0.150318,-0.832362,-1.371606,0.844982,1.348288,43.172376,-5.844239,18.2474,4.63583E+18,0.6059,0.540315,0.554208,-0.183844,0
-8.834206,0.105567,2.21413,-1.572692,-0.442297,0.637917,42.835777,-17.387642,-2.93145,4.63583E+18,0.812325,-0.096237,0.522545,0.240442,-9.816717,-0.563738,-1.492311,-0.486564,-0.705945,-0.724675,44.753673,-17.01712,2.717679,4.63582E+18,0.483101,-0.556543,0.480707,0.475177,-7.649202,6.280552,-1.264949,-1.527085,0.773596,0.738862,43.11299,-6.389935,18.43958,4.63583E+18,0.608041,0.538745,0.555719,-0.176683,0
-9.068137,0.112839,2.015203,-1.616774,-0.419608,0.612508,42.637804,-17.548647,-3.220791,4.63583E+18,0.81191,-0.099905,0.519793,0.246245,-9.521197,-0.26914,-1.355832,-0.3989,-0.768798,-0.770793,44.941411,-16.986746,2.296668,4.63582E+18,0.485245,-0.557314,0.476567,0.476259,-10.048363,5.085143,-0.807611,-2.04597,0.724101,0.007114,42.921711,-6.865999,18.355791,4.63583E+18,0.610879,0.534092,0.559089,-0.170272,0
-9.514829,0.250741,2.078884,-1.633313,-0.532625,0.570999,42.453066,-17.717226,-3.578405,4.63583E+18,0.811731,-0.103597,0.516593,0.251977,-10.02352,-0.057507,-1.557321,-0.352682,-0.847407,-0.830085,45.022519,-16.784155,1.885679,4.63582E+18,0.487758,-0.557938,0.472211,0.477299,-10.047303,-11.259246,-1.479884,-2.173223,0.622382,-0.055133,42.734559,-7.303713,18.325686,4.63583E+18,0.61414,0.528853,0.562381,-0.163934,0
-10.022908,0.320359,2.327308,-1.628406,-0.68961,0.536068,42.41083,-17.828742,-4.263639,4.63583E+18,0.811881,-0.107175,0.512822,0.257634,-10.556678,-0.051556,-2.083812,-0.353096,-0.933594,-0.884177,45.095759,-16.369134,1.592724,4.63582E+18,0.490535,-0.558482,0.467537,0.478416,-7.176965,-17.186833,-0.79442,-1.543781,0.604173,-0.230744,42.626477,-7.533743,18.525732,4.63583E+18,0.615895,0.524764,0.565544,-0.159548,0
-10.268395,0.39888,2.291369,-1.613799,-0.825584,0.504687,42.467901,-17.916505,-4.713685,4.63583E+18,0.812315,-0.110617,0.508561,0.263199,-10.604702,0.300108,-2.60117,-0.377533,-1.004753,-0.95011,45.169004,-16.010473,1.265045,4.63582E+18,0.493509,-0.559044,0.4625,0.479596,-8.389286,-14.414963,1.467726,-1.11171,0.652932,-0.755475,42.636422,-7.56859,18.761103,4.63583E+18,0.616214,0.520558,0.569668,-0.157412,0
-10.283258,0.652527,2.11226,-1.617693,-0.979249,0.422635,42.35313,-17.932676,-5.092041,4.63583E+18,0.813112,-0.11407,0.503705,0.26855,-10.746219,1.018527,-2.972832,-0.349395,-1.097005,-1.04028,45.216221,-15.723768,0.735634,4.63582E+18,0.496889,-0.559515,0.457101,0.480732,-10.38379,-17.786749,2.699919,-1.050992,0.570504,-1.2426,42.677082,-7.485415,18.899416,4.63583E+18,0.616248,0.515274,0.57457,-0.156842,0
-10.32811,0.72782,2.213795,-1.645288,-1.224997,0.355475,42.174637,-17.942571,-5.856412,4.63583E+18,0.81443,-0.117473,0.497917,0.27383,-11.113215,1.189915,-3.144372,-0.306278,-1.207494,-1.135478,45.268256,-15.269245,-0.006553,4.63582E+18,0.50075,-0.55983,0.451315,0.481824,-10.316431,-20.15312,1.476258,-0.936264,0.507267,-1.715415,42.587519,-7.166792,18.894711,4.63583E+18,0.615841,0.509081,0.580214,-0.157886,0
-10.092308,1.13812,2.483631,-1.711961,-1.493543,0.239185,42.001432,-18.152668,-6.631711,4.63583E+18,0.816339,-0.121026,0.491043,0.278962,-11.4258,1.061714,-3.08687,-0.294598,-1.314898,-1.23254,45.419081,-14.636063,-0.612916,4.63582E+18,0.505008,-0.560058,0.445077,0.482917,-13.154537,-11.383684,-3.225412,-0.407921,0.499076,-1.722204,42.544563,-6.619744,18.937795,4.63583E+18,0.614288,0.504189,0.585466,-0.16023,0
-9.559562,1.490198,2.746919,-1.77634,-1.654492,0.116003,41.899794,-18.280392,-7.309398,4.63583E+18,0.818611,-0.124851,0.483437,0.283862,-11.583684,1.115553,-3.074325,-0.292573,-1.427284,-1.320529,45.634123,-14.106515,-1.066489,4.63582E+18,0.509626,-0.560183,0.438373,0.484052,-18.788089,5.748389,-4.660234,0.153584,0.515875,-1.286091,42.662588,-6.11232,19.217455,4.63583E+18,0.611776,0.501785,0.589442,-0.162784,0
-8.676871,1.817453,2.736137,-1.837421,-1.86631,0.005499,41.804457,-18.170288,-8.136716,4.63583E+18,0.821319,-0.128841,0.474924,0.288587,-11.730951,0.666508,-3.536015,-0.318731,-1.508161,-1.392738,45.864802,-13.739977,-1.487419,4.63582E+18,0.514441,-0.560291,0.431244,0.485235,-21.614669,12.580771,-1.359766,-0.023169,0.578743,-0.993358,42.693347,-5.715922,19.493502,4.63583E+18,0.609661,0.499679,0.593069,-0.164022,0
-7.902785,2.107474,3.117962,-1.971016,-2.106344,-0.124888,41.706799,-17.892882,-9.161706,4.63583E+18,0.82448,-0.13324,0.465296,0.293222,-11.975543,-0.184425,-4.66347,-0.354385,-1.52821,-1.451418,45.938049,-13.396928,-2.037207,4.63582E+18,0.519289,-0.560497,0.423828,0.486366,-17.839003,4.647975,1.140534,-0.457272,0.635854,-0.909095,42.563144,-5.370091,19.580675,4.63583E+18,0.608351,0.496706,0.596947,-0.163848,0
-7.427554,2.200281,4.18004,-1.936383,-2.128946,-0.238902,41.539892,-17.647053,-10.223751,4.63583E+18,0.827726,-0.137693,0.455502,0.297368,-12.535943,-0.603289,-5.478005,-0.362,-1.548167,-1.507647,46.037288,-12.749131,-2.686102,4.63582E+18,0.524227,-0.560733,0.416187,0.487395,-12.359419,-2.490501,2.053214,-0.380435,0.648162,-0.799723,42.526529,-5.103259,19.823695,4.63583E+18,0.606912,0.494197,0.600563,-0.163558,0
-6.775075,2.45686,4.298052,-1.879183,-2.001426,-0.280335,41.42603,-17.47447,-11.12751,4.63583E+18,0.830702,-0.142166,0.446131,0.301149,-13.188751,-0.470119,-5.376281,-0.394604,-1.592164,-1.561294,46.127444,-11.920242,-3.276391,4.63582E+18,0.529229,-0.560994,0.408222,0.488423,-10.458829,-1.018675,2.222313,-0.1475,0.618352,-0.720493,42.611982,-4.948062,20.191646,4.63583E+18,0.60511,0.492446,0.60377,-0.163709,0
-5.839608,2.504833,3.253756,-1.954079,-1.978928,-0.257499,41.33827,-17.187198,-11.994152,4.63583E+18,0.833453,-0.146864,0.436698,0.305095,-13.56015,-0.084237,-4.230587,-0.436664,-1.685462,-1.625526,46.084902,-11.309501,-3.939553,4.63582E+18,0.534374,-0.561214,0.399776,0.489554,-10.701213,3.653283,1.427752,-0.228216,0.54237,-0.69252,42.441675,-4.747533,20.33172,4.63583E+18,0.603674,0.490504,0.606773,-0.163738,0
-4.949744,2.255235,2.718489,-1.942779,-1.946592,-0.186103,41.173691,-16.810464,-12.870749,4.63583E+18,0.835951,-0.151413,0.427376,0.309208,-15.008682,1.022126,-0.885867,-0.556331,-1.88678,-1.68833,46.017579,-10.778689,-4.785786,4.63582E+18,0.539646,-0.561333,0.390446,0.491161,-10.667553,5.235271,0.460424,-0.37273,0.486161,-0.623903,42.166704,-4.480709,20.337534,4.63583E+18,0.602714,0.488326,0.609584,-0.163341,0
-4.409477,1.603925,2.92593,-1.82558,-1.709361,-0.064461,41.059829,-16.548438,-13.660585,4.63583E+18,0.837845,-0.155624,0.419056,0.31335,-17.116759,1.93661,1.13718,-0.747564,-2.015079,-1.753384,46.092009,-10.162456,-5.685118,4.63582E+18,0.544746,-0.561654,0.380235,0.493171,-10.228657,2.730596,0.236001,-0.313688,0.514895,-0.547456,42.174245,-4.331888,20.43344,4.63583E+18,0.601606,0.486505,0.612264,-0.162841,0
-4.449989,0.377004,3.366628,-1.664833,-1.266216,0.043553,40.902833,-16.445071,-14.508753,4.63583E+18,0.838853,-0.159649,0.412524,0.317272,-18.689978,-0.541108,-3.191299,-0.348064,-2.141917,-1.791695,46.267634,-9.465058,-6.466392,4.63582E+18,0.550988,-0.560792,0.370415,0.49469,-10.15363,0.722012,-0.021397,-0.154602,0.555231,-0.463844,42.21147,-4.25226,20.667667,4.63583E+18,0.600122,0.485318,0.61476,-0.162452,0
-5.043839,-1.094378,3.12833,-1.49474,-0.998429,0.146961,40.603361,-16.441055,-15.128232,4.63583E+18,0.839323,-0.163244,0.407193,0.321065,-20.746681,-0.713669,-4.903065,0.311447,-2.357987,-1.655837,46.310557,-8.746426,-7.212982,4.63582E+18,0.558746,-0.557679,0.361722,0.495937,-10.345443,1.906859,-0.943264,-0.074316,0.555134,-0.374733,42.055124,-4.096492,20.954831,4.63583E+18,0.598531,0.484556,0.617015,-0.162045,0
-5.917589,-1.883759,2.755191,-1.225213,-1.165588,0.184801,40.273792,-16.245599,-15.472167,4.63583E+18,0.840165,-0.165599,0.401642,0.324629,-20.050652,3.204372,-4.658035,0.200668,-2.37298,-1.645836,46.268038,-8.079401,-7.931186,4.63582E+18,0.566168,-0.554697,0.352735,0.497336,-10.116562,3.511517,-2.012892,-0.085852,0.547909,-0.274786,41.605848,-3.793661,21.151923,4.63583E+18,0.597045,0.484015,0.619053,-0.16137,0
-6.73424,-2.041568,2.853731,-1.017341,-1.539812,0.144935,40.132078,-16.001456,-16.002459,4.63583E+18,0.841785,-0.166777,0.395011,0.327946,-18.551414,4.178676,-5.699504,-0.362534,-2.308314,-1.695219,46.114083,-7.385558,-8.751434,4.63582E+18,0.572214,-0.553168,0.342567,0.499224,-9.393484,3.177155,-3.117259,-0.116982,0.531232,-0.197366,40.843844,-3.376904,21.364049,4.63583E+18,0.595713,0.483582,0.62091,-0.160455,0
-7.369448,-2.475994,3.308417,-0.923664,-1.758854,0.053264,39.975106,-15.90564,-16.815763,4.63583E+18,0.843904,-0.167467,0.38765,0.330919,-17.555242,2.145385,-6.693632,-0.658712,-2.168272,-1.684407,45.914031,-6.663398,-9.672804,4.63582E+18,0.577275,-0.552542,0.332092,0.501165,-8.612211,1.850578,-4.433873,-0.093504,0.501883,-0.157481,40.053817,-3.00832,21.566969,4.63583E+18,0.594433,0.483288,0.622594,-0.159559,0
-7.44359,-2.753727,3.573943,-0.801924,-1.793217,-0.106832,39.734998,-15.834718,-17.751679,4.63583E+18,0.846328,-0.167929,0.380198,0.333134,-16.29663,0.570326,-6.429105,-0.660324,-1.960171,-1.637115,45.846678,-5.999973,-10.644917,4.63582E+18,0.581871,-0.552216,0.322178,0.502678,-7.965193,1.621638,-5.70982,-0.037907,0.464098,-0.148623,39.704291,-2.702579,21.61292,4.63583E+18,0.593142,0.483129,0.624126,-0.15886,0
-7.394761,-2.805382,3.613391,-0.680517,-1.693933,-0.246335,39.537965,-15.692265,-18.555552,4.63583E+18,0.848821,-0.168309,0.373143,0.334574,-14.378456,0.263913,-6.298115,-0.887228,-1.684272,-1.595948,45.747922,-5.358858,-11.444859,4.63582E+18,0.585422,-0.552899,0.312516,0.503902,-7.625628,2.464331,-6.345459,-0.042857,0.418732,-0.144409,39.902933,-2.385225,21.696554,4.63583E+18,0.591979,0.482936,0.625538,-0.158228,0
-8.018091,-2.362898,3.97912,-0.56457,-1.424952,-0.324068,39.493274,-15.543484,-19.166316,4.63583E+18,0.851043,-0.168767,0.367127,0.335353,-11.976655,-0.345235,-6.060098,-1.235728,-1.369305,-1.595164,45.491578,-4.777255,-11.87611,4.63582E+18,0.587698,-0.555033,0.302858,0.504802,-7.422791,2.789227,-6.363596,-0.114809,0.37555,-0.113754,40.050781,-2.189234,21.931335,4.63583E+18,0.591092,0.482616,0.626827,-0.157418,0
-8.740094,-1.091918,4.144147,-0.481207,-1.205483,-0.358955,39.490952,-15.387102,-19.591815,4.63583E+18,0.853007,-0.169282,0.361967,0.335713,-10.216583,-1.89281,-4.536936,-1.198413,-1.115441,-1.549104,45.347719,-4.082424,-12.315377,4.63582E+18,0.589588,-0.557499,0.293976,0.505133,-7.401654,2.431278,-6.215421,-0.191059,0.325514,-0.095214,39.862577,-2.44231,22.179566,4.63583E+18,0.590499,0.482124,0.628003,-0.156462,0
-9.151576,0.328818,3.678337,-0.439101,-1.224574,-0.349534,39.224043,-15.159204,-19.755096,4.63583E+18,0.85499,-0.169601,0.356792,0.336047,-9.202719,-3.416951,-2.526744,-0.813008,-0.960446,-1.450104,45.408756,-3.253388,-12.934102,4.63582E+18,0.591931,-0.559179,0.286493,0.504835,-7.796075,2.349477,-5.770474,-0.238989,0.272867,-0.083182,40.06776,-3.112391,22.329603,4.63583E+18,0.590147,0.481509,0.629054,-0.155456,0
-9.295655,0.825474,3.08029,-0.380714,-1.358186,-0.302841,38.894506,-14.915103,-19.934123,4.63583E+18,0.857119,-0.169449,0.351244,0.336543,-8.526245,-4.0766,-0.425142,-0.293639,-0.886066,-1.35426,45.417883,-2.672844,-13.361051,4.63582E+18,0.595161,-0.559589,0.280493,0.503951,-8.560281,2.344554,-4.971908,-0.26814,0.237653,-0.066077,41.014344,-3.836748,22.363398,4.63583E+18,0.589955,0.480844,0.630001,-0.154401,0
-9.363668,0.958003,2.65012,-0.361592,-1.371754,-0.263268,38.624191,-14.878501,-20.584102,4.63583E+18,0.859196,-0.169146,0.34569,0.33715,-9.046436,-4.565347,4.251295,0.450978,-1.054733,-1.361863,45.271894,-2.257825,-13.723199,4.63582E+18,0.600311,-0.557778,0.275605,0.502546,-9.233099,2.380808,-3.934585,-0.287118,0.232034,-0.040115,41.597007,-4.367043,22.351755,4.63583E+18,0.589832,0.480197,0.630893,-0.153243,0
-9.563082,0.55158,2.111214,-0.388506,-1.323325,-0.194086,38.437019,-14.752332,-21.202603,4.63583E+18,0.861059,-0.168901,0.340307,0.337997,-10.884185,-1.246309,10.674685,0.406085,-1.165133,-1.477086,45.045811,-1.812501,-14.181223,4.63582E+18,0.605689,-0.555946,0.270061,0.50113,-9.806091,2.98083,-2.596095,-0.302121,0.240481,-0.005818,41.43682,-4.553361,22.35814,4.63583E+18,0.589736,0.479607,0.631745,-0.151942,0
-10.338555,-0.131412,1.982249,-0.403862,-1.236656,-0.118052,38.206835,-14.524472,-21.620494,4.63583E+18,0.862654,-0.168719,0.335255,0.339067,-6.982635,6.382072,5.381198,-1.77053,-0.278842,-1.56205,44.92248,-1.195271,-14.34623,4.63582E+18,0.605157,-0.561509,0.26199,0.499854,-10.6174,3.610183,-1.222292,-0.327641,0.234599,0.040488,41.368442,-4.432048,22.459736,4.63583E+18,0.589735,0.479072,0.632503,-0.150472,0
-12.012719,-0.673747,2.412431,-0.429244,-1.323388,0.164453,37.95281,-14.418685,-22.157035,4.63583E+18,0.863926,-0.168106,0.330043,0.341238,0.265516,8.309185,-6.445909,-4.179866,0.631577,-1.900427,44.916122,-0.226894,-14.077688,4.63582E+18,0.598558,-0.575278,0.250343,0.498108,-11.436577,3.573054,-0.290597,-0.324392,0.214158,0.092235,41.48244,-4.276731,22.591764,4.63583E+18,0.589812,0.478667,0.633104,-0.148922,0
-13.364236,-0.19588,3.404153,-0.419171,-1.671408,0.312258,37.76563,-14.345441,-22.730783,4.63583E+18,0.865437,-0.166751,0.323682,0.344155,-0.758554,8.562684,-8.100421,-5.997243,1.025582,-1.900095,44.960627,1.093277,-13.813448,4.63582E+18,0.586872,-0.594087,0.235773,0.497045,-12.456873,3.343706,-0.032482,-0.260193,0.185631,0.13846,41.440769,-4.318964,22.587836,4.63583E+18,0.589864,0.478524,0.633501,-0.147484,0
-14.142456,0.719496,4.77925,-0.329923,-2.125282,0.253523,37.337878,-14.272211,-23.304419,4.63583E+18,0.867649,-0.16449,0.315748,0.347032,-2.311044,8.611999,-7.493499,-7.097777,1.548846,-1.562372,45.053441,2.499628,-13.315041,4.63582E+18,0.570763,-0.615844,0.220842,0.49618,-13.380573,3.505557,-0.264772,-0.187737,0.153077,0.200854,41.249591,-4.52235,22.604532,4.63583E+18,0.589894,0.478703,0.633647,-0.146147,0
-13.598642,0.577321,5.92327,-0.199976,-2.519427,0.215974,36.642133,-14.396561,-24.095493,4.63583E+18,0.87044,-0.161222,0.306521,0.349838,-2.642902,5.765995,-8.030199,-7.151636,1.957868,-1.406977,45.253067,3.65037,-12.340571,4.63582E+18,0.553265,-0.637833,0.206955,0.494203,-13.545182,3.502075,-0.765024,-0.151844,0.128854,0.272416,41.190017,-4.804783,22.759076,4.63583E+18,0.58996,0.479144,0.633568,-0.144777,0
-12.067086,0.273273,6.414625,-0.082475,-2.561935,0.161354,36.104953,-14.577345,-24.858766,4.63583E+18,0.873346,-0.157517,0.297239,0.352284,-3.688685,1.979517,-7.9938,-6.576204,2.224656,-1.028034,45.460593,4.616804,-11.302942,4.63582E+18,0.535779,-0.658132,0.195682,0.491439,-13.306313,3.051221,-1.355652,-0.138615,0.116791,0.345094,41.236607,-5.039182,22.852259,4.63583E+18,0.590073,0.479802,0.633303,-0.143286,0
-10.982792,0.249372,6.195623,-0.024577,-2.314688,0.074332,35.606777,-14.552984,-25.465104,4.63583E+18,0.876022,-0.154055,0.288853,0.354142,-3.409545,-1.551937,-8.264297,-5.456605,2.380617,-0.513397,45.642182,5.463939,-10.265357,4.63582E+18,0.519788,-0.675349,0.188316,0.488121,-13.088254,2.693929,-1.757623,-0.135752,0.114899,0.410978,41.191929,-5.070222,22.801197,4.63583E+18,0.590223,0.480638,0.632899,-0.141644,0
-10.734395,-0.049912,5.960163,-0.004784,-2.170753,-0.041937,35.185308,-14.539018,-26.108008,4.63583E+18,0.878633,-0.15086,0.280922,0.355428,-3.101631,-3.586239,-8.58236,-4.033645,2.418547,0.028142,45.776453,6.061649,-9.188927,4.63582E+18,0.50641,-0.688799,0.185353,0.484508,-12.847716,2.714496,-2.03949,-0.138908,0.118103,0.46693,41.112865,-5.074124,22.760982,4.63583E+18,0.590402,0.481614,0.632389,-0.139847,0
-11.014488,-0.141833,6.147821,0.022933,-2.200321,-0.115296,34.703426,-14.618054,-26.915403,4.63583E+18,0.881332,-0.147591,0.272853,0.356401,-3.410581,-4.737423,-8.290493,-2.549737,2.347949,0.516955,45.949615,6.214123,-8.00255,4.63582E+18,0.49621,-0.698395,0.186584,0.480839,-12.548374,2.897041,-2.319133,-0.142161,0.118516,0.530385,41.122581,-5.236147,22.817857,4.63583E+18,0.59062,0.482748,0.631752,-0.137884,0
-11.192985,0.199256,6.319902,0.073787,-2.252759,-0.169463,34.272121,-14.508257,-27.619333,4.63583E+18,0.884127,-0.144107,0.26461,0.357119,-3.881018,-4.411372,-7.466792,-1.370839,2.258245,0.917097,46.167836,5.956835,-6.844592,4.63582E+18,0.488623,-0.704942,0.191123,0.477259,-12.224045,2.940319,-2.39043,-0.157042,0.115821,0.606928,41.169746,-5.512757,22.915517,4.63583E+18,0.590916,0.484043,0.630957,-0.135698,0
-10.853156,0.419048,5.933018,0.112039,-2.284807,-0.18377,33.857121,-14.418718,-28.211645,4.63583E+18,0.886923,-0.140436,0.256273,0.357727,-4.585781,-2.979469,-5.837729,-0.545113,2.183299,1.235006,46.338728,5.511585,-5.937174,4.63582E+18,0.482829,-0.709319,0.198061,0.473829,-12.054534,2.975548,-2.318299,-0.196124,0.104801,0.681451,41.099005,-5.830129,22.968506,4.63583E+18,0.591357,0.485427,0.630003,-0.133245,0
-10.381786,0.57018,5.390742,0.120293,-2.318624,-0.147633,33.185356,-14.483739,-28.92358,4.63583E+18,0.889625,-0.136632,0.24782,0.358447,-5.721415,-1.614832,-3.80059,0.077733,2.077971,1.498314,46.4794,4.980851,-5.125669,4.63582E+18,0.47839,-0.711938,0.206771,0.470673,-12.080606,3.17362,-2.288612,-0.234504,0.07492,0.763157,40.946146,-6.102845,22.974333,4.63583E+18,0.591993,0.486911,0.628823,-0.130549,0
-10.271091,0.884544,5.048801,0.193283,-2.384979,-0.079238,32.581305,-14.571521,-29.520086,4.63583E+18,0.892249,-0.132375,0.239245,0.359347,-7.030159,-1.03853,-2.035468,0.708424,1.893859,1.737857,46.569164,4.394945,-4.354005,4.63582E+18,0.475454,-0.712648,0.217037,0.467943,-11.969387,3.002526,-2.250885,-0.243393,0.034331,0.846596,40.876768,-6.341165,22.980712,4.63583E+18,0.592792,0.488563,0.627372,-0.127704,0
-10.207182,1.821091,4.982954,0.309782,-2.477682,-0.038374,31.938495,-14.656965,-29.923588,4.63583E+18,0.894877,-0.12749,0.230497,0.360295,-7.746643,-1.222223,-0.805771,1.325853,1.731669,1.928778,46.666811,3.722731,-3.82497,4.63582E+18,0.474063,-0.711551,0.228723,0.465451,-11.649832,2.619649,-2.234504,-0.229729,-0.002905,0.898475,40.920864,-6.534256,22.935514,4.63583E+18,0.59368,0.490359,0.625706,-0.124839,0
-9.985834,2.460874,5.118853,0.301296,-2.507493,-0.043276,31.220069,-14.683172,-30.674878,4.63583E+18,0.897439,-0.122583,0.221597,0.361209,-7.525122,-1.045076,0.199631,1.743542,1.708085,2.030275,46.768793,2.892563,-3.387557,4.63582E+18,0.47366,-0.709373,0.241436,0.462757,-11.551482,3.018501,-2.18877,-0.220596,-0.040988,0.918288,40.917577,-6.731744,22.895258,4.63583E+18,0.59465,0.492202,0.62389,-0.122025,0
-9.699856,1.931635,5.388494,0.310156,-2.487685,-0.011372,30.615982,-14.764496,-31.448073,4.63583E+18,0.899841,-0.117629,0.212776,0.362183,-7.09162,-0.341251,1.186903,1.771184,1.804695,2.067999,46.844122,2.062495,-2.822324,4.63582E+18,0.473085,-0.707161,0.25446,0.459743,-11.691594,3.925494,-1.964119,-0.224454,-0.080972,0.937945,40.80607,-7.135315,22.856451,4.63583E+18,0.595732,0.494059,0.621927,-0.119231,0
-9.466121,1.802028,5.039678,0.462635,-2.579138,0.002843,29.973119,-14.783165,-32.046952,4.63583E+18,0.902275,-0.111938,0.203825,0.363078,-6.959699,0.458578,2.191536,1.420594,1.916236,2.068938,46.860645,1.202245,-2.104237,4.63582E+18,0.471273,-0.705727,0.26699,0.456691,-11.436922,3.785279,-1.755687,-0.222494,-0.123886,0.95172,40.665966,-7.646356,22.873022,4.63583E+18,0.596918,0.495927,0.619818,-0.116495,0
-9.384621,2.023918,4.746523,0.419137,-2.618423,-0.012143,29.185561,-14.931271,-32.677609,4.63583E+18,0.904636,-0.106351,0.194627,0.363927,-7.084733,0.875234,3.56493,0.917043,1.9547,2.05516,46.910955,0.291006,-1.284121,4.63582E+18,0.467888,-0.705256,0.278553,0.453986,-11.068844,3.341177,-2.066104,-0.22125,-0.17758,0.949488,40.518932,-8.077814,22.88087,4.63583E+18,0.59823,0.497759,0.617568,-0.113875,0
-9.543119,2.006151,5.04539,0.341814,-2.529871,-0.032435,28.436851,-15.035384,-33.176451,4.63583E+18,0.906817,-0.101193,0.185614,0.364679,-7.209522,0.424587,5.339865,0.390707,1.933899,2.010343,46.978402,-0.560521,-0.466377,4.63582E+18,0.462997,-0.705721,0.288907,0.451801,-11.349558,4.133291,-2.392651,-0.247743,-0.218427,0.920109,40.449503,-8.391935,22.795419,4.63583E+18,0.599677,0.499422,0.615279,-0.111342,0
-9.711136,2.088518,4.919816,0.341741,-2.600429,-0.059637,27.971015,-15.189923,-33.640274,4.63583E+18,0.908988,-0.095936,0.176301,0.365315,-7.130502,-0.683506,6.735998,-0.128887,1.89883,1.947146,46.878451,-1.312975,0.212842,4.63582E+18,0.45668,-0.707106,0.29799,0.450163,-11.581032,4.395362,-2.386276,-0.31268,-0.230767,0.83152,40.538204,-8.750798,22.652605,4.63583E+18,0.601241,0.500682,0.613164,-0.108888,0
-9.326884,2.368553,4.238946,0.269861,-2.804565,-0.0522,27.429933,-15.36084,-34.173295,4.63583E+18,0.911153,-0.090623,0.166085,0.366065,-7.012483,-2.245227,7.472635,-0.554798,1.820542,1.881778,46.654376,-2.039544,0.86086,4.63582E+18,0.44927,-0.709147,0.305895,0.449104,-10.836479,3.20674,-2.648151,-0.369778,-0.245173,0.702508,40.741509,-9.214653,22.463672,4.63583E+18,0.602894,0.501457,0.611299,-0.106639,0
-8.676016,2.508242,3.951285,0.197668,-2.885686,-0.021496,26.530481,-15.403406,-34.801556,4.63583E+18,0.913171,-0.085426,0.155439,0.36696,-7.108728,-4.079454,7.770515,-0.796169,1.666258,1.793022,46.678416,-2.752802,1.50104,4.63582E+18,0.441458,-0.711381,0.312761,0.448589,-10.064081,2.727229,-2.861285,-0.387832,-0.257981,0.583585,40.819934,-9.436323,22.325179,4.63583E+18,0.604559,0.501874,0.609652,-0.104668,0
-7.972675,2.1321,3.908706,0.113966,-2.844586,0.010957,25.54404,-15.405743,-35.537371,4.63583E+18,0.914954,-0.080576,0.14481,0.367964,-7.598088,-6.040198,7.772316,-0.798139,1.424148,1.685304,46.79568,-3.403349,2.116869,4.63582E+18,0.434112,-0.713233,0.318825,0.44855,-10.275685,3.699319,-2.621801,-0.444524,-0.247339,0.465482,40.657471,-9.436323,22.233899,4.63583E+18,0.606258,0.501848,0.608298,-0.102827,0
-7.333802,1.880722,3.580671,0.022069,-2.808547,0.032635,24.762598,-15.415613,-36.136244,4.63583E+18,0.916524,-0.076108,0.134165,0.369041,-8.075791,-8.085246,7.539187,-0.55192,1.087229,1.566075,46.713837,-3.875637,2.567545,4.63582E+18,0.428133,-0.71411,0.324359,0.448933,-10.875879,4.465838,-2.129765,-0.59492,-0.258317,0.334665,40.585395,-9.602009,22.19306,4.63583E+18,0.608239,0.501102,0.607248,-0.100956,0
-7.165234,1.872922,3.010117,-0.116612,-2.834768,0.050996,23.961165,-15.427818,-36.687848,4.63583E+18,0.91791,-0.072107,0.123192,0.370223,-8.02,-10.059137,6.749991,-0.146256,0.752241,1.419635,46.604157,-4.364002,3.033395,4.63582E+18,0.424065,-0.713795,0.329599,0.449478,-11.108201,4.623451,-1.632514,-0.798882,-0.322321,0.238926,40.670841,-9.995842,22.148457,4.63583E+18,0.61076,0.499565,0.606314,-0.098944,0
-7.133803,1.702318,3.080644,-0.248017,-2.901055,0.057066,23.143288,-15.430158,-37.247035,4.63583E+18,0.919151,-0.068493,0.111747,0.371461,-7.525143,-12.042038,5.677957,0.330643,0.491553,1.227116,46.63319,-4.945213,3.473575,4.63582E+18,0.422118,-0.712386,0.334686,0.449787,-11.389598,5.57322,-0.937695,-1.026389,-0.373762,0.136376,40.667093,-10.300421,21.910104,4.63583E+18,0.613832,0.49716,0.605546,-0.096723,0
-6.596194,2.163529,3.756715,-0.314691,-2.979741,-0.005359,22.197015,-15.311729,-37.739547,4.63583E+18,0.920367,-0.06503,0.099862,0.372456,-6.976746,-13.762219,4.850626,0.799297,0.30694,0.995074,46.539252,-5.429626,3.525977,4.63582E+18,0.422241,-0.710109,0.339627,0.449568,-11.925623,6.499137,-0.099708,-1.274001,-0.418581,-0.029277,40.62624,-10.459107,21.531699,4.63583E+18,0.617447,0.493674,0.605091,-0.094391,0
-6.154143,2.73672,3.896501,-0.408473,-2.991633,-0.003889,21.09221,-15.086306,-38.205733,4.63583E+18,0.921416,-0.061898,0.087771,0.373439,-6.306279,-14.599905,4.859964,1.198029,0.267779,0.716135,46.416276,-5.668014,3.372973,4.63582E+18,0.42411,-0.707428,0.344409,0.448396,-11.724857,5.240949,0.294578,-1.5226,-0.521549,-0.18313,40.702684,-10.656026,21.20423,4.63583E+18,0.62175,0.489102,0.604761,-0.092035,0
-6.029948,2.982475,3.173806,-0.541438,-2.958867,0.069939,20.016155,-14.911239,-38.906433,4.63583E+18,0.92216,-0.05929,0.075603,0.374686,-5.514709,-14.941394,5.756229,1.513839,0.312257,0.385417,46.363716,-5.745955,3.503661,4.63582E+18,0.427447,-0.704719,0.348871,0.446038,-10.787529,4.131967,0.705447,-1.704869,-0.618185,-0.282138,40.855541,-10.805151,20.8725,4.63583E+18,0.626598,0.483746,0.60442,-0.089669,0
-5.880116,3.104029,2.608353,-0.638185,-2.870139,0.10724,19.08248,-14.821624,-39.663218,4.63583E+18,0.922653,-0.057171,0.063621,0.376026,-4.881873,-14.714395,7.037421,1.653322,0.335278,0.005436,46.33082,-5.836113,3.979785,4.63582E+18,0.431847,-0.702323,0.3525,0.442712,-10.831724,5.890999,2.049862,-1.906655,-0.724768,-0.43247,40.96327,-10.916609,20.487722,4.63583E+18,0.632024,0.477414,0.60414,-0.087395,0
-5.521793,3.154691,2.475264,-0.714336,-2.694646,0.125104,18.189106,-14.679332,-40.114164,4.63583E+18,0.922922,-0.055606,0.05219,0.377359,-4.311774,-13.728507,9.051205,1.575925,0.285043,-0.424359,46.344052,-5.891477,4.27729,4.63582E+18,0.436867,-0.700571,0.354622,0.438852,-11.806722,7.710328,4.004642,-2.194174,-0.94458,-0.666674,41.202656,-11.19049,20.154411,4.63583E+18,0.638432,0.469612,0.603795,-0.085443,0
-4.803357,2.98417,1.814887,-0.800976,-2.537584,0.205855,17.426301,-14.461473,-40.413637,4.63583E+18,0.922891,-0.054596,0.041238,0.378935,-4.076501,-13.572604,13.185775,1.392217,0.03738,-1.010004,46.505546,-5.691347,4.242516,4.63582E+18,0.442766,-0.69953,0.354229,0.434899,-11.523818,5.995508,5.319229,-2.417819,-1.229757,-0.89645,41.471731,-11.415513,19.765388,4.63583E+18,0.645836,0.460478,0.603146,-0.084086,0
-3.704012,2.596721,0.407394,-0.999465,-2.516848,0.226901,16.683938,-14.150597,-40.852264,4.63583E+18,0.922662,-0.054372,0.030051,0.380572,-6.143967,-31.988445,16.405801,0.357108,-0.007857,-2.383644,46.576868,-4.876133,4.203117,4.63582E+18,0.448171,-0.702291,0.347847,0.430038,-10.005421,2.74953,5.683868,-2.392898,-1.441385,-1.011069,41.650053,-11.36139,19.130654,4.63583E+18,0.653589,0.450983,0.602051,-0.083494,0
-2.759055,2.139902,-0.570733,-0.999358,-2.445331,0.115315,15.820976,-13.899932,-41.328318,4.63583E+18,0.922487,-0.054267,0.01911,0.381716,-12.874458,-64.693226,2.931199,-2.284219,0.195998,-3.378095,46.565615,-3.58601,4.163637,4.63582E+18,0.447248,-0.711653,0.334135,0.426466,-9.483522,1.776927,5.732169,-2.163578,-1.538779,-1.027697,41.940363,-11.311481,18.310642,4.63583E+18,0.661055,0.441971,0.600553,-0.083694,0
-1.749573,2.100161,-1.659612,-0.967529,-2.325196,-0.033898,14.989037,-13.529908,-41.656442,4.63583E+18,0.922442,-0.054237,0.008644,0.382211,-19.469877,-35.694452,1.482253,-1.200366,-1.237483,-2.282658,46.623838,-2.52872,3.765432,4.63582E+18,0.449492,-0.714769,0.322852,0.427584,-10.754973,2.8144,5.367645,-1.821993,-1.533636,-0.958334,42.230153,-11.296106,17.545848,4.63583E+18,0.66782,0.43402,0.598746,-0.084536,0
-0.613309,1.293211,-2.678883,-0.899398,-2.619258,-0.170903,13.914691,-13.186244,-42.097373,4.63583E+18,0.922528,-0.053474,-0.002876,0.382196,-17.905883,18.135034,17.848022,2.362251,-2.088359,-1.400862,46.692386,-1.87049,3.119391,4.63582E+18,0.461841,-0.708385,0.318892,0.42802,-12.190766,3.146992,4.22141,-1.362175,-1.462125,-0.850122,42.328907,-11.17246,17.020913,4.63583E+18,0.673549,0.427603,0.596721,-0.086087,0
0.763114,-0.932725,-1.576933,-0.347735,-3.260965,-0.176694,12.897956,-12.935597,-42.57337,4.63583E+18,0.922592,-0.04956,-0.015985,0.382247,-11.724046,32.137791,8.814967,1.30754,-1.279847,-1.662717,46.758115,-1.337137,2.67904,4.63582E+18,0.470398,-0.705707,0.313784,0.426899,-12.488229,1.731211,2.931051,-0.891572,-1.409403,-0.64801,42.431301,-11.013763,16.534776,4.63583E+18,0.678336,0.423,0.594276,-0.088141,0
2.763227,-2.037274,1.708319,0.152691,-4.208399,-0.077064,11.593664,-12.831855,-43.118459,4.63583E+18,0.922309,-0.042208,-0.031914,0.382813,-10.299292,13.595291,-6.207934,-1.734343,-0.854518,-2.939132,46.883003,-0.502382,2.396407,4.63582E+18,0.47165,-0.711303,0.300294,0.425932,-12.283876,2.387378,1.525947,-0.650243,-1.341999,-0.229307,42.689721,-10.931468,16.056577,4.63583E+18,0.682652,0.420121,0.591166,-0.089485,0
4.169961,-2.44153,7.949503,-0.467041,-4.596853,0.078411,9.888656,-12.679709,-43.43351,4.63583E+18,0.921306,-0.036624,-0.050287,0.38383,-21.586445,-11.053334,-11.35758,-2.159959,-0.964784,-3.355299,46.968455,0.768127,1.951307,4.63582E+18,0.472398,-0.717878,0.284522,0.424898,-11.793241,8.093703,-0.303804,-0.87395,-1.269118,0.437494,42.956688,-11.046537,15.564165,4.63583E+18,0.687402,0.418259,0.587154,-0.088251,0
4.091326,-3.616793,12.371584,-0.685592,-3.317079,0.043582,8.500941,-12.459514,-43.709571,4.63583E+18,0.920331,-0.033908,-0.064089,0.384362,-23.759554,-8.590768,-15.572795,-0.664002,-1.370352,-2.801463,46.792881,2.000037,1.480889,4.63582E+18,0.47701,-0.719966,0.27219,0.424291,-11.191686,17.024071,-2.193986,-1.34161,-1.205784,1.262931,43.023166,-11.564895,14.895435,4.63583E+18,0.693071,0.417074,0.58202,-0.083392,0
3.325997,-4.51303,7.96354,-0.455054,-1.985981,0.09507,7.729595,-12.345905,-43.911449,4.63583E+18,0.919537,-0.032448,-0.072403,0.384911,-14.008642,2.958882,-16.957585,0.035257,-1.187705,-2.794964,46.671693,3.078872,1.073393,4.63582E+18,0.483422,-0.720857,0.261429,0.422284,-11.552509,24.212568,-4.533545,-1.668724,-1.132451,2.038267,42.905902,-12.428843,14.252652,4.63583E+18,0.699323,0.416803,0.575798,-0.075363,0
3.063112,-3.263029,5.03261,-0.364565,-1.721853,0.174072,7.013579,-12.398501,-44.084698,4.63583E+18,0.918651,-0.031087,-0.079544,0.38573,-13.329589,1.685955,-15.777402,0.09586,-0.827263,-3.28864,46.740274,4.259285,0.663004,4.63582E+18,0.490404,-0.722666,0.249972,0.418056,-12.468148,25.928563,-6.469886,-1.638479,-1.106271,2.769569,42.803963,-13.496024,13.805156,4.63583E+18,0.705568,0.418313,0.568273,-0.065219,0
3.917128,-0.435355,6.361856,-0.573298,-2.386828,0.165769,6.093878,-12.345914,-44.18657,4.63583E+18,0.917457,-0.02945,-0.089562,0.386502,-19.361257,-5.620837,-9.023486,0.638824,-0.771503,-3.42316,46.605097,5.683693,0.255485,4.63582E+18,0.499096,-0.723451,0.239116,0.412731,-13.236692,24.405658,-7.051072,-1.19719,-1.192161,3.46883,42.615667,-14.718314,13.304795,4.63583E+18,0.711276,0.422657,0.559025,-0.054198,0
5.072462,1.499372,9.308592,-0.559311,-2.712077,0.067065,5.178898,-11.935161,-44.370592,4.63583E+18,0.916194,-0.027196,-0.100802,0.386895,-20.743883,-3.496276,-1.862033,1.358959,-0.962174,-3.435339,46.354379,7.065901,-0.117292,4.63582E+18,0.51005,-0.722248,0.229008,0.407138,-13.007428,22.652656,-7.684636,-0.507331,-1.231199,4.124083,42.227819,-16.058225,12.625555,4.63583E+18,0.715801,0.43044,0.548189,-0.042895,0
5.426162,1.799188,9.133659,-0.432419,-1.989924,0.025886,4.285429,-11.653886,-44.558397,4.63583E+18,0.915222,-0.025601,-0.109076,0.387061,-17.616628,0.454088,3.112949,1.35336,-1.129417,-3.46667,46.166582,8.111975,-0.427159,4.63582E+18,0.521069,-0.720616,0.218382,0.401881,-13.481487,25.692661,-8.335409,0.547015,-1.166737,4.545016,41.693997,-17.442398,12.255204,4.63583E+18,0.718106,0.442187,0.536405,-0.032613,0
4.668099,1.341037,6.463904,-0.407621,-1.10454,-0.015726,3.71959,-11.668386,-44.662648,4.63583E+18,0.914678,-0.025319,-0.113933,0.386966,-13.904222,-1.616131,4.862278,1.048771,-1.215851,-3.596664,45.839918,9.361592,-0.786766,4.63582E+18,0.531331,-0.719426,0.20661,0.39677,-15.447393,26.757047,-7.500792,1.756308,-1.08693,4.651587,41.095833,-18.835585,12.206375,4.63583E+18,0.717719,0.457617,0.524275,-0.024555,0
2.695886,0.60206,5.940764,-0.35973,-0.71768,-0.077182,3.49745,-11.554336,-44.610092,4.63583E+18,0.914406,-0.025449,-0.117244,0.386612,-10.991764,-3.106473,4.077271,0.782723,-1.292845,-3.673185,45.373195,10.920317,-1.317159,4.63582E+18,0.540844,-0.718565,0.193942,0.39184,-16.973306,18.655384,-6.156952,2.745553,-0.864521,4.930278,40.465908,-20.346442,12.208429,4.63583E+18,0.714622,0.476404,0.51191,-0.017388,0
0.072326,-0.494658,7.859735,-0.211072,-0.825889,-0.094037,3.338753,-11.385782,-44.672505,4.63583E+18,0.914113,-0.02483,-0.120728,0.386272,-7.529666,-2.974762,1.836658,0.526623,-1.278865,-3.726486,45.047299,12.237974,-2.017723,4.63582E+18,0.549517,-0.718149,0.180674,0.386846,-17.975951,11.984506,-5.560969,3.513034,-0.667233,5.281822,39.762277,-21.888704,12.511595,4.63583E+18,0.709152,0.497936,0.499054,-0.010408,0
-2.048418,-1.538322,8.175251,-0.106798,-1.153911,-0.170097,2.973087,-11.362741,-44.918001,4.63583E+18,0.913771,-0.023246,-0.125299,0.385722,-4.338128,-4.602507,-0.292269,0.295023,-1.138219,-3.81638,44.700878,13.589922,-2.688198,4.63582E+18,0.557386,-0.718358,0.167037,0.381291,-18.688544,9.634073,-4.974473,3.863249,-0.660073,5.353176,38.979469,-23.193105,13.042365,4.63583E+18,0.70242,0.520285,0.485689,-0.003922,0
-3.276802,-2.275475,6.417716,-0.04316,-1.333405,-0.262153,2.50881,-11.424223,-44.80454,4.63583E+18,0.913465,-0.021083,-0.130458,0.38486,-2.957355,-7.284573,-1.77046,0.281168,-1.015265,-3.843961,44.188304,15.179598,-3.153144,4.63582E+18,0.565016,-0.718613,0.153534,0.375206,-19.23835,7.514201,-3.65691,3.870546,-0.676383,5.365572,37.862811,-24.322468,13.471881,4.63583E+18,0.695166,0.542282,0.471877,0.002553,0
-3.31158,-3.311491,6.075025,0.05246,-1.510652,-0.296238,2.022878,-11.50732,-44.675857,4.63583E+18,0.913092,-0.018252,-0.136136,0.383922,-1.590342,-7.778948,-2.121733,0.422262,-0.937405,-3.798359,43.545163,16.567516,-3.347565,4.63582E+18,0.572795,-0.718431,0.140529,0.368801,-19.895172,5.7804,-2.139269,3.789025,-0.575177,5.394058,36.642951,-25.413131,13.8645,4.63583E+18,0.687364,0.563683,0.457933,0.009498,0
-2.53257,-2.956436,8.643555,0.15799,-1.678592,-0.294976,1.337559,-11.523788,-44.881312,4.63583E+18,0.912588,-0.014751,-0.142279,0.383043,-0.508127,-8.438794,-1.169955,0.540558,-0.859716,-3.758755,42.915019,17.873484,-3.589628,4.63582E+18,0.580668,-0.717871,0.127973,0.362089,-21.1103,5.25628,-1.094652,3.5657,-0.420281,5.355297,35.625341,-26.456677,14.450209,4.63583E+18,0.679281,0.583947,0.444174,0.017115,0
-1.498798,-1.617816,9.883819,0.136135,-1.797183,-0.288568,0.674104,-11.464669,-45.004425,4.63583E+18,0.911953,-0.011147,-0.148899,0.38216,-2.650794,-9.531145,0.089129,0.716281,-0.866461,-3.693743,42.390154,19.216281,-4.042122,4.63582E+18,0.588821,-0.716652,0.115828,0.355365,-22.141651,5.801513,-0.497738,3.127466,-0.309436,5.304825,34.521611,-27.507015,15.170442,4.63583E+18,0.671592,0.602466,0.430513,0.025659,0
-0.899855,-0.355137,8.901364,0.08552,-1.655902,-0.248535,0.046818,-11.440691,-44.863251,4.63583E+18,0.911291,-0.007984,-0.155054,0.381371,-5.385385,-8.590171,1.666242,0.911794,-0.910386,-3.614222,41.776157,20.391232,-4.55487,4.63582E+18,0.59731,-0.714663,0.104071,0.348779,-22.154201,6.877161,-0.057791,2.533754,-0.205945,5.226063,33.377218,-28.518147,15.738084,4.63583E+18,0.664795,0.618795,0.417007,0.035291,0
-0.057023,0.951671,9.093625,0.074115,-1.205163,-0.18841,-0.526384,-11.576249,-44.805883,4.63583E+18,0.91079,-0.005619,-0.159508,0.380772,-7.019301,-6.741968,3.618507,0.918483,-0.908185,-3.609982,41.04748,21.490661,-4.997255,4.63582E+18,0.605658,-0.712475,0.092316,0.342104,-21.72596,7.423418,-0.909052,1.990738,-0.032668,5.097628,32.309389,-29.526961,16.171672,4.63583E+18,0.658747,0.633029,0.404001,0.045938,0
-0.124213,2.617295,10.130422,-0.023704,-0.917822,-0.10125,-0.969735,-11.609241,-44.948941,4.63583E+18,0.910321,-0.004139,-0.163022,0.380425,-9.900412,-5.905419,5.080249,0.785923,-0.934789,-3.632112,40.424827,22.711139,-5.322138,4.63582E+18,0.6135,-0.710409,0.080216,0.335414,-21.477674,6.702233,-3.588713,1.691395,0.222576,4.946934,31.044138,-30.576672,16.763586,4.63583E+18,0.652758,0.645823,0.391833,0.057326,0
-0.892438,4.244773,9.662255,-0.176303,-1.017498,-0.009181,-1.246872,-11.540278,-44.98428,4.63583E+18,0.90962,-0.003142,-0.167151,0.380318,-12.798824,-4.640413,5.647343,0.645001,-1.057326,-3.63974,39.745267,23.968732,-5.751991,4.63582E+18,0.620819,-0.70835,0.067563,0.329026,-21.353094,5.492192,-6.918002,1.697839,0.490756,4.796382,29.623222,-31.429532,17.438845,4.63583E+18,0.646045,0.658024,0.380619,0.068989,0
-0.224845,5.183723,8.876847,-0.337356,-1.308949,-0.034546,-1.550069,-11.661681,-44.895638,4.63583E+18,0.908732,-0.002276,-0.172638,0.379996,-13.494146,-3.190527,5.340023,0.387635,-1.179273,-3.701754,38.817548,25.090906,-6.292068,4.63582E+18,0.627336,-0.706622,0.054041,0.322823,-20.763256,3.732215,-9.422164,1.978867,0.739298,4.676889,28.275983,-32.094623,18.016974,4.63583E+18,0.637905,0.67042,0.370308,0.080536,0
0.842387,5.718786,9.900446,-0.505549,-1.310964,-0.098299,-2.005378,-11.625742,-44.953214,4.63583E+18,0.907912,-0.001997,-0.178393,0.379299,-13.33417,-2.812234,4.141981,0.127552,-1.227013,-3.816573,37.852386,26.316792,-6.644361,4.63582E+18,0.633081,-0.705341,0.039692,0.316429,-19.96414,2.387984,-10.553867,2.350149,0.96794,4.562721,26.963518,-32.753781,18.64938,4.63583E+18,0.628116,0.683236,0.360874,0.091807,0
1.502896,5.456155,11.01815,-0.598672,-0.890825,-0.249837,-2.424694,-11.215275,-44.981921,4.63583E+18,0.907618,-0.002622,-0.182702,0.377945,-11.950867,-3.175158,2.203997,0.036444,-1.240892,-3.882603,36.864431,27.67496,-6.913769,4.63582E+18,0.638467,-0.704091,0.024982,0.309825,-19.971593,2.822471,-10.013723,2.489828,1.100217,4.432152,25.696021,-33.374822,19.515705,4.63583E+18,0.617481,0.695847,0.352041,0.10286,0
1.3061,4.416035,10.598201,-0.626904,-0.401574,-0.376981,-2.640385,-10.855058,-44.994127,4.63583E+18,0.907882,-0.004027,-0.185205,0.376076,-8.433973,-4.104031,0.396822,-0.007272,-1.178445,-3.917761,35.936755,28.76148,-7.276115,4.63582E+18,0.643578,-0.702836,0.010271,0.302857,-20.505693,4.833234,-8.141985,2.339148,1.118602,4.313781,24.392772,-33.878155,20.516649,4.63583E+18,0.607025,0.707571,0.343373,0.113836,0
0.198973,2.828202,10.232895,-0.603496,-0.066366,-0.408104,-2.60449,-10.791345,-45.075266,4.63583E+18,0.908444,-0.005845,-0.186401,0.374098,-6.086076,-5.615227,-0.827169,0.014898,-1.078355,-3.935731,34.976319,29.778265,-7.583459,4.63582E+18,0.648586,-0.701444,-0.004199,0.295457,-20.874267,6.738903,-6.786115,2.093271,1.108607,4.198418,23.007063,-34.30539,21.415966,4.63583E+18,0.597104,0.718213,0.334757,0.124795,0
-1.210959,0.710081,9.924912,-0.522984,0.005243,-0.362773,-2.656909,-10.663313,-45.330514,4.63583E+18,0.908986,-0.007504,-0.187198,0.37235,-4.916444,-6.653206,-1.541467,0.161988,-0.99158,-3.918728,33.934937,30.873162,-7.755207,4.63582E+18,0.653818,-0.699559,-0.018201,0.287765,-21.38371,7.133882,-6.165027,1.797236,1.081634,4.135825,21.532843,-34.777114,22.132727,4.63583E+18,0.587906,0.727765,0.325977,0.135882,0
-2.592241,-1.393331,9.381047,-0.465597,-0.008688,-0.273009,-2.545402,-10.504629,-45.475753,4.63583E+18,0.909375,-0.008995,-0.187955,0.370984,-3.340358,-6.35878,-1.623132,0.325317,-0.895078,-3.900073,32.783048,32.053318,-8.06202,4.63582E+18,0.659326,-0.697147,-0.031685,0.279771,-21.678362,7.612477,-6.055473,1.418572,1.03348,4.160367,19.982502,-35.289825,22.767513,4.63583E+18,0.579691,0.736184,0.316671,0.147348,0
-3.486689,-2.336029,8.881418,-0.382868,0.003552,-0.209419,-2.258724,-10.405029,-45.270529,4.63583E+18,0.909674,-0.01024,-0.188535,0.369922,-1.897064,-6.351481,-0.871251,0.429535,-0.780803,-3.882825,31.525871,33.253329,-8.484536,4.63582E+18,0.664948,-0.694389,-0.044674,0.271427,-21.479107,8.933188,-6.423134,0.974819,1.004954,4.190603,18.553014,-35.675462,23.294259,4.63583E+18,0.572655,0.743331,0.306819,0.159334,0
-4.100619,-2.308342,8.710554,-0.306716,-0.082993,-0.197814,-2.187485,-10.31957,-45.068516,4.63583E+18,0.909889,-0.011073,-0.189325,0.368966,-1.401818,-7.161887,0.516385,0.510308,-0.680427,-3.842305,30.362041,34.340043,-8.829413,4.63582E+18,0.670594,-0.691338,-0.057163,0.262845,-21.573485,10.103007,-6.857707,0.489814,1.013078,4.208421,17.228335,-36.026557,23.670697,4.63583E+18,0.566905,0.749089,0.296507,0.171954,0
-4.339554,-1.660113,8.839364,-0.244426,-0.219264,-0.2269,-2.450972,-10.165202,-45.190649,4.63583E+18,0.910041,-0.011437,-0.190536,0.367955,-1.509855,-7.530531,2.13412,0.581413,-0.617192,-3.765895,29.320719,35.324191,-9.13156,4.63582E+18,0.6762,-0.687992,-0.069162,0.254239,-22.006082,10.527168,-6.934267,0.004398,1.036576,4.243628,15.897818,-36.453788,23.854248,4.63583E+18,0.562427,0.753478,0.285693,0.185273,0
-4.252114,-0.381574,8.884627,-0.217351,-0.427639,-0.262351,-2.721464,-10.004164,-45.464703,4.63583E+18,0.91008,-0.01135,-0.192497,0.366839,-1.684203,-6.830293,3.92644,0.601992,-0.596507,-3.695046,28.23902,36.174377,-9.471716,4.63582E+18,0.681623,-0.684454,-0.08086,0.245714,-22.167181,10.295731,-6.450405,-0.40324,1.07007,4.296175,14.522931,-36.919085,23.953853,4.63583E+18,0.558958,0.756693,0.27438,0.199243,0
-3.967806,0.687533,8.739323,-0.210184,-0.563222,-0.26745,-2.899058,-9.914382,-45.521408,4.63583E+18,0.910012,-0.011024,-0.194961,0.365713,-2.291696,-5.96597,5.630407,0.528987,-0.602845,-3.645964,27.132016,36.793295,-9.728881,4.63582E+18,0.686617,-0.680963,-0.09249,0.237259,-22.151065,9.853337,-5.861517,-0.667589,1.128903,4.350522,12.948181,-37.508454,24.055908,4.63583E+18,0.556011,0.759039,0.262716,0.213756,0
-3.660287,2.001065,8.507013,-0.259312,-0.611184,-0.212776,-3.057739,-9.890361,-45.363915,4.63583E+18,0.909814,-0.010856,-0.197677,0.364754,-3.543609,-5.944557,6.883631,0.39582,-0.612509,-3.607853,25.874182,37.488617,-10.013499,4.63582E+18,0.691028,-0.677695,-0.104148,0.228831,-22.600282,9.175588,-5.551929,-0.803416,1.178722,4.398461,11.258675,-38.135428,23.970949,4.63583E+18,0.553193,0.7608,0.250797,0.228608,0
-3.335232,3.521536,8.587781,-0.385078,-0.660483,-0.230771,-3.216524,-9.887997,-45.326088,4.63583E+18,0.909587,-0.011075,-0.200771,0.363621,-4.983375,-5.812957,7.541081,0.242902,-0.657693,-3.56063,24.523741,38.351605,-10.245417,4.63582E+18,0.694781,-0.674686,-0.115923,0.220545,-23.087603,8.072622,-5.398129,-0.82487,1.200383,4.464424,9.643,-38.676919,23.700455,4.63583E+18,0.550148,0.762271,0.238603,0.243616,0
-3.202622,4.22484,8.992794,-0.564884,-0.605283,-0.301125,-3.385094,-9.690961,-45.404903,4.63583E+18,0.909494,-0.012,-0.203928,0.362063,-5.844265,-4.864824,7.635331,0.06926,-0.741085,-3.511062,23.34398,39.104076,-10.397855,4.63582E+18,0.697802,-0.671973,-0.127933,0.212502,-22.97292,6.749409,-5.322913,-0.724311,1.19808,4.534322,7.903336,-39.063163,23.579811,4.63583E+18,0.5465,0.763748,0.22619,0.258582,0
-3.107328,4.656341,8.885296,-0.716865,-0.502563,-0.385126,-3.674188,-9.318779,-45.443449,4.63583E+18,0.909594,-0.013584,-0.206927,0.360048,-5.634499,-3.953289,7.67069,-0.105388,-0.809684,-3.470225,22.2651,39.75104,-10.352114,4.63582E+18,0.700106,-0.669579,-0.140154,0.204627,-22.886403,5.474541,-5.353671,-0.554491,1.196622,4.628728,6.093797,-39.343915,23.590082,4.63583E+18,0.541993,0.765398,0.213565,0.273494,0
-3.285479,5.179736,8.591903,-0.86258,-0.48432,-0.512809,-3.804417,-8.975046,-45.458012,4.63583E+18,0.909877,-0.015637,-0.210079,0.357415,-4.6847,-3.478571,7.537634,-0.287141,-0.850909,-3.39961,21.150666,40.369927,-10.226162,4.63582E+18,0.701666,-0.667574,-0.152422,0.196921,-22.803027,5.429086,-5.199951,-0.41404,1.183262,4.709625,4.392169,-39.62467,23.502705,4.63583E+18,0.536736,0.767139,0.200723,0.288309,0
-3.529627,4.77359,8.217765,-1.045978,-0.477182,-0.612676,-3.889869,-8.714398,-45.549022,4.63583E+18,0.910281,-0.018309,-0.213477,0.354233,-3.29508,-3.259624,6.765421,-0.401352,-0.885723,-3.250268,19.930173,40.938998,-10.195003,4.63582E+18,0.702617,-0.665829,-0.164437,0.189633,-22.346569,7.239166,-5.048001,-0.373633,1.147628,4.743207,2.605668,-39.861016,23.368431,4.63583E+18,0.531116,0.768721,0.187659,0.302932,0
-3.576769,4.276709,7.531619,-1.156363,-0.496011,-0.650031,-3.916219,-8.204292,-45.589936,4.63583E+18,0.910685,-0.021337,-0.217106,0.350801,-1.607176,-3.217824,5.719524,-0.406737,-0.87047,-3.04826,18.672616,41.439731,-10.189543,4.63582E+18,0.703272,-0.664125,-0.175819,0.182853,-22.343777,8.682731,-5.136337,-0.377443,1.153886,4.860181,0.795984,-40.01827,23.234149,4.63583E+18,0.525127,0.77005,0.174148,0.317705,0
-3.409334,3.901515,6.863476,-1.325571,-0.515612,-0.628921,-4.046615,-7.699544,-45.683293,4.63583E+18,0.910992,-0.024997,-0.221047,0.347285,-0.555599,-3.574629,4.611642,-0.408894,-0.797824,-2.834906,17.606534,41.809809,-10.116308,4.63582E+18,0.703693,-0.662527,-0.18637,0.176463,-22.202627,9.374455,-5.498003,-0.404933,1.187215,4.95296,-1.032499,-40.140336,23.004729,4.63583E+18,0.518845,0.770998,0.160297,0.332667,0
-3.408643,3.636124,6.797587,-1.498065,-0.425175,-0.646001,-4.146223,-7.211211,-45.724217,4.63583E+18,0.911348,-0.029426,-0.224885,0.343519,0.006869,-4.66762,3.479297,-0.434277,-0.678232,-2.613273,16.695719,42.225315,-10.150552,4.63582E+18,0.703875,-0.66117,-0.19595,0.170347,-21.699509,9.504446,-5.799949,-0.573521,1.217844,4.973577,-2.936275,-40.22435,22.833232,4.63583E+18,0.512817,0.771198,0.146138,0.34773,0
-3.161996,2.279043,7.205696,-1.576331,-0.269113,-0.705863,-4.172574,-6.654007,-45.600894,4.63583E+18,0.911881,-0.034317,-0.228238,0.339415,0.717568,-6.181432,2.16824,-0.486742,-0.503948,-2.396773,15.783026,42.859813,-10.255268,4.63582E+18,0.703817,-0.660187,-0.204436,0.164321,-21.602198,8.943352,-5.638499,-0.8638,1.243659,4.995256,-4.758756,-40.184378,22.790264,4.63583E+18,0.507433,0.770392,0.131475,0.362936,0
-2.657483,-0.486969,7.950051,-1.39423,-0.008759,-0.766261,-4.174932,-6.080273,-45.589933,4.63583E+18,0.91273,-0.038826,-0.230341,0.335202,0.647657,-6.897183,0.906588,-0.586872,-0.304864,-2.207052,14.799185,43.526834,-10.044689,4.63582E+18,0.703452,-0.659729,-0.211864,0.1582,-21.48566,8.29262,-5.158649,-1.181293,1.242436,5.009558,-6.681287,-40.113051,22.557531,4.63583E+18,0.502803,0.768552,0.116219,0.378166,0
-1.980115,-2.206868,8.194356,-1.042073,0.485435,-0.843106,-4.115839,-5.703501,-45.762082,4.63583E+18,0.914181,-0.04261,-0.230077,0.330941,-0.584543,-6.831766,-0.065176,-0.645371,-0.118622,-1.92437,13.977304,43.868735,-9.658452,4.63582E+18,0.702846,-0.65976,-0.217989,0.152331,-20.475683,7.364117,-4.87662,-1.473257,1.238704,5.025802,-8.597909,-40.037908,21.843996,4.63583E+18,0.498834,0.765733,0.100383,0.393371,0
-1.134287,-3.866622,6.492243,-0.754254,1.127506,-0.988903,-3.914582,-5.511801,-45.969589,4.63583E+18,0.916462,-0.046042,-0.226986,0.326273,-2.32457,-6.964508,-0.54261,-0.506363,0.018469,-1.443751,13.627698,43.828501,-9.447783,4.63582E+18,0.702403,-0.659871,-0.22229,0.147608,-19.431482,5.821465,-5.308335,-1.694461,1.244434,5.045446,-10.330034,-39.915827,20.893666,4.63583E+18,0.49528,0.76206,0.084082,0.408525,0
0.118826,-6.119585,4.740044,-0.758848,1.73694,-0.995093,-3.40692,-5.353108,-46.098328,4.63583E+18,0.919269,-0.050311,-0.22156,0.32144,-3.739997,-7.507645,0.527738,-0.146777,0.053363,-0.890965,13.41159,43.869154,-9.354801,4.63582E+18,0.702621,-0.659444,-0.224742,0.144736,-19.049587,3.716218,-6.137911,-1.831564,1.23048,5.103648,-12.185282,-39.800103,20.193286,4.63583E+18,0.491804,0.757745,0.067289,0.423585,0
-0.468343,-7.121331,3.562461,-0.955779,2.276047,-1.211383,-2.51815,-5.115658,-46.139263,4.63583E+18,0.922726,-0.055851,-0.214354,0.315451,-4.66628,-6.190034,2.037942,0.095559,-0.049928,-0.422534,13.175302,44.178686,-9.306712,4.63582E+18,0.703121,-0.658677,-0.22606,0.143744,-17.502196,1.742818,-6.416835,-1.871188,1.231044,5.187472,-14.104757,-39.607819,19.724987,4.63583E+18,0.488036,0.752955,0.050123,0.438596,0
-3.201502,-7.398868,3.465328,-2.288461,2.077064,-1.076899,-1.494812,-4.347407,-46.124294,4.63583E+18,0.925373,-0.066364,-0.209599,0.308787,-6.186394,-1.908219,2.680408,-0.171392,-0.233268,-0.054592,12.99695,44.467636,-9.351607,4.63582E+18,0.702493,-0.658928,-0.227066,0.144081,-15.342812,0.617562,-5.778643,-1.77729,1.300979,5.270233,-15.960755,-39.212449,18.999734,4.63582E+18,0.483533,0.747823,0.032983,0.453728,0
-12.876531,-10.053245,10.609705,-3.427353,1.56986,1.205465,-0.654019,-3.180524,-45.942349,4.63583E+18,0.924115,-0.082593,-0.207586,0.309998,-8.570152,4.073454,2.697663,-1.052068,-0.444091,0.364126,13.203784,44.492388,-9.295188,4.63582E+18,0.698987,-0.662017,-0.228064,0.145388,-14.697506,0.094566,-4.772304,-1.624703,1.366102,5.329178,-17.872749,-38.706109,18.049505,4.63582E+18,0.478158,0.742455,0.016059,0.4689,0
-5.54058,-5.325303,13.301861,-0.025221,1.974655,1.610337,-0.175589,-2.745066,-45.919529,4.63583E+18,0.923677,-0.08658,-0.199441,0.315512,-8.511818,11.951427,3.148612,-2.616541,-0.519101,0.767312,13.513253,44.475168,-8.742558,4.63582E+18,0.690796,-0.669948,-0.229099,0.146576,-14.539939,-0.73647,-3.7899,-1.545075,1.386785,5.35935,-19.813143,-38.199296,17.393424,4.63582E+18,0.472201,0.736781,-0.000773,0.48392,0
5.285847,1.206589,-0.973118,1.924739,1.44813,1.12045,0.217372,-3.160538,-46.130991,4.63583E+18,0.92404,-0.081952,-0.190913,0.320915,-6.021051,19.576475,2.450514,-4.313875,-0.446994,1.338661,13.723292,44.646442,-7.421634,4.63582E+18,0.677419,-0.68319,-0.229311,0.147551,-14.18219,-1.610888,-2.889425,-1.568326,1.407756,5.372866,-21.74813,-37.407743,16.915487,4.63582E+18,0.466016,0.730593,-0.017652,0.49875,0
8.173427,6.128029,-4.819947,0.261949,-2.55192,0.154247,0.165,-3.665362,-46.318428,4.63583E+18,0.921835,-0.0776,-0.200316,0.322603,-3.220693,28.238074,-1.14766,-4.839818,-0.189423,2.359549,14.426972,44.88267,-5.495879,4.63582E+18,0.661875,-0.698757,-0.226116,0.150107,-14.282867,-2.297271,-2.807178,-1.653792,1.420123,5.377138,-23.530562,-36.434017,16.181466,4.63582E+18,0.459811,0.723785,-0.034689,0.513327,0
16.407345,0.00765,18.591311,0.068148,-4.765907,-0.463876,-1.155341,-3.828791,-46.24322,4.63583E+18,0.918314,-0.07048,-0.218632,0.322386,-3.286112,29.350235,-1.265298,-2.972032,-0.035565,3.617572,15.896807,44.879451,-3.918998,4.63582E+18,0.650836,-0.710148,-0.217565,0.157379,-14.048253,-3.878572,-3.538168,-1.668272,1.473341,5.396945,-25.166762,-35.606529,15.310536,4.63582E+18,0.453344,0.716406,-0.051695,0.527797,0
23.532762,-8.375676,31.082605,0.409784,-0.349965,-0.552578,-2.498431,-3.845332,-46.049894,4.63583E+18,0.918847,-0.067889,-0.219575,0.320777,-12.322412,4.80905,6.621783,0.00724,0.202743,3.132636,17.219866,44.760968,-3.340867,4.63582E+18,0.648968,-0.712982,-0.207791,0.165288,-13.633753,-5.747192,-4.133288,-1.596398,1.611471,5.435574,-26.929796,-34.697257,14.492451,4.63582E+18,0.446335,0.708421,-0.068368,0.542449,0
22.526986,-11.973938,19.991234,0.139641,4.662484,-0.73699,-1.378492,-3.776431,-45.881744,4.63583E+18,0.923953,-0.07285,-0.201698,0.316735,-30.675244,-56.717747,-11.572809,-0.584945,0.766645,1.322399,18.070423,44.594406,-3.570961,4.63582E+18,0.647006,-0.716162,-0.202255,0.166099,-14.69677,-6.99778,-4.581939,-1.583956,1.732375,5.452214,-28.682769,-33.641143,13.763401,4.63582E+18,0.439015,0.699748,-0.084797,0.557161,0
16.926242,-9.410071,5.149623,0.017408,6.369886,-0.71729,1.08609,-3.690979,-45.969121,4.63583E+18,0.929923,-0.080509,-0.177293,0.311976,-38.735915,-69.83487,-31.150007,-2.657904,-1.998724,3.257694,19.225656,44.21638,-3.586952,4.63582E+18,0.635054,-0.724495,-0.199792,0.178595,-16.788422,-9.954702,-4.802427,-1.68302,1.745036,5.4747,-30.280319,-32.496794,12.926256,4.63582E+18,0.431664,0.690423,-0.101446,0.571569,0
12.148625,-4.910507,-4.755997,-0.111348,4.196142,-0.378017,3.026059,-3.743313,-46.017177,4.63583E+18,0.933328,-0.086052,-0.161271,0.309009,-16.095467,34.819463,-6.627757,-5.745432,-1.945079,3.179822,20.466244,43.791634,-2.006734,4.63582E+18,0.613509,-0.740543,-0.199601,0.188046,-17.006804,-14.908367,-3.986899,-1.805534,1.727319,5.542652,-31.937881,-31.149317,11.90676,4.63582E+18,0.424222,0.680452,-0.118552,0.585633,0
8.398874,-0.992973,-3.722183,-0.233777,1.085952,-0.062512,3.762845,-3.818921,-45.864469,4.63583E+18,0.934039,-0.088264,-0.157361,0.308251,-29.594306,30.41456,14.238444,-13.645267,0.835691,-1.61563,20.77135,43.5058,1.744375,4.63582E+18,0.571155,-0.771851,-0.218576,0.173934,-14.971762,-18.428544,-2.061062,-1.944733,1.774782,5.59264,-33.594775,-29.72881,10.92572,4.63582E+18,0.416799,0.669649,-0.135978,0.599465,0
4.918472,-0.799862,7.148687,-0.549062,0.24698,0.283061,3.995283,-3.705219,-45.76756,4.63583E+18,0.933626,-0.09085,-0.156992,0.308936,-42.802363,-75.644344,-10.325324,-16.144932,-1.402953,-2.767157,20.213887,43.273166,7.018853,4.63582E+18,0.518746,-0.804912,-0.24183,0.156647,-14.068891,-18.155814,0.613874,-2.281945,1.845254,5.587498,-35.049064,-28.387416,9.839923,4.63582E+18,0.410087,0.657631,-0.154019,0.612885,0
4.71059,-5.335448,17.310837,-0.117635,1.078108,0.36368,4.343278,-3.408787,-45.920603,4.63583E+18,0.933803,-0.092879,-0.152801,0.309898,-13.703726,-62.628657,-22.828091,-10.58775,-1.054547,-1.764986,19.487116,42.956881,11.709586,4.63582E+18,0.482903,-0.82454,-0.256496,0.145423,-15.490345,-15.716887,2.646358,-2.91544,1.840286,5.529172,-36.347496,-27.081225,8.714287,4.63582E+18,0.404963,0.644109,-0.173416,0.625344,0
4.172656,-8.324811,17.680175,0.319108,1.762233,0.350881,4.743714,-3.344829,-46.039573,4.63583E+18,0.934563,-0.094081,-0.145384,0.310812,-10.311376,-40.345424,-36.815492,-3.816491,-0.269151,-1.493921,19.051931,42.640196,13.732072,4.63582E+18,0.47043,-0.830382,-0.264215,0.139107,-16.915489,-15.459549,2.88821,-3.666148,1.755046,5.451578,-37.642736,-25.737163,7.632416,4.63582E+18,0.401681,0.629102,-0.194572,0.636416,0
2.225665,-7.805501,10.769998,0.255757,1.990161,0.547726,5.412222,-3.482565,-45.989664,4.63583E+18,0.935119,-0.095936,-0.137075,0.312345,-3.509692,-32.824,-33.785255,-0.290609,-0.167546,-1.190944,18.689691,42.575021,13.98434,4.63582E+18,0.470018,-0.829585,-0.26858,0.136884,-17.22277,-18.576732,1.604623,-4.209109,1.585014,5.347727,-38.909892,-24.148641,6.350941,4.63582E+18,0.399629,0.6132,-0.21702,0.645899,0
-0.674404,-5.847251,7.038042,0.223035,2.038387,0.639921,6.400284,-3.643603,-45.825538,4.63583E+18,0.935496,-0.098027,-0.128573,0.314175,0.24664,-10.690759,-18.339791,1.059404,0.838108,-1.267253,18.246685,42.819158,13.655347,4.63582E+18,0.475422,-0.826604,-0.270439,0.132527,-16.02215,-24.572791,-0.710457,-4.242757,1.308718,5.247048,-39.947347,-22.442323,4.966964,4.63582E+18,0.397349,0.597564,-0.239582,0.653936,0
-4.682542,-1.989815,10.738249,-0.59951,0.824729,0.485263,6.928782,-3.546565,-45.878492,4.63583E+18,0.935042,-0.101648,-0.125935,0.315443,-10.515402,-6.821023,-5.5123,2.867088,0.52658,-1.521989,17.851665,43.063277,12.864614,4.63582E+18,0.486785,-0.819492,-0.272731,0.130732,-12.16532,-30.879634,-2.205301,-3.784653,1.069817,5.110437,-40.781858,-20.850999,3.776347,4.63582E+18,0.393757,0.583011,-0.260766,0.661101,0
-5.692416,-0.864634,21.68974,-1.720491,-0.665392,0.522013,6.741487,-3.122306,-45.988359,4.63583E+18,0.933243,-0.107692,-0.130555,0.316883,-11.816353,-5.905346,2.07767,3.976902,0.300972,-2.018983,17.5749,43.344703,11.93288,4.63582E+18,0.501823,-0.809232,-0.276485,0.1299,-6.70565,-33.223877,-1.473266,-3.116179,1.016195,4.773225,-41.60698,-19.256387,2.973728,4.63582E+18,0.389154,0.569688,-0.27921,0.667875,0
3.114609,-4.039247,26.170365,-1.091808,0.867215,0.8417,6.67745,-2.624174,-45.803156,4.63583E+18,0.932087,-0.113483,-0.128235,0.319203,-9.893441,0.686698,2.230897,4.353285,-0.220154,-1.976629,17.184722,43.779712,10.578608,4.63582E+18,0.517318,-0.797651,-0.280891,0.131285,-2.766841,-31.813655,0.029703,-2.353532,1.101968,4.222034,-42.417137,-17.702981,2.349281,4.63582E+18,0.384178,0.557714,-0.293944,0.674507,0
8.435553,-2.068272,14.743959,0.077216,3.058356,0.809352,7.523214,-2.458091,-45.458315,4.63583E+18,0.932595,-0.117618,-0.115853,0.320952,-5.795071,10.369905,2.101051,4.674343,-0.842885,-1.449762,16.67318,44.207198,8.198487,4.63582E+18,0.532648,-0.785322,-0.284619,0.13619,-1.840426,-30.400723,0.647924,-1.610705,1.11288,3.557018,-43.072095,-16.263997,1.57653,4.63582E+18,0.379221,0.547514,-0.304923,0.680766,0
2.281113,0.051609,5.050503,-0.00948,3.418278,0.574921,8.76971,-2.707004,-45.475632,4.63583E+18,0.93337,-0.122436,-0.10228,0.321511,11.53631,12.889566,-15.92371,-0.553238,-0.251942,-1.090576,16.179726,44.182394,6.726224,4.63582E+18,0.531245,-0.785168,-0.288796,0.133741,-1.511364,-31.994175,-0.01287,-0.958959,0.996036,2.866683,-43.437656,-15.10099,0.906267,4.63582E+18,0.374499,0.539423,-0.312594,0.686337,0
-3.480162,1.651636,4.418665,0.256775,2.362049,0.240532,9.807912,-2.77108,-45.506826,4.63583E+18,0.934133,-0.124641,-0.092614,0.321375,13.980323,-16.016414,-43.427343,-7.969366,-0.102389,-0.540064,15.832813,43.677521,8.539162,4.63582E+18,0.505148,-0.801722,-0.294833,0.123052,1.165146,-36.842384,-0.970084,-0.299412,0.864473,2.18929,-43.626627,-14.287781,0.56371,4.63582E+18,0.37001,0.533546,-0.317018,0.691318,0
-3.907444,0.832254,7.455722,0.089305,2.101196,-0.103344,10.577994,-2.564593,-45.145389,4.63583E+18,0.935088,-0.127006,-0.084357,0.319944,7.382111,-29.615442,-29.201921,-7.222449,-0.453511,-0.329471,15.487965,42.908512,11.865697,4.63582E+18,0.480493,-0.815986,-0.300197,0.114781,6.524896,-41.537895,-0.623536,0.318604,0.812034,1.529617,-43.809716,-13.668047,0.362543,4.63582E+18,0.365949,0.529602,-0.318253,0.69593,0
-2.641189,-0.785704,11.601499,0.631167,2.030073,-0.231789,11.445809,-2.839244,-44.742841,4.63583E+18,0.936402,-0.127109,-0.075716,0.318217,3.334055,-18.264106,-12.624938,-8.150003,1.223606,-1.06359,14.939107,42.078886,14.434692,4.63582E+18,0.454617,-0.831124,-0.304851,0.098098,12.329349,-41.164381,1.926373,0.630789,0.874176,0.819812,-43.904157,-13.283388,0.078551,4.63582E+18,0.363324,0.526871,-0.316909,0.699979,0
-1.53243,3.382812,14.671437,0.095976,1.81643,-0.61757,12.467087,-2.917569,-44.529225,4.63583E+18,0.937809,-0.128886,-0.068816,0.314907,-12.262869,-34.751568,-19.823162,-6.424019,2.027722,-1.226214,14.264197,41.113902,16.619075,4.63582E+18,0.435334,-0.842277,-0.307543,0.08044,15.997992,-36.399873,5.876503,0.386934,0.982619,0.043335,-43.872023,-13.209795,-0.249686,4.63582E+18,0.363634,0.524467,-0.314399,0.702751,0
-8.714096,8.793789,33.192319,0.720497,-2.878273,0.868883,12.278023,-2.98639,-44.79093,4.63583E+18,0.936148,-0.122474,-0.078636,0.320069,-14.042453,-56.127785,-44.085504,-0.438779,1.206793,-0.879756,13.660459,40.447153,18.002523,4.63582E+18,0.435671,-0.842292,-0.308624,0.074065,17.274041,-32.672712,9.565325,-0.312721,1.116502,-0.669025,-43.798783,-13.403374,-0.586981,4.63583E+18,0.367724,0.52153,-0.31217,0.703801,0
4.092973,-27.887903,84.969451,4.855782,-8.527523,1.334906,9.911695,-4.202579,-45.304667,4.63583E+18,0.933248,-0.092444,-0.104658,0.330981,7.071812,-73.251728,-49.825624,7.45518,0.112386,1.090528,13.431662,40.813302,17.044998,4.63582E+18,0.461469,-0.82974,-0.302185,0.085218,17.229059,-32.847977,12.247295,-1.240979,1.321166,-1.104212,-43.763542,-13.752873,-1.009719,4.63583E+18,0.375354,0.517108,-0.311388,0.703382,0
33.503877,-116.783625,82.750598,4.983598,-1.635873,-1.590051,7.691716,-6.409475,-45.676991,4.63583E+18,0.936396,-0.070037,-0.104724,0.327553,26.28476,-58.632391,-32.908842,15.830237,0.677623,1.806204,13.574729,42.200529,12.808326,4.63582E+18,0.515393,-0.799959,-0.288408,0.106098,16.845671,-35.9523,14.441046,-1.76539,1.591102,-1.201498,-43.61155,-14.181507,-1.726919,4.63583E+18,0.384711,0.51115,-0.311479,0.702641,0
29.683681,-36.003337,20.484963,4.266435,4.559135,-3.28843,8.53624,-8.180169,-45.308616,4.63583E+18,0.943703,-0.058092,-0.082023,0.315154,11.597304,-23.369666,-31.995273,19.913428,0.201636,0.482917,13.714712,43.646354,6.183625,4.63582E+18,0.579986,-0.755105,-0.276636,0.13002,15.339217,-40.628208,15.046569,-1.374305,1.862822,-1.200684,-43.356584,-14.563041,-2.634712,4.63583E+18,0.393539,0.504961,-0.309954,0.702901,0
16.92564,25.440531,15.180718,2.599897,3.564273,-2.784752,10.479736,-9.08614,-44.663376,4.63583E+18,0.948975,-0.051526,-0.065242,0.304196,-9.826564,-9.805049,-30.074572,19.468823,-0.045679,-0.417678,13.591428,43.985504,-0.610397,4.63582E+18,0.639475,-0.705057,-0.266675,0.151162,14.973193,-41.081657,14.150572,-0.934068,1.938602,-1.40773,-43.174861,-14.86819,-3.444357,4.63583E+18,0.4021,0.499481,-0.306545,0.703467,0
1.689737,15.605576,24.434002,4.643129,0.525632,-1.303871,11.279818,-10.074159,-44.119757,4.63583E+18,0.951563,-0.03341,-0.057538,0.300169,-4.352386,-3.0735,-32.538263,17.141567,0.247226,-0.61158,13.314729,43.383774,-7.136605,4.63582E+18,0.68885,-0.657033,-0.256412,0.16747,20.474729,-30.503219,15.80958,-1.048097,1.807382,-2.058143,-42.901779,-15.496189,-4.201172,4.63583E+18,0.412583,0.49496,-0.302295,0.70243,0
-6.86684,13.210255,6.636116,4.575554,0.241209,-0.448958,11.328151,-11.733443,-43.636535,4.63583E+18,0.952633,-0.015398,-0.050905,0.299437,4.712302,9.287786,-26.490743,14.029994,0.363743,-0.353024,13.017698,42.289112,-12.672175,4.63582E+18,0.726724,-0.61547,-0.246185,0.180172,28.19663,-15.112865,17.326003,-1.260124,1.668537,-3.077101,-42.504863,-16.468135,-4.907309,4.63583E+18,0.426231,0.491668,-0.296745,0.698951,0
-5.448984,15.433679,-13.18019,1.572107,0.193372,-0.075787,11.522664,-12.871618,-43.278434,4.63583E+18,0.952836,-0.009322,-0.048173,0.299492,8.238022,18.180497,-8.175679,10.637243,0.384013,-0.479596,12.801466,40.95035,-16.956692,4.63582E+18,0.754061,-0.582387,-0.238104,0.18848,31.684886,-10.137909,14.697484,-1.113627,1.646046,-4.008245,-42.057745,-17.519263,-5.667719,4.63583E+18,0.442137,0.48971,-0.288814,0.693747,0
-3.79276,14.194248,-4.628689,0.333038,0.399684,0.726702,11.641409,-13.061921,-43.214207,4.63583E+18,0.952004,-0.008584,-0.046136,0.302467,7.321612,27.470809,9.088436,7.172111,0.250992,-1.001662,12.556153,39.712335,-19.670352,4.63582E+18,0.772182,-0.558718,-0.234085,0.191765,30.90619,-15.908654,11.629319,-0.406349,1.677071,-4.725182,-41.360578,-18.922213,-6.471658,4.63583E+18,0.458535,0.489637,-0.277205,0.687865,0
-0.486373,6.54214,4.744528,0.817116,0.059056,1.258536,11.530321,-13.31742,-43.125765,4.63583E+18,0.950427,-0.005599,-0.04482,0.307649,2.874002,27.88997,18.771508,3.443088,-0.031125,-1.426838,12.120214,38.937551,-21.058342,4.63582E+18,0.781241,-0.546079,-0.234808,0.190593,28.112384,-18.89503,11.768517,0.465274,1.573929,-5.390086,-40.380905,-20.701198,-7.076603,4.63583E+18,0.474715,0.492052,-0.261802,0.681168,0
4.795822,2.771037,2.99759,0.811919,-0.553234,0.906978,11.312686,-13.909901,-43.074863,4.63583E+18,0.949153,-0.001783,-0.045943,0.311441,1.005626,19.082134,15.998884,0.162184,-0.307739,-1.736521,11.403396,38.766078,-21.525128,4.63582E+18,0.782693,-0.543516,-0.239707,0.185803,22.207061,-16.132275,13.699922,0.868073,1.259161,-5.922036,-39.268304,-22.638869,-7.445551,4.63583E+18,0.49095,0.496444,-0.244631,0.672806,0
6.466049,0.298054,2.452793,-0.275314,-0.086785,-0.204764,11.0611,-13.910784,-43.293702,4.63583E+18,0.949386,-0.00266,-0.046639,0.310619,-0.076186,12.911246,9.435029,-2.536539,-0.390687,-1.96514,10.568113,39.098578,-21.090891,4.63582E+18,0.778036,-0.549396,-0.247453,0.177738,14.606537,-13.083328,15.941685,1.008353,0.890293,-6.284183,-38.146631,-24.60868,-7.580798,4.63583E+18,0.507198,0.502188,-0.226905,0.662625,0
3.715884,-1.804107,11.916504,-0.209163,0.326532,-0.844047,11.276331,-13.742278,-43.21095,4.63583E+18,0.95052,-0.003685,-0.045621,0.307274,-1.321307,5.931466,2.275593,-4.705511,-0.36622,-2.10348,9.935704,39.737372,-19.848765,4.63582E+18,0.768292,-0.562007,-0.256961,0.166873,9.605121,-10.727092,17.497537,1.417072,0.617545,-6.401944,-37.022281,-26.581618,-7.530192,4.63583E+18,0.522285,0.509293,-0.208214,0.651526,0
1.531815,-2.885008,12.920099,0.390392,-0.250966,-1.038823,11.605924,-13.777682,-42.873044,4.63583E+18,0.951785,-0.00156,-0.046125,0.303275,-1.259695,0.083915,-3.139991,-5.86532,-0.398927,-2.242035,9.13468,40.761613,-17.88687,4.63582E+18,0.755455,-0.577836,-0.267554,0.154302,7.808855,-6.960334,17.147741,2.015827,0.316376,-6.199841,-35.685459,-28.633794,-7.192159,4.63583E+18,0.534902,0.517965,-0.188826,0.640263,0
2.173832,-1.323046,7.443478,-0.159436,-0.401807,-0.791208,11.336304,-13.529151,-43.034901,4.63583E+18,0.952687,-0.001472,-0.047918,0.300148,-0.816833,-2.481504,-5.482293,-6.059492,-0.395117,-2.391667,8.219739,41.884664,-15.886094,4.63582E+18,0.741714,-0.593701,-0.278425,0.140923,8.866234,-2.300101,15.1232,2.509302,-0.114602,-5.993407,-34.057435,-30.594747,-6.535734,4.63583E+18,0.545171,0.528344,-0.169388,0.62845,0
4.990553,-0.795301,10.727134,-0.35373,0.162395,-0.298118,10.990019,-13.209381,-43.249293,4.63583E+18,0.953076,-0.002959,-0.04771,0.298933,0.844594,-2.640499,-4.719458,-5.406944,-0.294192,-2.551114,7.39321,42.79316,-13.96455,4.63582E+18,0.729295,-0.607022,-0.288805,0.127459,11.082204,-0.790742,12.744877,2.811555,-0.521954,-6.014257,-32.400434,-32.317777,-5.740529,4.63583E+18,0.554132,0.540095,-0.14991,0.615436,0
9.858712,0.134601,12.17276,-0.19,0.303379,0.13821,11.190833,-13.334001,-43.051711,4.63583E+18,0.952949,-0.004059,-0.046733,0.29948,3.217099,-1.776649,-2.98711,-4.264574,-0.151943,-2.632274,6.495774,43.513438,-12.160695,4.63582E+18,0.719594,-0.61653,-0.298195,0.114694,11.09552,-2.511905,11.160375,3.115255,-0.793773,-6.087914,-30.775178,-34.09349,-4.746487,4.63583E+18,0.561987,0.552863,-0.129995,0.601344,0
13.756821,1.679889,8.700926,-0.453546,-0.014402,0.369359,11.323975,-13.379314,-43.073044,4.63583E+18,0.952462,-0.005853,-0.047343,0.300898,4.278974,-1.028505,-1.841137,-2.958202,-0.183432,-2.558509,5.311682,44.037812,-10.803221,4.63582E+18,0.712923,-0.621983,-0.306759,0.103811,7.945895,-2.406797,8.832022,3.592754,-1.025625,-6.06636,-29.064818,-35.775617,-3.573253,4.63583E+18,0.568084,0.566848,-0.109364,0.586517,0
12.783795,1.235884,9.968567,-0.608452,-0.193275,0.480668,11.006723,-13.123937,-43.406442,4.63583E+18,0.951789,-0.00806,-0.048853,0.30273,4.811069,-0.002742,-0.683043,-1.671756,-0.303541,-2.347662,4.136253,44.320434,-9.856802,4.63582E+18,0.709195,-0.623704,-0.314512,0.095487,2.004466,1.558755,5.514015,3.896097,-1.383526,-5.91062,-27.281327,-37.070122,-2.263621,4.63583E+18,0.572414,0.581852,-0.089109,0.570833,0
9.451562,-1.35638,11.920068,-0.612602,-0.326182,0.418904,10.797949,-12.796747,-43.423843,4.63583E+18,0.951157,-0.010103,-0.050898,0.304316,6.143409,1.034011,1.051189,-0.613867,-0.325185,-2.083478,3.330488,44.340755,-9.341654,4.63582E+18,0.708001,-0.622565,-0.321184,0.089375,-4.333209,6.904153,2.855485,3.729597,-1.865448,-5.737089,-25.544724,-38.337685,-0.815592,4.63583E+18,0.576048,0.597025,-0.070739,0.553829,0
5.558877,-3.934402,12.563035,-0.54612,-0.331867,0.192412,10.825848,-12.594844,-43.262228,4.63583E+18,0.950804,-0.011827,-0.05289,0.305016,6.88971,0.957723,1.802685,0.12593,-0.319616,-1.808825,2.678879,44.446521,-9.27927,4.63582E+18,0.70858,-0.61957,-0.326828,0.08504,-7.179953,10.253704,0.679939,3.389093,-2.265128,-5.672073,-23.751741,-39.628602,0.768552,4.63583E+18,0.579765,0.611773,-0.054212,0.535413,0
2.379515,-4.890418,13.32203,-0.322941,-0.183365,-0.119995,10.908911,-12.433764,-43.383528,4.63583E+18,0.950887,-0.012787,-0.054024,0.304518,7.05437,0.692584,1.664312,0.706341,-0.356648,-1.546422,1.991856,44.572686,-9.576871,4.63582E+18,0.710474,-0.615169,-0.331679,0.082361,-6.816137,10.288722,-1.761901,3.162735,-2.451701,-5.678253,-21.63946,-40.678953,2.485007,4.63583E+18,0.583543,0.625879,-0.038578,0.516008,0
0.223173,-4.631848,12.349977,-0.148637,0.038858,-0.315196,10.856881,-12.343797,-43.578864,4.63583E+18,0.951275,-0.013294,-0.054067,0.303274,8.427876,1.755427,1.657825,1.162281,-0.343777,-1.275467,1.291959,44.585545,-9.914556,4.63582E+18,0.713422,-0.609765,-0.335622,0.081077,-6.653792,7.605152,-3.899566,2.985123,-2.481043,-5.673358,-19.553286,-41.620115,4.002518,4.63583E+18,0.587286,0.639099,-0.023376,0.496086,0
0.135899,-4.983046,10.226994,-0.053263,-0.029035,-0.380658,10.830354,-12.192,-43.705429,4.63583E+18,0.951734,-0.013322,-0.054262,0.301795,10.398157,3.0107,1.654505,1.371932,-0.23914,-0.940314,0.737892,44.5001,-10.379466,4.63582E+18,0.716899,-0.604209,-0.338315,0.080811,-7.569578,4.598481,-4.5098,3.056398,-2.446178,-5.541362,-17.749509,-42.520923,5.201775,4.63583E+18,0.590093,0.651895,-0.008272,0.476188,0
1.670637,-4.216548,9.454085,-0.022779,-0.186353,-0.323506,10.827967,-12.099656,-43.884031,4.63583E+18,0.952085,-0.013045,-0.055039,0.300557,11.737132,3.349748,1.159059,1.174948,-0.087522,-0.580557,0.427926,44.414647,-10.960777,4.63582E+18,0.719943,-0.599775,-0.339703,0.080957,-7.891253,3.882754,-4.473112,3.547026,-2.29267,-5.272142,-15.74385,-43.05396,6.540182,4.63583E+18,0.590571,0.665066,0.007461,0.457009,0
3.744848,-3.97457,9.836804,0.155193,-0.10105,-0.311923,10.896704,-12.222803,-43.990975,4.63583E+18,0.952448,-0.012171,-0.055253,0.299401,12.648847,2.584543,0.672994,0.672387,0.080421,-0.211338,0.362107,44.33384,-11.385921,4.63582E+18,0.72183,-0.597416,-0.339826,0.081078,-8.05046,4.848988,-5.543406,4.034551,-2.056449,-4.965313,-13.631399,-43.32294,8.14731,4.63583E+18,0.588641,0.678475,0.023849,0.438868,0
5.154379,-2.779384,8.996653,0.371147,0.011558,-0.272589,10.913419,-12.383872,-43.997869,4.63583E+18,0.952797,-0.01059,-0.054748,0.298444,12.534305,0.956443,0.924168,0.016768,0.249554,0.144214,0.480058,44.255956,-11.387934,4.63582E+18,0.722201,-0.597586,-0.338776,0.08092,-9.094734,6.115263,-7.217819,4.22875,-1.865392,-4.707743,-11.830322,-43.603709,9.763278,4.63583E+18,0.585219,0.691515,0.040316,0.421544,0
5.729487,-1.125598,7.066389,0.485536,0.06383,-0.167406,10.982145,-12.680017,-43.90712,4.63583E+18,0.953027,-0.008644,-0.053889,0.297927,10.849773,-1.481773,0.889072,-0.723582,0.358718,0.472412,0.641664,44.295855,-11.099621,4.63582E+18,0.720766,-0.600479,-0.336826,0.080431,-9.677456,7.457994,-8.565422,4.319601,-1.681329,-4.540722,-10.062363,-43.720168,11.483273,4.63583E+18,0.580776,0.70397,0.056884,0.404833,0
4.740554,-1.225476,7.29121,0.581274,0.077579,-0.020492,10.939962,-12.931073,-43.64998,4.63583E+18,0.953077,-0.006367,-0.05285,0.298013,8.929782,-4.177721,0.391659,-1.250097,0.355286,0.790388,0.853147,44.544646,-10.81885,4.63582E+18,0.717884,-0.605382,-0.334258,0.080166,-8.495764,8.743789,-9.719098,4.447989,-1.422209,-4.41226,-8.151061,-43.519294,13.2754,4.63583E+18,0.575259,0.71582,0.073878,0.388871,0
3.920554,-1.173537,8.869966,0.797864,0.000017,0.068024,10.925626,-13.172807,-43.347215,4.63583E+18,0.952996,-0.003154,-0.051847,0.298497,7.631553,-6.601226,-0.372554,-1.266232,0.23533,1.054721,1.170525,44.736004,-10.459181,4.63582E+18,0.714675,-0.610635,-0.331373,0.080968,-6.258095,9.427099,-10.954536,4.443281,-1.125065,-4.257858,-6.248097,-43.165299,15.015068,4.63583E+18,0.569012,0.726727,0.091068,0.373898,0
4.304513,-1.203997,8.372462,0.92327,0.0804,0.127766,10.935442,-13.485634,-43.356162,4.63583E+18,0.952847,0.000445,-0.050367,0.299241,7.219281,-7.906715,-1.646635,-0.846582,0.140339,1.240949,1.547271,44.757455,-10.012526,4.63582E+18,0.71231,-0.614837,-0.328141,0.083143,-4.268121,9.181131,-11.749044,4.194855,-0.853815,-4.092491,-4.582595,-42.855519,16.672193,4.63583E+18,0.562791,0.736217,0.107957,0.359995,0
4.617797,-1.358169,8.215834,0.945542,0.195725,0.138859,10.996731,-13.815259,-43.431802,4.63583E+18,0.952693,0.003986,-0.048401,0.300029,7.849473,-7.969826,-3.34655,-0.170897,0.243577,1.365536,2.08562,44.677945,-9.893753,4.63582E+18,0.711749,-0.617218,-0.324037,0.086344,-3.226947,9.064221,-11.794869,3.679487,-0.626737,-3.925658,-3.162508,-42.549102,18.051006,4.63583E+18,0.557484,0.743822,0.124035,0.347211,0
4.555271,-0.940188,9.425129,0.962695,0.194716,0.131989,11.089592,-14.144802,-43.210607,4.63583E+18,0.95253,0.007597,-0.046416,0.300788,7.905778,-6.69912,-4.302979,0.633209,0.422804,1.437804,2.714924,44.60471,-10.196038,4.63582E+18,0.713443,-0.617352,-0.318914,0.090382,-2.92093,10.491311,-11.189518,2.876447,-0.466812,-3.7598,-1.795274,-42.169405,19.095784,4.63583E+18,0.554091,0.749082,0.138755,0.335569,0
4.901822,-0.869353,9.854468,0.940057,0.145274,0.065919,11.236299,-14.464542,-42.986358,4.63583E+18,0.952426,0.011193,-0.044652,0.301274,6.776996,-4.778101,-3.815996,1.337632,0.511341,1.465575,3.263097,44.561281,-10.447289,4.63582E+18,0.717015,-0.615425,-0.313173,0.095207,-2.459133,13.142008,-10.023491,1.894193,-0.345597,-3.615565,-0.396477,-41.83013,19.898093,4.63583E+18,0.553303,0.751732,0.151886,0.325092,0
5.297006,0.033603,9.868372,0.833109,0.047871,-0.027927,11.463678,-14.79174,-43.014331,4.63583E+18,0.952412,0.014505,-0.043405,0.301359,5.391591,-3.250713,-2.119863,1.917216,0.429778,1.502295,3.82328,44.488288,-11.055791,4.63582E+18,0.721887,-0.611727,-0.307325,0.1011,-1.998651,15.221341,-8.339803,0.887762,-0.234847,-3.480839,0.949625,-41.605781,20.366152,4.63583E+18,0.555273,0.751804,0.163449,0.315828,0
5.783321,0.903884,9.775283,0.624876,-0.01622,-0.160316,11.384038,-15.052631,-42.864309,4.63583E+18,0.952556,0.017094,-0.042664,0.300874,4.780744,-2.202106,-0.429455,2.321895,0.342973,1.532965,4.464818,44.226553,-12.029448,4.63582E+18,0.727579,-0.606739,-0.301453,0.107813,-1.613915,15.89488,-6.539834,-0.050663,-0.199669,-3.329273,2.174998,-41.542635,20.364058,4.63583E+18,0.559843,0.749606,0.173351,0.307598,0
5.89378,1.052232,10.519046,0.420315,-0.001806,-0.280717,11.352885,-15.100558,-42.82357,4.63583E+18,0.952862,0.018875,-0.042113,0.299875,4.049327,-1.805768,0.89216,2.561426,0.286322,1.486203,5.050682,43.875154,-12.747604,4.63582E+18,0.733719,-0.600852,-0.295721,0.114814,-0.383329,15.192527,-5.099092,-0.804814,-0.240178,-3.122232,3.276908,-41.591457,20.138459,4.63583E+18,0.566428,0.745711,0.181513,0.300212,0
5.817678,1.648382,10.735329,0.259412,-0.005172,-0.342848,11.54913,-15.100558,-42.902069,4.63583E+18,0.953254,0.020031,-0.041772,0.298598,2.745866,-2.785187,1.976969,2.612401,0.208466,1.363611,5.606858,43.553752,-13.415872,4.63582E+18,0.739838,-0.594528,-0.290465,0.121682,1.566773,13.327994,-4.196088,-1.217093,-0.27591,-2.85621,4.302275,-41.684467,19.868243,4.63583E+18,0.573891,0.740959,0.188217,0.293603,0
5.347263,1.362854,9.790958,0.076863,0.174496,-0.343047,11.734371,-15.228086,-42.842751,4.63583E+18,0.95369,0.020239,-0.040943,0.297304,2.610318,-3.650879,2.551648,2.29035,0.212628,1.203666,6.111616,43.347659,-14.495506,4.63582E+18,0.745145,-0.588925,-0.285718,0.127642,2.690221,11.392679,-3.829784,-1.330136,-0.264207,-2.574791,5.201507,-41.780882,19.411959,4.63583E+18,0.581259,0.736028,0.193913,0.287745,0
4.206878,0.237074,9.175788,-0.090958,0.21897,-0.270349,11.699263,-15.327927,-42.58812,4.63583E+18,0.954056,0.019713,-0.040151,0.296273,3.794251,-3.400829,2.158589,1.564169,0.331497,1.010362,6.564668,42.996271,-15.328464,4.63582E+18,0.748847,-0.585356,-0.281438,0.131835,2.643183,10.639376,-3.110607,-1.340598,-0.27001,-2.419768,6.058473,-41.835602,18.819728,4.63583E+18,0.588398,0.731102,0.199081,0.282214,0
4.318153,0.28208,10.043646,0.03338,0.194937,-0.176759,11.751152,-15.207372,-42.540403,4.63583E+18,0.95429,0.019694,-0.039308,0.295632,4.63366,-3.224433,1.865937,0.625984,0.430747,0.847934,6.932009,42.670587,-15.503402,4.63582E+18,0.750434,-0.584553,-0.277748,0.134174,2.421304,10.492977,-1.36571,-1.299589,-0.253429,-2.315051,6.998803,-41.966472,18.366752,4.63583E+18,0.5952,0.726251,0.203993,0.276919,0
4.465728,0.510963,8.640483,-0.058898,0.310084,-0.073971,11.895457,-15.046282,-42.621276,4.63583E+18,0.954422,0.01915,-0.038128,0.295394,4.880032,-3.674708,2.242675,-0.313493,0.503348,0.783843,7.342788,42.656573,-15.533188,4.63582E+18,0.749839,-0.586643,-0.274507,0.135047,2.437657,10.440646,0.078956,-1.177067,-0.338357,-2.408512,7.698541,-42.104578,18.061982,4.63583E+18,0.601738,0.721632,0.209093,0.270997,0
3.450142,-0.019605,8.857982,-0.074485,0.23324,0.002383,12.054154,-15.142627,-42.561986,4.63583E+18,0.954449,0.018626,-0.03728,0.295451,5.349468,-5.054703,2.360641,-0.983751,0.583908,0.824631,7.715835,42.908665,-15.456958,4.63582E+18,0.747657,-0.590904,-0.271284,0.135081,2.313233,9.474997,0.894572,-0.933464,-0.276781,-2.341919,8.484148,-42.083172,17.604994,4.63583E+18,0.607343,0.717528,0.214398,0.265183,0
3.394525,1.175367,9.372007,-0.089381,0.126539,0.033188,12.026474,-15.311132,-42.307379,4.63583E+18,0.954421,0.01817,-0.036876,0.295619,5.959655,-6.992053,2.196774,-1.19826,0.630256,0.920817,8.033239,43.071974,-14.976391,4.63582E+18,0.744915,-0.595945,-0.26779,0.135054,6.855292,3.569575,-2.511874,-0.914513,-1.106346,-2.901133,9.860754,-41.967002,17.038819,4.63583E+18,0.614162,0.713785,0.219266,0.255418,0
3.775963,2.953111,8.970332,-0.208139,0.230397,0.068281,12.080742,-15.207392,-42.249825,4.63583E+18,0.954374,0.017108,-0.036207,0.295917,6.297535,-8.864183,2.372842,-1.001434,0.604801,1.025402,8.495219,43.050149,-14.364616,4.63582E+18,0.742543,-0.600452,-0.263993,0.135628,15.349697,-22.452574,4.376834,-1.150169,-1.287264,-0.640766,10.530873,-41.914326,16.734703,4.63583E+18,0.61937,0.711612,0.216672,0.251083,0
3.975233,1.621261,9.075947,-0.436876,0.28809,0.089569,12.35254,-14.918799,-42.504826,4.63583E+18,0.954323,0.015061,-0.035593,0.296268,6.510965,-10.185558,2.499977,-0.540246,0.521667,1.148897,9.117052,42.968954,-14.038514,4.63582E+18,0.741137,-0.603598,-0.259873,0.137296,-5.142066,31.337151,12.431165,0.821472,-0.826505,2.909277,9.643245,-42.059016,16.763226,4.63583E+18,0.61453,0.717169,0.20678,0.255467,0
4.04326,-1.213999,10.3375,-0.445673,0.216714,0.08778,12.473776,-14.85641,-42.714334,4.63583E+18,0.954259,0.013068,-0.035272,0.296605,6.889049,-10.563658,1.719571,0.044496,0.473303,1.297542,9.498102,42.92123,-14.102327,4.63582E+18,0.741041,-0.605053,-0.255186,0.140175,-7.809865,109.251431,-0.796565,1.260467,-1.298921,1.062156,9.049773,-42.346486,16.834009,4.63583E+18,0.610675,0.722673,0.20164,0.253299,0
4.101885,-1.483115,11.623,-0.137228,0.308287,0.147436,12.488173,-14.983881,-42.671884,4.63583E+18,0.954116,0.01218,-0.034209,0.297228,6.983769,-10.865116,0.816815,0.638428,0.499067,1.465461,9.909063,42.865933,-14.2514,4.63582E+18,0.742341,-0.604843,-0.249639,0.144133,16.374974,60.784331,-7.129699,-0.986039,-0.358267,-0.451647,9.457931,-42.569667,16.827701,4.63583E+18,0.614362,0.720162,0.201071,0.251987,0
5.535775,-1.462688,9.13951,-0.04607,0.348269,0.215556,12.556816,-15.015106,-42.49577,4.63583E+18,0.953886,0.011594,-0.032877,0.298137,6.378979,-11.800875,0.32494,1.086,0.493135,1.611057,10.520462,42.62221,-14.434643,4.63582E+18,0.744632,-0.603361,-0.243461,0.149016,6.205481,10.72452,-4.765388,0.326668,0.33412,0.271871,9.56533,-42.520636,16.973159,4.63583E+18,0.612761,0.72088,0.201479,0.2535,0
6.001644,-1.790899,8.285617,0.046722,0.335118,0.263764,12.632463,-14.818979,-42.47696,4.63583E+18,0.953588,0.011387,-0.031484,0.299249,6.535692,-12.682093,1.152042,1.360676,0.46846,1.715668,11.158353,42.219396,-14.868858,4.63582E+18,0.747465,-0.601069,-0.236908,0.154553,3.842326,39.611646,-4.356642,2.179063,-0.438271,-0.624473,9.538026,-42.244566,17.404849,4.63583E+18,0.607162,0.726355,0.204554,0.248838,0
5.971626,-1.671629,8.632204,-0.022582,0.324262,0.313559,12.588039,-14.702321,-42.481762,4.63583E+18,0.953225,0.010911,-0.030223,0.300548,7.258607,-12.670378,2.73166,1.425521,0.485922,1.777637,11.833039,41.87607,-15.362378,4.63582E+18,0.75037,-0.598593,-0.230082,0.160291,19.777804,58.984176,-3.049754,1.07509,-0.681739,-0.918274,9.94616,-41.927155,17.909664,4.63583E+18,0.605375,0.72899,0.206746,0.24362,0
6.035652,-0.917633,9.738197,-0.02513,0.064344,0.228419,12.504991,-14.685506,-42.324885,4.63583E+18,0.952935,0.010761,-0.029993,0.301496,7.133266,-11.600197,3.796499,1.212301,0.484367,1.783244,12.655152,41.644138,-15.762591,4.63582E+18,0.752671,-0.596735,-0.22337,0.165833,12.173717,45.154657,-6.530165,0.780968,-0.197026,-0.01856,10.135621,-41.653924,18.273028,4.63583E+18,0.603134,0.731147,0.207123,0.242391,0
6.182336,2.618426,10.220973,0.21392,-0.086441,0.014624,12.625442,-14.812969,-42.208006,4.63583E+18,0.952882,0.011777,-0.030051,0.301618,6.524739,-10.533276,5.295366,0.984353,0.451123,1.755972,13.429943,41.352718,-16.256184,4.63582E+18,0.754333,-0.595495,-0.21697,0.171148,-2.297669,34.202533,-10.403016,2.071313,-0.000433,0.220572,9.983248,-41.42201,18.654635,4.63583E+18,0.596524,0.736523,0.208561,0.241237,0
5.478378,4.216888,7.210439,-0.064918,-0.068428,-0.195012,12.855128,-14.91282,-42.335825,4.63583E+18,0.953109,0.011689,-0.030378,0.300873,4.982185,-9.768717,5.872394,0.76124,0.402713,1.693225,14.071577,41.005132,-16.644021,4.63582E+18,0.755391,-0.594825,-0.211024,0.176174,-0.811402,26.398747,-8.125312,2.624048,0.185464,0.291283,9.962841,-41.145956,19.376539,4.63583E+18,0.587926,0.743073,0.21078,0.240326,0
3.729511,2.426639,8.839878,-0.22632,-0.165112,-0.337068,12.962044,-14.802213,-42.460124,4.63583E+18,0.953507,0.011099,-0.031283,0.299539,3.349994,-8.605577,5.16604,0.529073,0.335535,1.616188,14.653238,40.790742,-16.597767,4.63582E+18,0.755827,-0.594734,-0.205638,0.180912,1.712375,20.902516,-3.003499,2.270027,0.563113,0.682429,9.820983,-40.841189,20.429504,4.63583E+18,0.579634,0.748637,0.212335,0.241826,0
3.237004,0.304002,10.678803,-0.077565,-0.19806,-0.417852,12.849041,-14.574913,-42.413148,4.63583E+18,0.953991,0.011151,-0.032129,0.2979,2.741827,-8.092381,5.037525,0.33698,0.291586,1.527334,15.226986,40.632047,-16.466227,4.63582E+18,0.755781,-0.595111,-0.200747,0.185306,0.920469,17.838239,-1.435412,1.509679,0.641167,0.745858,9.328739,-40.667972,21.287032,4.63583E+18,0.573534,0.752282,0.213098,0.244376,0
3.24975,-0.940527,8.605072,-0.10578,-0.098551,-0.419526,12.621758,-14.517009,-42.317906,4.63583E+18,0.954489,0.010968,-0.032614,0.296254,1.910996,-8.978749,4.650936,0.141627,0.255764,1.418165,15.804958,40.358666,-16.641371,4.63582E+18,0.755275,-0.59596,-0.196382,0.189275,3.004164,10.609817,-2.082851,0.43748,0.47959,0.351924,8.907435,-40.638447,21.620899,4.63583E+18,0.57132,0.753153,0.213611,0.246422,0
2.935999,-1.784452,8.343641,-0.108261,-0.123434,-0.365131,12.573626,-14.455807,-42.298653,4.63583E+18,0.954914,0.010798,-0.033202,0.294823,2.714671,-7.959151,2.41518,-0.111074,0.243664,1.213942,16.301683,39.955346,-16.688568,4.63582E+18,0.754269,-0.597409,-0.192756,0.19242,6.275264,2.467741,-2.704559,-0.394873,0.152275,-0.170864,8.871249,-40.676254,21.472796,4.63583E+18,0.572543,0.751908,0.214129,0.246936,0
2.993735,-1.735173,8.873918,-0.094388,-0.115932,-0.327621,12.632427,-14.372757,-42.377055,4.63583E+18,0.955291,0.010668,-0.033745,0.293542,8.996617,-0.977293,0.87829,-0.1934,0.416485,0.950197,16.452906,40.025494,-16.591465,4.63582E+18,0.753391,-0.59903,-0.189305,0.194237,9.680506,-6.220377,-2.004357,-0.78871,0.069638,-0.408481,9.06144,-40.749494,21.138493,4.63583E+18,0.575312,0.749591,0.214788,0.246972,0
