Accelerometer-X,Accelerometer-Y,Accelerometer-Z,Gyroscope-X,Gyroscope-Y,Gyroscope-Z,Magnetometer-X,Magnetometer-Y,Magnetometer-Z,Barometer-pressure,Orientation-S,Orientation-X,Orientation-Y,Orientation-Z,Accelerometer-X,Accelerometer-Y,Accelerometer-Z,Gyroscope-X,Gyroscope-Y,Gyroscope-Z,Magnetometer-X,Magnetometer-Y,Magnetometer-Z,Barometer-pressure,Orientation-S,Orientation-X,Orientation-Y,Orientation-Z,Accelerometer-X,Accelerometer-Y,Accelerometer-Z,Gyroscope-X,Gyroscope-Y,Gyroscope-Z,Magnetometer-X,Magnetometer-Y,Magnetometer-Z,Barometer-pressure,Orientation-S,Orientation-X,Orientation-Y,Orientation-Z,jump
-7.555889,-0.633836,0.199097,-0.371553,0.122628,0.181336,43.947126,5.421511,10.83596,4.63583E+18,0.76143,0.091927,0.610426,-0.197875,-9.203613,-2.725304,-0.514249,-0.078377,0.210893,0.459638,43.675805,-2.130952,16.212189,4.63583E+18,-0.657946,0.37689,-0.63105,-0.163818,-8.508029,0.883707,-0.976165,1.600625,-0.810706,3.215711,44.471674,13.225404,1.966987,4.63583E+18,0.458278,0.606581,0.421118,-0.494673,0
-7.979343,-0.907976,-0.105136,-0.340047,0.160674,0.215804,43.830707,5.237459,10.73547,4.63583E+18,0.761289,0.091688,0.611156,-0.196266,-9.182257,-2.230152,-0.453964,-0.06983,0.193335,0.436272,43.505662,-2.216405,16.498299,4.63583E+18,-0.656991,0.376058,-0.632259,-0.164899,-8.611421,1.157368,-1.353426,1.542249,-0.765639,3.153804,44.735035,12.1209,1.591425,4.63583E+18,0.462062,0.613433,0.408668,-0.493142,0
-8.379344,-1.390063,-0.195814,-0.296015,0.151807,0.227064,43.739124,5.15718,10.825091,4.63583E+18,0.761161,0.091611,0.611816,-0.194737,-9.271509,-1.957034,-0.520331,-0.07744,0.17124,0.41371,43.575077,-2.381947,16.516617,4.63583E+18,-0.656096,0.375289,-0.633364,-0.165973,-8.542847,1.132954,-1.710305,1.403122,-0.719152,3.080911,45.0658,10.975219,1.136888,4.63583E+18,0.465874,0.619861,0.396692,-0.491294,0
-8.698638,-1.839961,-0.038095,-0.253488,0.136601,0.213801,43.775256,5.114902,10.979127,4.63583E+18,0.761043,0.091622,0.612397,-0.193363,-9.483596,-2.043961,-0.685116,-0.06596,0.137796,0.378263,43.671971,-2.621505,16.436519,4.63583E+18,-0.655328,0.374557,-0.634328,-0.166972,-8.514937,1.11204,-1.978839,1.227802,-0.677601,2.995673,45.391245,9.946955,0.770706,4.63583E+18,0.469803,0.625772,0.385299,-0.489121,0
-8.998667,-2.187841,0.275046,-0.219184,0.143003,0.182538,43.824577,5.078769,11.118082,4.63583E+18,0.760868,0.091667,0.612981,-0.192174,-9.611786,-1.86776,-0.821692,-0.049137,0.100611,0.353961,43.758189,-2.796997,16.351066,4.63583E+18,-0.6547,0.373817,-0.635163,-0.167917,-8.437574,1.11142,-2.248568,1.02201,-0.637726,2.91246,45.563313,8.775044,0.404484,4.63583E+18,0.47395,0.631118,0.374552,-0.486593,0
-9.281302,-2.606633,0.572758,-0.171415,0.152788,0.146718,43.829738,4.962357,11.313387,4.63583E+18,0.760621,0.09178,0.613571,-0.191215,-9.791053,-1.821201,-0.692808,-0.027043,0.058225,0.31745,43.454625,-2.727613,16.334272,4.63583E+18,-0.654243,0.373083,-0.635839,-0.16877,-8.211466,0.947373,-2.530501,0.833316,-0.605022,2.830723,45.746421,7.603147,0.058087,4.63583E+18,0.478299,0.635928,0.364406,-0.48377,0
-9.565348,-2.857923,0.681729,-0.095012,0.106023,0.110357,43.867751,4.870754,11.343553,4.63583E+18,0.760434,0.092004,0.613965,-0.190585,-9.962722,-1.544313,-0.740821,-0.005613,0.024509,0.284069,43.273765,-2.733692,16.516565,4.63583E+18,-0.653931,0.372354,-0.636386,-0.169528,-8.019618,0.39521,-2.786178,0.682834,-0.57486,2.753621,45.922526,6.431363,-0.084287,4.63583E+18,0.482774,0.64029,0.354773,-0.480723,0
-9.746668,-2.82607,0.768067,-0.001593,-0.011536,0.088248,43.946152,4.834631,11.153405,4.63583E+18,0.760559,0.092164,0.613953,-0.190048,-9.996329,-1.800482,-0.778971,0.009741,0.00141,0.255965,43.423195,-2.963256,16.711861,4.63583E+18,-0.653723,0.371641,-0.636836,-0.170203,-7.665085,-0.101281,-2.721129,0.572456,-0.533764,2.673763,46.039381,5.26644,-0.089549,4.63583E+18,0.487255,0.644307,0.345607,-0.4775,0
-9.619567,-2.569353,1.026671,0.094897,-0.11189,0.085573,43.928406,4.785302,11.088976,4.63583E+18,0.760901,0.092542,0.613548,-0.189802,-9.986418,-2.356831,-0.712602,0.063759,-0.030044,0.233188,43.594173,-3.127395,16.644026,4.63583E+18,-0.653697,0.370818,-0.637203,-0.170722,-7.577185,-0.879012,-2.893075,0.448043,-0.508027,2.583017,46.221324,4.206215,-0.280247,4.63583E+18,0.491791,0.647911,0.336941,-0.474155,0
-9.214463,-2.178716,1.327708,0.189809,-0.087679,0.08685,43.769711,4.785302,11.269188,4.63583E+18,0.761079,0.093455,0.613112,-0.190048,-9.894091,-1.980608,-0.696584,0.094334,-0.062089,0.211758,43.604843,-3.057183,16.455561,4.63583E+18,-0.653818,0.369946,-0.637471,-0.171151,-6.871617,-1.46611,-2.474637,0.345985,-0.48326,2.462228,46.39919,3.509305,-0.657473,4.63583E+18,0.496271,0.651112,0.328815,-0.470796,0
-8.746319,-1.850006,1.332136,0.264951,0.073763,0.090252,43.709043,4.821415,11.433178,4.63583E+18,0.760817,0.094744,0.613126,-0.190413,-9.853664,-1.747188,-0.787376,0.096133,-0.09413,0.178381,43.604843,-3.063295,16.534926,4.63583E+18,-0.654051,0.369133,-0.637601,-0.171533,-6.666782,-1.915635,-2.764619,0.468756,-0.479192,2.333029,46.621235,2.802439,-0.996942,4.63583E+18,0.500107,0.654332,0.320771,-0.467813,0
-8.464035,-1.543998,0.97782,0.338719,0.272114,0.111357,43.823539,4.906856,11.38487,4.63583E+18,0.760097,0.096275,0.613732,-0.19057,-9.691156,-1.413015,-0.862146,0.10114,-0.132182,0.155216,43.53618,-3.132723,16.449479,4.63583E+18,-0.654408,0.368341,-0.637594,-0.171898,-3.124694,4.076965,-1.665524,0.263363,-0.494399,2.104692,46.634608,2.090343,-1.090534,4.63583E+18,0.504032,0.65673,0.31369,-0.465033,0
-8.463845,-1.122425,0.582363,0.400493,0.396655,0.135112,43.886136,4.920105,11.369728,4.63583E+18,0.759046,0.098163,0.614672,-0.190762,-9.703359,-2.192736,-0.489068,0.096467,-0.169634,0.132785,43.600264,-3.137303,16.260266,4.63583E+18,-0.654873,0.367594,-0.637447,-0.172271,-7.806396,-5.184928,-3.959236,0.043732,-0.464201,1.605463,46.664828,1.246945,-1.290462,4.63583E+18,0.50752,0.658032,0.308443,-0.462904,0
-8.719163,-0.699794,0.422102,0.411373,0.440888,0.141327,43.738792,4.803707,11.555066,4.63583E+18,0.757816,0.100335,0.615706,-0.191191,-9.762099,-2.188948,-0.338011,0.087122,-0.198004,0.127377,43.765045,-3.217402,16.156511,4.63583E+18,-0.655402,0.366867,-0.637207,-0.172697,-6.892746,-15.579351,-4.265678,0.800293,-0.292008,1.138814,46.750278,0.63947,-1.738669,4.63583E+18,0.507791,0.66064,0.303368,-0.462245,0
-9.114407,-0.354224,0.363486,0.374957,0.448502,0.133896,43.604843,4.712058,11.731315,4.63583E+18,0.75657,0.102379,0.616791,-0.191544,-9.651509,-2.082153,-0.272393,0.0685,-0.221768,0.126108,43.855836,-3.222754,16.241926,4.63583E+18,-0.655966,0.366176,-0.636886,-0.173206,-4.47821,-11.12719,-3.382722,0.843591,-0.331181,0.891039,46.827599,0.197664,-1.895062,4.63583E+18,0.507499,0.662932,0.2988,-0.46226,0
-9.591864,-0.041988,0.195002,0.31084,0.425113,0.120793,43.635783,4.748154,11.767411,4.63583E+18,0.755467,0.103938,0.617895,-0.191502,-9.918472,-2.899126,0.074715,0.118356,-0.226247,0.134051,43.781103,-3.222754,16.248055,4.63583E+18,-0.656611,0.365324,-0.636601,-0.17361,-6.170034,-13.389522,-2.191026,0.732074,-0.284781,0.284982,46.812516,-0.006406,-1.824099,4.63583E+18,0.50628,0.66431,0.296214,-0.463282,0
-10.078768,0.232245,0.076505,0.243126,0.372087,0.100426,43.611062,4.833602,11.94051,4.63583E+18,0.754438,0.105418,0.618854,-0.191653,-9.982597,-2.43927,0.315071,0.177838,-0.199414,0.15361,43.707092,-3.382952,15.984871,4.63583E+18,-0.65726,0.364276,-0.63646,-0.17387,-5.810276,-20.421484,-1.681352,0.558448,-0.319279,-0.461158,46.658462,0.085953,-2.02693,4.63583E+18,0.504138,0.664326,0.295952,-0.465755,0
-10.504635,0.45386,0.231693,0.223055,0.341143,0.071302,43.457532,4.815944,12.233467,4.63583E+18,0.753471,0.106735,0.619742,-0.191857,-9.882697,-2.05022,0.18088,0.183587,-0.185595,0.151878,43.782584,-3.382218,15.784244,4.63583E+18,-0.657882,0.363226,-0.636358,-0.174088,-5.33368,-25.224321,-0.800183,0.517031,-0.27277,-1.34372,46.556719,0.492764,-2.408251,4.63583E+18,0.500329,0.66324,0.298306,-0.46989,0
-10.859186,0.604679,0.53362,0.284539,0.36728,0.047994,43.372906,4.724265,12.443963,4.63583E+18,0.752388,0.108205,0.620671,-0.192279,-10.024507,-2.140827,-0.195169,0.14168,-0.188793,0.148674,43.856593,-3.232734,16.04652,4.63583E+18,-0.65845,0.362296,-0.636211,-0.174413,-6.62806,-31.382627,-2.074139,0.643424,0.027506,-2.220928,46.52652,1.075084,-2.6468,4.63583E+18,0.494047,0.66187,0.303443,-0.47515,0
-11.050956,0.62122,0.726749,0.372524,0.418383,0.026157,43.439914,4.791274,12.459144,4.63583E+18,0.751112,0.109935,0.621697,-0.192974,-9.81713,-1.32484,-0.86036,0.093815,-0.227099,0.137462,43.792562,-3.382911,16.15646,4.63583E+18,-0.659055,0.361499,-0.635907,-0.174892,-10.01207,-18.680117,-7.67078,1.721591,0.588828,-2.193148,46.441059,1.856434,-2.357892,4.63583E+18,0.484078,0.663786,0.30749,-0.480111,0
-11.072115,0.41073,0.784527,0.388072,0.478385,-0.020648,43.531601,4.882961,12.438797,4.63583E+18,0.749629,0.111641,0.622915,-0.193827,-9.630948,-1.486926,-0.971986,0.042746,-0.282704,0.1137,43.63924,-3.702532,15.888047,4.63583E+18,-0.659746,0.360864,-0.635376,-0.175525,-19.640421,13.431044,-14.156808,1.278228,0.48799,-1.821841,46.362559,2.629513,-1.991714,4.63583E+18,0.47615,0.665002,0.311159,-0.483976,0
-11.113344,-0.169239,0.800535,0.328518,0.512356,-0.082933,43.464603,4.852039,12.653092,4.63583E+18,0.748031,0.113025,0.624313,-0.194702,-10.179983,-2.725566,-0.656279,0.034517,-0.326303,0.108152,43.709337,-3.723258,15.698027,4.63583E+18,-0.660544,0.360234,-0.63471,-0.176229,-24.962684,12.9196,-10.174228,-0.544191,0.194575,-1.97289,46.357288,3.334507,-1.653272,4.63583E+18,0.473308,0.661758,0.318314,-0.486551,0
-11.185233,-0.825448,0.700726,0.278029,0.393531,-0.137336,43.372906,4.917931,12.997331,4.63583E+18,0.746716,0.114013,0.625403,-0.19567,-10.503556,-2.212906,-0.749169,0.025173,-0.356013,0.113888,43.863412,-3.483052,15.766582,4.63583E+18,-0.6614,0.359592,-0.633962,-0.177018,-16.51015,-3.582567,-0.099445,-0.942761,0.330709,-2.174722,46.403301,4.126832,-1.569625,4.63583E+18,0.470934,0.657676,0.327074,-0.488575,0
-11.108516,-0.988579,0.522232,0.269692,0.103801,-0.183878,43.341995,5.066072,13.159581,4.63583E+18,0.74612,0.114618,0.625619,-0.196898,-10.076688,-1.761139,-0.88268,-0.006459,-0.374844,0.106285,43.873409,-3.546971,15.771965,4.63583E+18,-0.662263,0.359042,-0.633126,-0.177898,-13.055343,-4.710414,1.722114,-0.679033,0.345935,-2.047766,46.298708,4.908097,-1.386516,4.63583E+18,0.468031,0.654254,0.334949,-0.490619,0
-10.855974,-0.555739,0.642275,0.300706,-0.171427,-0.221243,43.294509,5.030013,13.0411,4.63583E+18,0.746189,0.115007,0.624969,-0.198468,-9.692105,-2.442626,-0.513676,0.011472,-0.387998,0.114754,43.964913,-3.78112,15.417378,4.63583E+18,-0.663179,0.358409,-0.632279,-0.178773,-15.181565,2.775408,0.398863,-0.422257,0.324229,-1.997714,46.127824,5.689286,-1.203425,4.63583E+18,0.464524,0.651304,0.342094,-0.492943,0
-10.683383,0.141966,1.310275,0.334448,-0.316461,-0.233356,43.251395,5.08364,12.791244,4.63583E+18,0.746607,0.115348,0.623843,-0.200231,-9.679701,-2.822021,0.060743,0.055854,-0.39381,0.132374,44.051135,-3.796502,15.038948,4.63583E+18,-0.664162,0.357601,-0.631473,-0.179588,-14.741317,1.532562,0.985855,-0.246957,0.222566,-1.899816,45.970771,6.455553,-1.038784,4.63583E+18,0.460854,0.648576,0.348393,-0.495566,0
-10.695017,0.758545,2.109749,0.292929,-0.368192,-0.215684,43.26894,5.363799,12.70733,4.63583E+18,0.747194,0.115552,0.622582,-0.201843,-10.012142,-2.958694,0.463641,0.079763,-0.378135,0.134519,44.125142,-3.796502,14.923611,4.63583E+18,-0.665136,0.356733,-0.63073,-0.180322,-13.485741,0.429568,0.101687,-0.324389,0.181337,-1.919691,45.924427,7.085049,-1.050991,4.63583E+18,0.457381,0.645541,0.354803,-0.498191,0
-10.720009,1.304061,2.405436,0.221876,-0.395013,-0.170857,43.432786,5.585264,12.710393,4.63583E+18,0.747919,0.115628,0.621274,-0.203143,-9.668506,-1.674036,0.122317,0.097191,-0.34103,0.136588,44.061142,-3.87656,14.917447,4.63583E+18,-0.666035,0.355837,-0.630104,-0.180961,-16.634011,0.149611,-1.204194,-0.552974,0.225605,-1.945008,45.67617,7.781948,-1.053974,4.63583E+18,0.454373,0.642077,0.361816,-0.500371,0
-10.680149,1.929266,2.11919,0.20063,-0.436182,-0.133402,43.526452,5.627613,12.52845,4.63583E+18,0.748788,0.1157,0.619834,-0.204291,-9.220736,-1.724188,0.394981,0.113279,-0.306584,0.127717,44.136568,-3.950567,14.825963,4.63583E+18,-0.666873,0.354945,-0.629571,-0.181481,-17.825388,-2.735137,0.622509,-0.492084,0.089932,-1.838063,45.519102,8.504965,-0.968522,4.63583E+18,0.451599,0.638562,0.368134,-0.502767,0
-10.804438,2.589005,1.784193,0.143736,-0.485583,-0.159142,43.483359,5.6585,12.242552,4.63583E+18,0.749788,0.115485,0.6183,-0.205396,-10.11844,-2.89986,0.472229,0.150313,-0.289413,0.113101,44.290631,-3.955199,14.831223,4.63583E+18,-0.667729,0.354001,-0.629091,-0.181838,-16.05696,-2.850536,1.752069,-0.211271,0.156951,-1.497734,45.480851,9.340556,-0.883071,4.63583E+18,0.448663,0.636203,0.373065,-0.504747,0
-11.337302,3.050088,2.202491,-0.026642,-0.563842,-0.242368,43.500862,5.803814,11.944426,4.63583E+18,0.750995,0.114456,0.616703,-0.206359,-10.443956,-2.269698,0.201673,0.159748,-0.280396,0.12116,44.300667,-3.726519,14.729089,4.63583E+18,-0.668569,0.353015,-0.628654,-0.182179,-14.444375,-4.829557,-0.886993,0.022124,0.299946,-1.385652,45.311119,9.848837,-0.796477,4.63583E+18,0.445106,0.634729,0.377461,-0.506481,0
-11.752495,3.064512,3.058003,-0.300948,-0.751515,-0.320301,43.659551,5.981036,11.685582,4.63583E+18,0.752741,0.112207,0.614787,-0.206949,-10.404575,-2.08454,0.160243,0.203242,-0.255844,0.132774,44.140593,-3.550976,14.356243,4.63583E+18,-0.669399,0.351895,-0.628335,-0.182402,-13.128726,-2.555342,-0.955173,0.260066,0.38917,-1.262371,45.159332,10.095746,-0.708029,4.63583E+18,0.441023,0.634056,0.381182,-0.508106,0
-11.149776,2.592751,3.171048,-0.546191,-0.957407,-0.325649,43.782212,6.025311,11.407935,4.63583E+18,0.755111,0.108996,0.612429,-0.207021,-10.389274,-2.841331,0.295903,0.309201,-0.2142,0.143523,44.06116,-3.780259,14.331491,4.63583E+18,-0.670265,0.350483,-0.628226,-0.182316,-12.393107,1.99602,-0.95883,0.086708,0.277336,-1.133749,45.080788,10.494438,-0.69997,4.63583E+18,0.437836,0.633012,0.384715,-0.5095,0
-9.693144,1.940015,2.595385,-0.663121,-0.945937,-0.264408,43.860602,5.982225,11.063615,4.63583E+18,0.757542,0.105581,0.610166,-0.206592,-10.399932,-3.487647,0.408078,0.45422,-0.178482,0.194217,44.067951,-4.105181,14.525845,4.63583E+18,-0.671208,0.348558,-0.628399,-0.181939,-10.250325,1.953271,-2.020415,-0.15797,0.247516,-1.089844,45.061683,10.969325,-0.605328,4.63583E+18,0.435425,0.631513,0.388587,-0.510487,0
-8.346797,1.375987,2.368346,-0.708819,-0.662174,-0.172259,43.87401,5.968818,10.818879,4.63583E+18,0.759335,0.102498,0.608786,-0.205628,-10.343545,-3.253561,0.152105,0.506591,-0.144234,0.203609,44.137322,-4.126102,14.447558,4.63583E+18,-0.672127,0.346487,-0.628718,-0.1814,-8.512098,-0.235745,-3.795707,-0.264792,0.189008,-1.016017,44.96128,11.426307,-0.422217,4.63583E+18,0.433537,0.6298,0.392378,-0.511309,0
-7.559422,0.906388,2.728893,-0.745637,-0.293609,-0.059767,43.788563,6.01825,10.783066,4.63583E+18,0.760296,0.099899,0.608548,-0.204056,-9.825211,-2.869124,-0.300152,0.399469,-0.098049,0.155,44.221996,-3.886021,14.166979,4.63583E+18,-0.672804,0.344876,-0.629013,-0.180939,-8.038576,-0.884594,-4.439425,-0.323657,0.141669,-0.961542,44.724032,11.808893,-0.247156,4.63583E+18,0.431988,0.627956,0.396058,-0.51205,0
-7.2968,0.468839,2.993339,-0.772897,-0.06253,0.068754,43.708256,5.987381,10.935308,4.63583E+18,0.760784,0.097735,0.609006,-0.201909,-9.355957,-3.621638,-0.706825,0.331997,-0.063058,0.143675,44.227421,-3.789729,14.056932,4.63583E+18,-0.673299,0.343509,-0.629336,-0.180572,-8.848681,0.019547,-3.880191,-0.411027,0.080483,-0.906665,44.577278,12.115225,-0.142598,4.63583E+18,0.430878,0.625903,0.399664,-0.512697,0
-7.388786,-0.013678,2.796026,-0.785371,0.010749,0.208339,43.665882,5.872986,10.96286,4.63583E+18,0.761201,0.095947,0.609643,-0.199256,-9.509352,-3.422947,-0.595272,0.351926,-0.08589,0.18314,44.296008,-3.864312,14.142169,4.63583E+18,-0.673851,0.341965,-0.629666,-0.180296,-9.30319,0.136318,-3.378727,-0.454543,0.019517,-0.847521,44.645494,12.424543,-0.00502,4.63583E+18,0.430102,0.623728,0.403092,-0.513315,0
-7.729339,-0.512843,2.499229,-0.792175,0.074913,0.334641,43.696742,5.66609,10.836267,4.63583E+18,0.761553,0.09451,0.610432,-0.196158,-9.373207,-2.46875,-0.391675,0.387556,-0.070589,0.175858,44.392094,-4.029742,14.14838,4.63583E+18,-0.674417,0.34035,-0.630053,-0.179883,-9.330326,-0.580339,-3.192472,-0.388773,-0.010153,-0.785204,44.542093,12.649592,-0.169755,4.63583E+18,0.429332,0.621702,0.406158,-0.514001,0
-8.168805,-0.863569,2.117511,-0.775572,0.192529,0.419067,43.775129,5.384017,10.776598,4.63583E+18,0.761659,0.093436,0.611539,-0.192785,-8.757319,-2.096264,-0.527012,0.418876,-0.036427,0.141174,44.398327,-4.189233,14.15981,4.63583E+18,-0.674961,0.338762,-0.630508,-0.179241,-9.496623,-0.820433,-2.699553,-0.286543,-0.025736,-0.73057,44.398327,12.822035,-0.134608,4.63583E+18,0.428435,0.61991,0.408831,-0.514794,0
-8.633963,-0.89945,1.53927,-0.702931,0.297523,0.456776,43.82972,5.025498,10.927602,4.63583E+18,0.761489,0.092772,0.612897,-0.189433,-8.86467,-2.018111,-0.43426,0.409849,-0.02818,0.116857,44.318319,-4.199347,14.069151,4.63583E+18,-0.675487,0.337269,-0.630943,-0.178543,-9.643932,-0.232267,-1.804971,-0.188108,-0.027206,-0.685744,44.383415,13.128367,0.106836,4.63583E+18,0.427378,0.618359,0.41117,-0.515674,0
-9.134432,-0.598087,0.945664,-0.608154,0.296424,0.450528,43.836784,4.718457,11.052842,4.63583E+18,0.761271,0.092391,0.614172,-0.186342,-8.623393,-1.694272,0.406895,0.334112,-0.015774,0.070367,44.392862,-4.050799,14.142916,4.63583E+18,-0.675906,0.336119,-0.63129,-0.177895,-10.01048,0.021791,-0.923096,-0.097984,-0.030439,-0.652266,44.230453,13.429699,0.186143,4.63583E+18,0.426162,0.617014,0.41322,-0.516651,0
-9.516671,-0.123921,0.429106,-0.511176,0.153217,0.411903,43.872779,4.626606,11.059907,4.63583E+18,0.761345,0.092106,0.614926,-0.183674,-8.857635,-0.941025,1.720957,0.085003,-0.003955,-0.019702,44.31833,-3.960655,14.239804,4.63583E+18,-0.676012,0.335916,-0.631359,-0.177632,-10.113816,0.266308,-0.535229,-0.010111,-0.012949,-0.627269,44.133952,13.59221,0.097659,4.63583E+18,0.424742,0.6159,0.415045,-0.517686,0
-9.566728,0.297513,0.079651,-0.397842,-0.037685,0.362321,43.989074,4.657454,11.095896,4.63583E+18,0.761818,0.091919,0.615001,-0.181541,-8.566225,-0.514015,2.069541,-0.297622,0.012795,-0.133631,44.232876,-3.875202,14.154615,4.63583E+18,-0.675622,0.337103,-0.631032,-0.178031,-9.919643,0.653151,-0.672589,0.008404,0.006509,-0.618924,44.056519,13.909603,0.105678,4.63583E+18,0.423255,0.61487,0.41684,-0.518685,0
-9.38363,0.591106,0.16771,-0.275521,-0.153309,0.314371,44.116917,4.669007,11.227607,4.63583E+18,0.762502,0.091911,0.614633,-0.179918,-8.385228,-0.328342,2.213144,-0.830436,0.074869,-0.255963,44.227421,-3.869747,13.965576,4.63583E+18,-0.674406,0.340154,-0.630307,-0.179399,-9.76517,1.179536,-1.045647,-0.072674,0.005974,-0.612516,44.040482,14.218974,0.175093,4.63583E+18,0.421988,0.613703,0.418791,-0.519529,0
-9.241643,0.840395,0.636093,-0.199012,-0.166124,0.262762,44.130402,4.554639,11.304694,4.63583E+18,0.763147,0.092004,0.614184,-0.178659,-8.111501,-0.591595,1.307738,-1.224091,0.071045,-0.33681,44.227421,-4.029698,14.135864,4.63583E+18,-0.672689,0.344514,-0.62915,-0.181575,-9.872357,1.051767,-1.141387,-0.144267,-0.008745,-0.605807,43.877607,14.44288,0.088506,4.63583E+18,0.42094,0.612384,0.42085,-0.520269,0
-9.217871,1.029914,0.970806,-0.191085,-0.131946,0.19289,44.014123,4.383753,11.137023,4.63583E+18,0.763653,0.091957,0.613866,-0.177615,-7.099403,0.166631,1.279435,-1.843557,0.259463,-0.459786,44.307407,-4.189195,14.331204,4.63583E+18,-0.669651,0.351059,-0.627847,-0.184752,-9.815143,0.240716,-1.391615,-0.135387,-0.012083,-0.596394,43.807027,14.590512,0.008008,4.63583E+18,0.419894,0.611085,0.422858,-0.521013,0
-9.284041,1.158393,1.013214,-0.210534,-0.09642,0.107952,43.922237,4.253969,10.979594,4.63583E+18,0.764011,0.091657,0.613707,-0.176778,-6.974338,-5.447174,-4.008097,-1.877215,0.303369,-0.32789,44.312874,-4.130796,14.160895,4.63583E+18,-0.666304,0.357364,-0.626793,-0.18831,-9.599949,0.253227,-2.109956,-0.14783,-0.028235,-0.587918,43.873409,14.764041,0.094592,4.63583E+18,0.418923,0.60974,0.42484,-0.521758,0
-9.367563,1.319024,1.085152,-0.23617,-0.042848,0.02379,43.958207,4.108786,11.068877,4.63583E+18,0.764179,0.091099,0.613769,-0.176123,-9.598205,-4.509824,1.068107,-0.745077,0.098553,-0.044391,44.244322,-4.274629,14.159806,4.63583E+18,-0.664931,0.359611,-0.626457,-0.189996,-9.773911,0.668433,-2.185575,-0.197928,-0.054705,-0.57106,43.857432,15.080258,0.18197,4.63583E+18,0.418161,0.608275,0.426839,-0.522447,0
-9.444666,1.460365,1.245769,-0.265849,0.026242,-0.051482,43.940901,3.931443,11.187119,4.63583E+18,0.764126,0.090305,0.614101,-0.175604,-7.39028,-3.493645,0.549314,0.073184,0.283324,0.12232,44.251056,-4.673253,14.34339,4.63583E+18,-0.664165,0.359299,-0.627527,-0.189731,-9.826268,0.388009,-1.924655,-0.24247,-0.066994,-0.566088,43.679679,15.371749,0.145797,4.63583E+18,0.417541,0.60671,0.428898,-0.523076,0
-9.416438,1.532996,1.310059,-0.303344,0.069425,-0.105964,43.848991,3.948735,11.147956,4.63583E+18,0.763935,0.089284,0.614618,-0.175147,-10.185534,-1.842379,1.916265,1.03552,0.013065,0.454315,44.320379,-4.631308,14.538686,4.63583E+18,-0.665277,0.355239,-0.629099,-0.188271,-9.580529,0.265828,-1.622896,-0.243468,-0.064987,-0.554039,43.465201,15.522456,-0.088531,4.63583E+18,0.416943,0.605165,0.43093,-0.523673,0
-9.292433,1.489968,1.240684,-0.342135,0.106799,-0.120759,43.879812,4.076608,11.125416,4.63583E+18,0.763651,0.08813,0.615286,-0.174623,-10.285687,4.937964,5.589826,0.375367,0.039571,0.381435,44.245114,-4.386709,14.459836,4.63583E+18,-0.66539,0.353215,-0.630111,-0.188297,-9.564095,0.477228,-1.357782,-0.255744,-0.073303,-0.540184,43.531601,15.60367,0.006838,4.63583E+18,0.416419,0.6036,0.432936,-0.524241,0
-9.228797,1.332598,1.225214,-0.36362,0.190608,-0.103393,43.927374,4.126102,11.223077,4.63583E+18,0.763167,0.087024,0.616228,-0.173973,-10.449988,2.962433,4.144437,-0.170002,0.050722,0.21299,44.159665,-4.37025,14.179398,4.63583E+18,-0.664801,0.353153,-0.630475,-0.189271,-9.630831,0.457523,-1.119003,-0.280624,-0.068133,-0.535882,43.516785,15.769205,0.082362,4.63583E+18,0.415955,0.602007,0.434992,-0.524739,0
-9.346927,1.045443,1.31773,-0.351206,0.287983,-0.06388,43.831722,4.126102,11.27964,4.63583E+18,0.762454,0.08613,0.617454,-0.173193,-10.18761,-1.647774,2.989015,-0.135054,0.151216,0.144911,44.085643,-4.610119,14.343345,4.63583E+18,-0.664052,0.353252,-0.631045,-0.189816,-9.754045,0.132482,-0.853708,-0.275225,-0.054347,-0.52023,43.342133,16.007984,0.172043,4.63583E+18,0.415484,0.600477,0.437018,-0.525182,0
-9.632819,0.705589,1.264519,-0.328769,0.318374,-0.00677,43.690296,4.059341,11.402892,4.63583E+18,0.761694,0.085475,0.618738,-0.172277,-10.362921,-1.439248,1.11308,-0.159294,0.097127,0.160982,44.080933,-4.706552,14.721372,4.63583E+18,-0.663397,0.353332,-0.631468,-0.19055,-9.863254,-0.117516,-0.957547,-0.247425,-0.04143,-0.4974,43.043304,16.29949,0.191088,4.63583E+18,0.414967,0.599061,0.438946,-0.5256,0
-9.848757,0.315657,0.963907,-0.304609,0.260053,0.063325,43.762181,3.900656,11.69585,4.63583E+18,0.761127,0.085024,0.619794,-0.171206,-10.045052,-0.021778,1.04591,-0.398156,0.058948,0.114386,44.000977,-4.632103,14.735121,4.63583E+18,-0.662525,0.354164,-0.631527,-0.191838,-9.721019,-0.094871,-0.867237,-0.207681,-0.027446,-0.469903,43.051272,16.443373,0.268563,4.63583E+18,0.414383,0.597791,0.44074,-0.526005,0
-9.881604,-0.149483,0.785729,-0.235376,0.171329,0.131695,43.794449,3.772767,11.829653,4.63583E+18,0.760812,0.084906,0.620494,-0.170128,-9.816728,-0.6576,0.456025,-0.518358,0.080593,0.054133,44.075417,-4.786478,14.563044,4.63583E+18,-0.661466,0.355502,-0.631457,-0.193245,-9.525189,-0.333638,-0.632509,-0.149766,-0.012193,-0.434654,43.127619,16.466135,0.268563,4.63583E+18,0.413703,0.596716,0.442344,-0.526414,0
-9.787802,-0.573015,0.939904,-0.130512,0.138235,0.183371,43.599773,3.723258,11.739052,4.63583E+18,0.760577,0.085242,0.620994,-0.169184,-10.384927,-1.210477,0.780468,-0.619452,0.077251,0.00424,44.160869,-4.94596,14.551225,4.63583E+18,-0.660301,0.357245,-0.631219,-0.194784,-9.561807,-0.633106,-0.642201,-0.03424,0.005566,-0.39931,43.11541,16.70912,0.258332,4.63583E+18,0.412778,0.595942,0.443635,-0.526929,0
-9.732511,-0.839084,1.079391,-0.024632,0.159602,0.21925,43.525162,3.723258,11.723597,4.63583E+18,0.760276,0.086011,0.621475,-0.168378,-10.505057,-0.571419,1.616456,-0.702872,0.068913,-0.029907,44.166386,-4.72782,14.642579,4.63583E+18,-0.659057,0.359297,-0.630835,-0.19646,-9.591609,-0.856792,-1.013565,0.109159,0.018556,-0.362197,43.10434,16.91946,0.158696,4.63583E+18,0.411554,0.59551,0.444541,-0.527612,0
-9.794828,-0.977873,1.08132,0.082521,0.152187,0.22746,43.719831,3.687285,11.862369,4.63583E+18,0.759961,0.087135,0.621853,-0.167826,-10.807439,-0.079621,2.711442,-0.739153,0.035392,-0.054024,44.086459,-4.632133,14.648884,4.63583E+18,-0.657861,0.361481,-0.630287,-0.198213,-9.56067,-0.870976,-1.646614,0.195795,0.021834,-0.318827,43.10434,16.91946,0.158696,4.63583E+18,0.410203,0.595311,0.445153,-0.528371,0
-9.871928,-1.049183,1.115359,0.188992,0.096648,0.204752,43.794399,3.571007,12.021708,4.63583E+18,0.75973,0.088511,0.621987,-0.167657,-10.850805,0.590644,3.536953,-0.834218,-0.023841,-0.067534,44.172287,-5.094792,14.568949,4.63583E+18,-0.656681,0.363908,-0.629471,-0.200266,-9.588488,-0.798023,-1.982995,0.209258,0.016122,-0.290388,43.081633,16.941032,0.159832,4.63583E+18,0.408891,0.595174,0.445655,-0.529119,0
-9.848828,-1.072978,1.161636,0.290294,0.039249,0.159896,43.635715,3.515073,12.080192,4.63583E+18,0.759577,0.090051,0.621883,-0.167913,-11.000832,0.806074,4.182778,-1.026481,-0.132686,-0.080352,44.258529,-5.43543,14.380724,4.63583E+18,-0.655496,0.366799,-0.628168,-0.202951,-9.647254,-0.795762,-1.931322,0.205309,0.015203,-0.266416,42.852244,17.165025,0.153874,4.63583E+18,0.407642,0.595071,0.446104,-0.529821,0
-9.711341,-0.934878,1.126946,0.371196,0.022427,0.096541,43.574632,3.63135,12.073122,4.63583E+18,0.759391,0.091671,0.621692,-0.168585,-11.068167,0.486777,4.920253,-1.210148,-0.245828,-0.11215,44.343969,-5.456709,14.196845,4.63583E+18,-0.654338,0.37017,-0.626337,-0.206199,-9.673659,-0.289588,-2.05369,0.172569,-0.005489,-0.248953,42.781553,17.299025,-0.021289,4.63583E+18,0.40655,0.594898,0.446545,-0.530482,0
-9.578333,-0.608529,1.00619,0.431747,0.041823,0.018513,43.719802,3.759221,12.109085,4.63583E+18,0.759074,0.093294,0.621547,-0.169653,-11.106368,-0.552303,5.44796,-1.376815,-0.356054,-0.14826,44.201065,-5.376785,14.09366,4.63583E+18,-0.653222,0.373982,-0.623987,-0.209947,-9.609494,0.187985,-1.818373,0.135136,-0.029062,-0.238372,42.841181,17.308965,-0.109867,4.63583E+18,0.405618,0.594627,0.447003,-0.531113,0
-9.501227,-0.148537,0.8327,0.495601,0.046496,-0.064688,43.794418,3.80871,12.158574,4.63583E+18,0.758687,0.094798,0.621419,-0.171014,-10.423752,-1.079235,5.606705,-1.465441,-0.452076,-0.1586,44.1908,-5.531087,13.996012,4.63583E+18,-0.652202,0.377965,-0.621259,-0.214039,-9.633909,-0.144754,-1.550941,0.119335,-0.042551,-0.228163,42.76,17.312632,-0.100795,4.63583E+18,0.404772,0.594318,0.447447,-0.53173,0
-9.457537,0.303773,0.717705,0.554753,0.020477,-0.1394,43.599781,3.80871,12.081532,4.63583E+18,0.758287,0.096276,0.621193,-0.172773,-9.70273,-0.608555,4.907593,-1.402912,-0.450244,-0.121195,44.350627,-5.770488,13.818439,4.63583E+18,-0.651217,0.381667,-0.618625,-0.21806,-9.666272,-0.357142,-1.310454,0.117223,-0.051768,-0.211941,42.614908,17.463397,-0.012207,4.63583E+18,0.403983,0.594014,0.44784,-0.532338,0
-9.472271,0.650106,0.652128,0.557978,-0.016855,-0.201747,43.525116,3.875471,11.888159,4.63583E+18,0.757902,0.097684,0.620852,-0.174885,-9.553321,0.08832,2.735364,-1.371238,-0.423721,-0.109575,44.2818,-5.6265,13.612519,4.63583E+18,-0.65018,0.385262,-0.616088,-0.221981,-9.771585,-0.283284,-1.246537,0.126856,-0.05681,-0.193588,42.604968,17.529831,-0.012207,4.63583E+18,0.403221,0.593748,0.448158,-0.532946,0
-9.557713,0.877565,0.674602,0.53043,-0.039571,-0.250995,43.683794,4.039282,11.762803,4.63583E+18,0.757546,0.098861,0.620475,-0.17709,-9.717412,0.214185,1.104037,-1.446273,-0.459873,-0.075991,44.276253,-5.615406,13.336506,4.63583E+18,-0.649059,0.388926,-0.613413,-0.226235,-9.821298,-0.44651,-1.39982,0.146358,-0.060135,-0.172798,42.606984,17.544552,-0.021267,4.63583E+18,0.402462,0.593545,0.448374,-0.533562,0
-9.638029,1.053599,0.649618,0.510864,-0.042956,-0.283049,43.842488,4.174246,11.791666,4.63583E+18,0.757178,0.099891,0.620112,-0.179346,-9.386936,-0.38511,0.179334,-1.507532,-0.472494,-0.052732,44.675676,-6.003418,12.873204,4.63583E+18,-0.647823,0.392668,-0.610659,-0.230721,-9.765923,-0.635917,-1.613889,0.156621,-0.074495,-0.147361,42.511593,17.695322,-0.109867,4.63583E+18,0.401761,0.593375,0.448481,-0.53419,0
-9.68047,1.195646,0.503801,0.488381,-0.036037,-0.294809,43.903636,4.254569,11.841181,4.63583E+18,0.756787,0.100824,0.619789,-0.181577,-8.838066,-2.401761,-0.82523,-1.225811,-0.452218,-0.013322,44.794818,-6.258723,12.488375,4.63583E+18,-0.646935,0.395554,-0.608273,-0.234555,-9.763661,-0.630028,-1.775961,0.14948,-0.084128,-0.123765,42.451927,17.769689,-0.118914,4.63583E+18,0.401147,0.593214,0.448529,-0.534789,0
-9.654803,1.363223,0.416304,0.449044,-0.052148,-0.292114,43.825266,4.399674,11.759046,4.63583E+18,0.756451,0.101627,0.61944,-0.183703,-8.550443,-6.248496,-0.731353,-0.492887,-0.45675,0.105165,44.572902,-6.274605,12.372451,4.63583E+18,-0.647139,0.396152,-0.606774,-0.236854,-9.735853,-0.45031,-1.957708,0.114231,-0.104818,-0.099594,42.533089,17.847223,-0.216573,4.63583E+18,0.400713,0.592993,0.448561,-0.535332,0
-9.58864,1.566984,0.579982,0.380991,-0.081397,-0.281664,43.770617,4.648933,11.681789,4.63583E+18,0.756224,0.10222,0.619045,-0.185632,-8.44169,-6.483724,-0.743058,0.332501,-0.412238,0.242022,44.477146,-6.35448,12.457385,4.63583E+18,-0.648453,0.394219,-0.606432,-0.23736,-9.672555,-0.338878,-1.992968,0.080763,-0.128594,-0.078607,42.661251,17.847223,-0.313101,4.63583E+18,0.400453,0.592702,0.448577,-0.535837,0
-9.525657,1.618451,0.844123,0.299345,-0.050758,-0.2607,43.763542,4.864241,11.767247,4.63583E+18,0.755966,0.102634,0.618798,-0.187272,-8.321198,-5.11271,-1.121242,1.030725,-0.351186,0.364848,44.562865,-6.519823,12.383876,4.63583E+18,-0.650629,0.390144,-0.607138,-0.23633,-9.588242,-0.574182,-1.899837,0.067312,-0.144515,-0.050047,42.498273,17.854,-0.399673,4.63583E+18,0.400319,0.592406,0.448525,-0.536307,0
-9.481964,1.53953,0.830954,0.237836,0.038618,-0.22395,43.799465,4.925414,11.775711,4.63583E+18,0.75553,0.103018,0.618864,-0.1886,-8.244778,-4.583641,-0.999159,1.613776,-0.28225,0.472626,44.569229,-6.51955,12.195738,4.63583E+18,-0.653449,0.384269,-0.608759,-0.233997,-9.518386,-0.817896,-1.851007,0.079754,-0.159469,-0.01373,42.428633,17.913691,-0.506368,4.63583E+18,0.400263,0.592165,0.448331,-0.536778,0
-9.445345,1.455866,0.57516,0.197684,0.103084,-0.181554,43.848991,4.841914,11.601098,4.63583E+18,0.755005,0.103341,0.619161,-0.189546,-8.091661,-4.199637,-0.851874,2.1286,-0.207829,0.548489,44.637693,-6.43888,12.091704,4.63583E+18,-0.656785,0.376847,-0.611164,-0.230429,-9.498704,-0.835965,-1.795402,0.09898,-0.173732,0.022586,42.520861,17.840447,-0.692649,4.63583E+18,0.400268,0.591991,0.44798,-0.537259,0
-9.43951,1.507886,0.63004,0.172156,0.125749,-0.151582,43.777148,4.821224,11.397283,4.63583E+18,0.75443,0.103761,0.619522,-0.190422,-7.967196,-3.387609,-0.808079,2.511377,-0.128067,0.592239,44.642475,-6.444712,12.267896,4.63583E+18,-0.660412,0.368305,-0.614163,-0.225857,-9.635025,-1.005318,-1.665446,0.1186,-0.180616,0.058998,42.678411,17.781875,-0.781274,4.63583E+18,0.400318,0.591902,0.447484,-0.537732,0
-9.476131,1.555471,0.960326,0.157807,0.140144,-0.126846,43.68322,4.978507,11.49461,4.63583E+18,0.753843,0.104212,0.619929,-0.191178,-8.027682,-2.864848,-0.817098,2.659572,-0.034987,0.608934,44.56261,-6.365645,12.451784,4.63583E+18,-0.66393,0.359355,-0.617508,-0.22078,-9.679544,-0.887154,-1.464688,0.14121,-0.182177,0.095199,42.805723,17.851534,-0.763226,4.63583E+18,0.400396,0.591914,0.446846,-0.538191,0
-9.49736,1.542029,1.041007,0.160438,0.122099,-0.103798,43.726204,5.198924,11.865918,4.63583E+18,0.753314,0.104728,0.620264,-0.19189,-7.952608,-1.42881,-1.513845,2.752089,0.039044,0.600928,44.625478,-6.280194,12.737575,4.63583E+18,-0.667315,0.35019,-0.621049,-0.215303,-9.792592,-0.481533,-1.34845,0.155194,-0.189375,0.119666,42.727784,17.752562,-0.611881,4.63583E+18,0.400507,0.591979,0.446103,-0.538653,0
-9.49736,1.46243,0.830316,0.180094,0.077437,-0.082266,43.739847,5.262112,12.085329,4.63583E+18,0.752909,0.105327,0.620434,-0.192605,-8.380562,-0.976928,-1.516912,2.69806,0.108683,0.600299,44.710129,-6.194742,12.939281,4.63583E+18,-0.670351,0.341191,-0.62465,-0.209833,-9.811395,-0.441913,-1.411686,0.171314,-0.204417,0.143346,42.50506,17.534203,-0.892468,4.63583E+18,0.40066,0.592079,0.445241,-0.539142,0
-9.481974,1.360871,0.680436,0.204061,0.083493,-0.073639,43.618494,5.212561,12.008397,4.63583E+18,0.752482,0.106027,0.620599,-0.193353,-8.057222,0.382676,-2.255303,2.631975,0.123207,0.593311,44.487537,-6.269017,13.12319,4.63583E+18,-0.673174,0.332365,-0.628143,-0.204467,-9.770294,-0.727058,-1.497139,0.199477,-0.219852,0.169373,42.508521,17.464422,-1.165406,4.63583E+18,0.400829,0.59224,0.444225,-0.539678,0
-9.53254,1.220953,0.674586,0.209698,0.116814,-0.09054,43.519394,5.279235,11.897089,4.63583E+18,0.751953,0.106729,0.620871,-0.194153,-9.332942,-1.679955,4.058263,2.696517,0.033072,0.556888,44.232009,-6.206159,13.317688,4.63583E+18,-0.676266,0.323332,-0.631307,-0.198927,-9.705003,-0.881943,-1.583718,0.229858,-0.231035,0.19948,42.667233,17.542038,-1.334971,4.63583E+18,0.401011,0.592481,0.443047,-0.540247,0
-9.729088,1.024914,0.752239,0.209913,0.09933,-0.118653,43.519394,5.407159,11.931041,4.63583E+18,0.751448,0.107333,0.621102,-0.195034,-7.26809,1.511299,2.451174,1.492574,0.471883,0.221981,44.283661,-5.813505,13.410337,4.63583E+18,-0.6768,0.318909,-0.634203,-0.195002,-9.831431,-0.53592,-1.679121,0.242274,-0.257146,0.230931,42.804657,17.527507,-1.256245,4.63583E+18,0.40128,0.59274,0.441719,-0.540849,0
-9.904602,0.863057,0.891634,0.2069,0.043236,-0.141146,43.524521,5.425944,12.02869,4.63583E+18,0.751111,0.107693,0.621191,-0.195847,-6.432546,1.905345,-5.186657,-0.709024,0.755602,-0.270403,44.356895,-5.626623,13.507186,4.63583E+18,-0.674037,0.322216,-0.635436,-0.195123,-9.854552,-0.410669,-1.743423,0.239453,-0.277636,0.256469,42.722469,17.383343,-1.263039,4.63583E+18,0.40165,0.592994,0.440299,-0.541454,0
-9.961241,0.695341,1.017604,0.199402,-0.004463,-0.148986,43.629004,5.450109,11.998179,4.63583E+18,0.750853,0.1081,0.621119,-0.196842,-9.600986,-4.276938,-7.652098,-2.211054,0.789308,-0.467031,44.293268,-5.854933,13.696093,4.63583E+18,-0.669288,0.330269,-0.63524,-0.198613,-9.682965,-0.474885,-1.710068,0.229351,-0.300556,0.281134,42.581744,17.376637,-1.458355,4.63583E+18,0.402142,0.593222,0.438802,-0.542054,0
-10.017642,0.620625,1.181925,0.199637,-0.006729,-0.136295,43.794305,5.644707,11.790639,4.63583E+18,0.750609,0.10854,0.621032,-0.197799,-8.161672,-12.034759,-6.727558,-0.677343,0.819372,-0.20507,44.128772,-6.031446,14.062502,4.63583E+18,-0.666313,0.333357,-0.636719,-0.19872,-10.091201,-0.342924,-1.613682,0.213031,-0.328227,0.306571,42.72591,17.295587,-1.652536,4.63583E+18,0.402781,0.593406,0.437231,-0.542648,0
-10.218564,0.598898,1.474155,0.200576,0.040523,-0.111793,43.73425,5.852956,11.711291,4.63583E+18,0.750262,0.109085,0.621081,-0.198661,-9.595905,-16.290403,-6.402101,0.940122,0.650742,0.096585,44.117554,-5.803137,14.26984,4.63583E+18,-0.665767,0.331007,-0.639474,-0.195604,-10.28526,-0.341736,-1.744471,0.18322,-0.353563,0.330266,42.718096,17.13689,-1.835647,4.63583E+18,0.403591,0.593522,0.435625,-0.54321,0
-10.491005,0.513457,1.67754,0.207498,0.065524,-0.083405,43.495256,5.878377,11.814064,4.63583E+18,0.749928,0.109561,0.621222,-0.199218,-10.833952,-2.342972,-2.906036,0.951913,0.645738,0.130399,44.185983,-5.558215,14.54497,4.63583E+18,-0.665209,0.328523,-0.642256,-0.192553,-10.218642,-0.209688,-1.59017,0.152135,-0.365313,0.354924,42.648274,16.978196,-2.002014,4.63583E+18,0.404554,0.593603,0.434006,-0.5437,0
-10.596778,0.402389,1.566761,0.199044,0.018987,-0.056084,43.396566,5.750438,11.918799,4.63583E+18,0.749727,0.110086,0.621204,-0.19974,-9.328178,0.00293,-0.665407,0.550141,0.842816,0.036581,44.179395,-5.542161,14.837143,4.63583E+18,-0.663634,0.327555,-0.645121,-0.190043,-10.1055,-0.094259,-1.371633,0.099221,-0.376964,0.369682,42.748207,16.828435,-2.003129,4.63583E+18,0.4057,0.593592,0.432451,-0.544098,0
-10.403731,0.255907,1.316747,0.17403,-0.026981,-0.033416,43.512756,5.77259,11.970339,4.63583E+18,0.749625,0.110707,0.621025,-0.200334,-11.132334,-3.38033,0.045244,0.696936,0.655102,0.139664,44.030351,-5.701806,15.130088,4.63583E+18,-0.662671,0.32575,-0.647713,-0.187677,-10.067707,0.054348,-1.281722,0.054178,-0.386865,0.38289,42.975633,16.765168,-2.048781,4.63583E+18,0.407004,0.593504,0.430946,-0.544414,0
-10.046579,0.145289,1.237309,0.149741,-0.002393,-0.019465,43.604843,5.907621,11.963255,4.63583E+18,0.749482,0.111308,0.620938,-0.200809,-10.298166,-1.059891,1.85294,0.844948,0.632907,0.15838,43.712011,-5.724468,15.502885,4.63583E+18,-0.661942,0.323462,-0.650372,-0.18499,-9.905723,-0.021125,-1.150786,0.039809,-0.388708,0.400467,43.016607,16.67303,-2.409371,4.63583E+18,0.408385,0.593416,0.429425,-0.544677,0
-9.714255,0.109867,1.340091,0.119689,0.052111,-0.007162,43.533123,5.957213,11.963255,4.63583E+18,0.749267,0.111752,0.621064,-0.200973,-10.207,0.147227,0.255931,0.713849,0.677238,0.133215,43.450859,-5.645459,15.881272,4.63583E+18,-0.660923,0.321632,-0.653007,-0.182525,-9.844733,-0.108753,-1.058704,0.030778,-0.387932,0.423091,42.887989,16.50767,-2.584669,4.63583E+18,0.409836,0.593353,0.427868,-0.544882,0
-9.527663,0.125234,1.455074,0.076861,0.072873,0.012893,43.469798,5.885501,12.045212,4.63583E+18,0.749025,0.112159,0.621278,-0.200986,-11.459574,1.861576,0.282503,0.412596,0.583638,0.110432,43.354128,-5.491598,16.179887,4.63583E+18,-0.659763,0.320618,-0.655116,-0.180941,-9.915791,-0.098773,-1.042122,0.017184,-0.389971,0.448048,43.064458,16.283522,-2.691235,4.63583E+18,0.411378,0.593303,0.426275,-0.545022,0
-9.505636,0.172093,1.55665,0.028695,0.056091,0.038078,43.488668,5.786309,12.158574,4.63583E+18,0.748834,0.112581,0.621447,-0.200942,-10.658979,1.29358,0.783191,0.144623,0.547872,0.05309,43.416891,-5.321519,16.370229,4.63583E+18,-0.658382,0.320469,-0.656842,-0.179977,-10.072221,-0.122112,-1.227458,0.007087,-0.389384,0.477667,43.289718,16.135923,-2.885438,4.63583E+18,0.41301,0.593287,0.42463,-0.54509,0
-9.590302,0.202406,1.64525,-0.013612,0.02267,0.068019,43.343748,5.822149,12.158574,4.63583E+18,0.748773,0.112921,0.621533,-0.20071,-10.618829,-0.453681,0.55566,-0.052465,0.523875,0.003243,43.421734,-5.469842,16.382336,4.63583E+18,-0.656836,0.320976,-0.658285,-0.179447,-10.079979,-0.265274,-1.419394,0.001356,-0.37249,0.51534,43.441724,15.956118,-3.042956,4.63583E+18,0.414709,0.593363,0.422932,-0.545038,0
-9.709223,0.174838,1.719276,-0.047552,-0.029464,0.1063,43.3044,5.907601,12.158574,4.63583E+18,0.748895,0.113212,0.621466,-0.200298,-10.278432,-0.311541,0.970338,-0.142964,0.54826,-0.069827,43.433134,-5.788932,16.484939,4.63583E+18,-0.655154,0.321948,-0.659626,-0.178932,-10.046693,-0.483872,-1.437114,-0.018063,-0.358314,0.557583,43.512722,15.579936,-2.961975,4.63583E+18,0.416524,0.593508,0.421196,-0.54484,0
-9.735206,0.105534,1.702735,-0.095583,-0.088795,0.143132,43.548536,5.885542,12.158574,4.63583E+18,0.749227,0.113386,0.62124,-0.199658,-10.04904,-0.429764,1.114996,-0.208317,0.548101,-0.103695,43.354148,-5.730932,16.754375,4.63583E+18,-0.653406,0.323189,-0.660868,-0.178503,-10.045581,-0.579329,-1.282889,-0.022811,-0.3485,0.615747,43.445036,15.376903,-3.066326,4.63583E+18,0.418462,0.593765,0.41934,-0.544506,0
-9.631256,0.023237,1.685799,-0.153155,-0.136031,0.173555,43.552095,5.683939,12.127863,4.63583E+18,0.749734,0.11342,0.620899,-0.198796,-9.760882,-1.146274,0.872278,-0.259444,0.548957,-0.113727,43.25729,-5.417469,17.126376,4.63583E+18,-0.65159,0.324596,-0.662056,-0.178186,-10.040038,-0.761301,-1.309531,0.032922,-0.304614,0.66672,43.448376,15.440137,-3.359271,4.63583E+18,0.420298,0.594303,0.417305,-0.544067,0
-9.479649,-0.012207,1.808259,-0.200465,-0.179481,0.201155,43.396525,5.470502,12.003433,4.63583E+18,0.750397,0.113341,0.620447,-0.197745,-9.513504,-1.492731,-0.023299,-0.278725,0.551023,-0.106312,43.091226,-5.327271,17.333805,4.63583E+18,-0.649733,0.326033,-0.66324,-0.177938,-10.089971,-0.771265,-1.500422,0.096425,-0.263055,0.70294,43.608182,15.260343,-3.624488,4.63583E+18,0.421983,0.595105,0.415106,-0.543569,0
-9.285123,0.038978,2.000429,-0.233372,-0.226307,0.227755,43.57923,5.335428,11.849063,4.63583E+18,0.751217,0.11319,0.619862,-0.196549,-9.49736,-1.764433,-0.826199,-0.229,0.518258,-0.080818,43.000152,-5.242655,17.426494,4.63583E+18,-0.64801,0.327239,-0.664404,-0.177666,-10.015611,-0.443914,-1.894386,0.113225,-0.252567,0.725564,43.75688,14.863048,-3.604509,4.63583E+18,0.423656,0.595995,0.412827,-0.543029,0
-9.025619,0.161052,2.14574,-0.253357,-0.242575,0.249015,43.73283,5.255094,11.838418,4.63583E+18,0.7521,0.113031,0.619229,-0.195258,-9.337818,-2.716738,-1.403141,-0.151591,0.490987,-0.051123,43.074244,-5.316747,17.614506,4.63583E+18,-0.646443,0.328132,-0.665587,-0.177296,-9.842485,-0.594845,-2.242862,0.14585,-0.226058,0.728671,43.691405,14.412525,-3.514623,4.63583E+18,0.425204,0.597001,0.410509,-0.54247,0
-8.811395,0.237059,2.178832,-0.265382,-0.197339,0.266277,43.587938,5.212561,11.943161,4.63583E+18,0.752882,0.112917,0.618737,-0.193862,-9.269477,-2.920038,-1.725369,-0.090497,0.457303,-0.025204,43.091321,-5.56174,17.821219,4.63583E+18,-0.645031,0.328762,-0.666758,-0.176872,-9.998973,-0.339672,-1.78455,0.142848,-0.23567,0.72974,43.710265,14.10955,-3.521266,4.63583E+18,0.426774,0.597977,0.408175,-0.541922,0
-8.725149,0.172509,2.05954,-0.283296,-0.131049,0.27603,43.481968,5.176742,11.999877,4.63583E+18,0.753509,0.112825,0.618461,-0.192357,-9.390773,-2.530923,-2.076137,-0.052617,0.41016,-0.021505,42.932592,-5.658554,18.005954,4.63583E+18,-0.643798,0.329244,-0.667832,-0.176417,-10.031111,0.684669,-1.201862,0.049437,-0.26829,0.718771,43.787956,13.944229,-3.706595,4.63583E+18,0.428604,0.59869,0.406017,-0.541313,0
-8.780634,-0.064916,1.922482,-0.300975,-0.060589,0.271277,43.567419,5.024768,11.923121,4.63583E+18,0.753956,0.112721,0.618421,-0.190787,-9.525055,-1.875747,-1.985715,-0.064163,0.366082,-0.02934,42.76169,-5.424923,18.018127,4.63583E+18,-0.642674,0.329746,-0.668767,-0.176033,-10.21989,0.941076,-1.261787,-0.001746,-0.313354,0.695271,43.787956,13.712314,-3.793143,4.63583E+18,0.430581,0.599164,0.403948,-0.540766,0
-9.020001,-0.440525,1.854361,-0.305663,0.006878,0.249508,43.611934,4.739718,11.704218,4.63583E+18,0.754213,0.1126,0.618605,-0.189242,-9.98976,-1.170232,-1.533216,-0.159873,0.311325,-0.042869,42.602198,-5.40788,18.018127,4.63583E+18,-0.641581,0.3305,-0.669465,-0.175955,-9.981273,1.017434,-1.452189,-0.020159,-0.313756,0.677518,43.802335,13.487009,-3.907393,4.63583E+18,0.43256,0.599569,0.401962,-0.540218,0
-9.378262,-0.895273,1.818903,-0.29771,0.028811,0.211752,43.640643,4.576953,11.589116,4.63583E+18,0.754381,0.112411,0.61887,-0.187809,-10.056461,-0.70149,-1.478722,-0.272314,0.270737,-0.07171,42.523265,-5.647161,18.200437,4.63583E+18,-0.640465,0.331604,-0.66993,-0.176169,-9.834659,1.552977,-3.085667,-0.154528,-0.275787,0.606258,43.953287,13.336056,-4.171572,4.63583E+18,0.434647,0.599694,0.400521,-0.539473,0
-9.777972,-1.309992,1.77799,-0.281688,0.009281,0.163657,43.726096,4.626606,11.640749,4.63583E+18,0.75455,0.112147,0.619081,-0.186594,-10.115872,-0.751168,-1.317575,-0.369585,0.225234,-0.091648,42.666513,-5.584475,18.304601,4.63583E+18,-0.639355,0.33299,-0.670173,-0.176664,-9.977048,0.281113,-4.806232,-0.337128,-0.239875,0.501175,44.027629,13.240729,-4.260384,4.63583E+18,0.436892,0.59939,0.399815,-0.538522,0
-10.110374,-1.588451,1.639418,-0.251793,-0.012847,0.102743,43.806433,4.560122,11.556944,4.63583E+18,0.754712,0.111803,0.619226,-0.185659,-10.222487,-1.269605,-0.941573,-0.407892,0.189274,-0.101902,42.665688,-5.419262,18.29971,4.63583E+18,-0.638298,0.334478,-0.670275,-0.177288,-9.405224,-0.297016,-5.158097,-0.389714,-0.176849,0.455249,44.107556,12.924437,-4.242708,4.63583E+18,0.439056,0.599051,0.399454,-0.537405,0
-10.348252,-1.74995,1.444099,-0.204896,-0.022085,0.033934,43.818308,4.46791,11.450544,4.63583E+18,0.754823,0.111424,0.619337,-0.185067,-10.036123,-1.796091,-0.596551,-0.405184,0.182938,-0.104536,42.516767,-5.567382,18.310291,4.63583E+18,-0.637262,0.33596,-0.670356,-0.177907,-9.443045,1.345824,-5.366747,-0.55495,-0.122957,0.397181,44.144139,12.639129,-4.047373,4.63583E+18,0.441411,0.59843,0.399703,-0.535981,0
-10.512886,-1.822038,1.320379,-0.172737,-0.02591,-0.03639,43.775749,4.498594,11.53237,4.63583E+18,0.754874,0.11096,0.619443,-0.184779,-9.896971,-1.500756,-0.494007,-0.399844,0.179663,-0.115643,42.50618,-5.738264,18.49337,4.63583E+18,-0.636248,0.337455,-0.670414,-0.178484,-9.257697,2.253811,-5.593051,-0.862183,-0.052963,0.323404,44.3028,12.576861,-3.87085,4.63583E+18,0.444244,0.597271,0.400946,-0.534,0
-10.588932,-1.838204,1.285738,-0.161189,-0.025535,-0.106163,43.775749,4.510473,11.686771,4.63583E+18,0.754865,0.110352,0.619575,-0.184739,-9.91078,-1.43153,-0.864213,-0.377559,0.169481,-0.110448,42.665658,-5.669947,18.677295,4.63583E+18,-0.635289,0.338868,-0.670467,-0.179028,-9.177761,2.462513,-5.839698,-1.230694,0.021427,0.238531,44.454877,12.732322,-3.873129,4.63583E+18,0.447673,0.595442,0.40335,-0.531364,0
-10.560242,-1.80555,1.185794,-0.154955,-0.02422,-0.164502,43.775749,4.498582,11.702625,4.63583E+18,0.754804,0.109615,0.619732,-0.184899,-9.71878,-2.04333,-0.948091,-0.335126,0.169764,-0.105036,42.745424,-5.584505,18.518684,4.63583E+18,-0.634382,0.340152,-0.670557,-0.179466,-9.141214,2.538112,-5.58026,-1.58926,0.083559,0.160744,44.52599,12.724601,-3.758927,4.63583E+18,0.451698,0.592929,0.40684,-0.528095,0
-10.44924,-1.71385,1.076237,-0.155976,-0.040568,-0.200143,43.73997,4.648489,11.599862,4.63583E+18,0.754757,0.10877,0.619855,-0.185176,-9.750451,-2.360858,-0.735742,-0.295315,0.172826,-0.088731,42.602238,-5.658523,18.415293,4.63583E+18,-0.63351,0.341287,-0.670707,-0.179832,-8.971519,2.38613,-4.948673,-1.845507,0.168423,0.096847,44.446142,12.639158,-3.485899,4.63583E+18,0.456048,0.589982,0.41119,-0.524274,0
-10.277195,-1.569346,1.12849,-0.167452,-0.079942,-0.217481,43.690296,4.79751,11.495107,4.63583E+18,0.754803,0.107815,0.61987,-0.185496,-9.639815,-2.141252,-0.446875,-0.252807,0.177026,-0.063669,42.443559,-5.823696,18.499885,4.63583E+18,-0.632667,0.342242,-0.670934,-0.180139,-8.730408,2.122421,-4.564914,-2.06902,0.243996,0.047793,44.312874,12.554808,-3.29058,4.63583E+18,0.46068,0.586652,0.416264,-0.519941,0
-10.059459,-1.415769,1.251404,-0.169463,-0.102517,-0.219839,43.654522,4.761735,11.479222,4.63583E+18,0.754905,0.10683,0.619817,-0.185829,-9.64303,-1.805208,-0.210876,-0.239982,0.17233,-0.035047,42.353213,-5.835139,18.677253,4.63583E+18,-0.631833,0.343079,-0.671198,-0.180493,-8.864869,1.232845,-3.851566,-2.168211,0.284007,0.02427,44.321686,12.494783,-3.069929,4.63583E+18,0.465397,0.583131,0.421652,-0.515339,0
-9.893957,-1.274393,1.171336,-0.158682,-0.064659,-0.203345,43.609953,4.712058,11.576879,4.63583E+18,0.754917,0.105951,0.619866,-0.18612,-9.666628,-1.759501,-0.195318,-0.255211,0.176955,-0.021153,42.427211,-5.75541,18.598415,4.63583E+18,-0.630953,0.343919,-0.671481,-0.180919,-8.774817,-0.147378,-2.810958,-2.054953,0.318569,0.036473,44.405033,12.568019,-2.593892,4.63583E+18,0.469767,0.579879,0.4268,-0.510785,0
-9.871817,-1.14522,0.822137,-0.155081,-0.009463,-0.177436,43.647714,4.814269,11.66943,4.63583E+18,0.754803,0.105193,0.620075,-0.186315,-9.725213,-1.655356,-0.502847,-0.265325,0.177313,-0.014315,42.660733,-5.749687,18.512146,4.63583E+18,-0.630051,0.344767,-0.671766,-0.18139,-8.890185,-0.291727,-1.523363,-1.757907,0.35914,0.087629,44.357196,12.634663,-2.126605,4.63583E+18,0.473425,0.577348,0.431242,-0.506527,0
-9.941082,-1.033374,0.558419,-0.186775,-0.012022,-0.14743,43.726065,4.956206,11.719108,4.63583E+18,0.754733,0.104412,0.620287,-0.186334,-9.672357,-1.818828,-0.75269,-0.244046,0.176316,-0.005914,42.529031,-5.909127,18.597532,4.63583E+18,-0.629175,0.345534,-0.672075,-0.181826,-9.070987,0.919207,-0.629285,-1.351919,0.421958,0.15621,44.442648,12.628062,-1.75698,4.63583E+18,0.476116,0.575847,0.434765,-0.502686,0
-10.013191,-0.98681,0.695509,-0.243186,-0.064283,-0.110743,43.739985,4.925551,11.683344,4.63583E+18,0.75485,0.103507,0.620362,-0.186115,-9.634098,-2.05888,-0.621016,-0.235494,0.173255,0.003628,42.210896,-6.080029,18.866018,4.63583E+18,-0.628312,0.346249,-0.672395,-0.182267,-9.342937,1.793633,-0.548478,-0.940289,0.491882,0.194467,44.528092,12.569109,-1.47624,4.63583E+18,0.477759,0.575363,0.43746,-0.499333,0
-10.014055,-1.026545,0.987062,-0.279975,-0.121335,-0.0749,43.72605,4.877854,11.551933,4.63583E+18,0.755157,0.102535,0.62027,-0.185713,-9.768303,-1.642496,-0.542039,-0.255919,0.167061,0.00228,42.188786,-6.011775,18.97596,4.63583E+18,-0.627437,0.347015,-0.67268,-0.18277,-9.472211,1.448039,-0.264411,-0.460796,0.547693,0.232995,44.600357,12.632586,-1.203161,4.63583E+18,0.478223,0.57601,0.439168,-0.496635,0
-9.89884,-1.062044,1.066032,-0.287408,-0.187054,-0.051599,43.770643,4.97289,11.392376,4.63583E+18,0.755654,0.10155,0.619966,-0.185246,-9.709815,-1.303962,-0.867313,-0.25842,0.163642,-0.001849,42.416501,-6.006042,18.902812,4.63583E+18,-0.62657,0.347796,-0.672947,-0.183275,-9.078037,0.521746,-0.032711,0.222907,0.629149,0.290899,44.544815,12.473892,-1.016633,4.63583E+18,0.477012,0.578289,0.43948,-0.494872,0
-9.686218,-1.06715,1.10401,-0.278144,-0.234469,-0.042998,43.666524,5.048522,11.415276,4.63583E+18,0.756275,0.100579,0.619501,-0.184796,-9.647951,-1.520903,-1.061944,-0.236572,0.149478,-0.00114,42.59235,-6.074364,18.71487,4.63583E+18,-0.625774,0.348507,-0.673194,-0.18374,-8.901529,0.324527,-0.64219,0.898394,0.721612,0.315308,44.545912,12.321797,-0.910207,4.63583E+18,0.474046,0.582136,0.438517,-0.494066,0
-9.517554,-1.094673,1.298432,-0.269969,-0.201119,-0.056924,43.531601,4.920468,11.535996,4.63583E+18,0.756794,0.099624,0.61914,-0.184397,-9.689397,-1.788648,-1.051477,-0.204105,0.137513,-0.005054,42.364709,-5.931255,18.690355,4.63583E+18,-0.62506,0.349134,-0.673427,-0.184122,-8.78069,-0.139355,-1.002788,1.477762,0.787453,0.304446,44.564703,12.244025,-0.707208,4.63583E+18,0.469513,0.58722,0.436501,-0.494163,0
-9.476052,-1.189443,1.435369,-0.265425,-0.117828,-0.092015,43.628591,4.94222,11.490054,4.63583E+18,0.757069,0.098657,0.619052,-0.184085,-9.692678,-1.624525,-1.106765,-0.166015,0.13473,-0.011318,42.199468,-5.92059,18.871706,4.63583E+18,-0.624414,0.349677,-0.673673,-0.184385,-8.557529,-0.556055,-1.38945,2.012479,0.846429,0.281043,44.657835,12.23086,-0.425343,4.63583E+18,0.463484,0.593389,0.433527,-0.495103,0
-9.563719,-1.368554,1.372117,-0.255443,-0.065663,-0.134022,43.835004,5.072284,11.385293,4.63583E+18,0.757175,0.09764,0.61914,-0.183894,-9.806534,-1.463365,-1.110874,-0.13354,0.119643,-0.01175,42.268486,-6.079988,19.067022,4.63583E+18,-0.623857,0.350125,-0.673904,-0.184577,-8.380527,-0.3975,-1.558991,2.481151,0.885429,0.254204,44.822144,12.083292,-0.151026,4.63583E+18,0.456122,0.600432,0.429685,-0.496795,0
-9.712208,-1.560769,1.293985,-0.242722,-0.066982,-0.170418,43.898711,5.048541,11.32847,4.63583E+18,0.757251,0.096568,0.619228,-0.183851,-9.860294,-1.520994,-1.201958,-0.111457,0.095651,-0.008761,42.34255,-6.171193,19.171255,4.63583E+18,-0.623398,0.350488,-0.674092,-0.184751,-7.932319,0.550575,-3.518864,2.830002,1.002949,0.181968,44.909942,11.945415,-0.080914,4.63583E+18,0.447463,0.608168,0.425465,-0.498887,0
-9.795441,-1.701038,1.360335,-0.23177,-0.096888,-0.200673,43.818369,4.920479,11.333574,4.63583E+18,0.757372,0.095444,0.619223,-0.18396,-9.88635,-1.53731,-1.197149,-0.11998,0.078059,-0.016514,42.347481,-6.097257,19.086757,4.63583E+18,-0.622981,0.350881,-0.674217,-0.184954,-9.119747,-0.280638,-3.225813,2.755866,0.874742,0.115668,44.891171,12.019744,-0.184957,4.63583E+18,0.439012,0.615289,0.421264,-0.501223,0
-9.787233,-1.76297,1.559862,-0.203768,-0.112952,-0.224873,43.740022,4.906481,11.340677,4.63583E+18,0.757502,0.094334,0.619155,-0.184224,-9.865231,-1.333244,-1.332918,-0.118709,0.053999,-0.023066,42.267804,-6.011815,19.080172,4.63583E+18,-0.622639,0.351271,-0.674271,-0.185172,-9.961474,1.450053,1.162308,2.716318,0.787321,0.169502,44.813377,12.069123,-0.468067,4.63583E+18,0.430866,0.62216,0.416789,-0.503547,0
-9.68428,-1.770074,1.714139,-0.154192,-0.104837,-0.242758,43.654577,5.02254,11.335575,4.63583E+18,0.757578,0.09334,0.619081,-0.18467,-9.669984,-1.648655,-1.183381,-0.075717,0.041378,-0.022503,42.182314,-5.926326,19.171275,4.63583E+18,-0.622395,0.351537,-0.674325,-0.185289,-8.417621,3.779598,-0.569004,2.605941,0.779209,0.125295,44.821027,11.773587,-0.626042,4.63583E+18,0.422868,0.628654,0.41259,-0.505713,0
-9.499182,-1.744566,1.680431,-0.108011,-0.082295,-0.247619,43.604843,5.222035,11.323369,4.63583E+18,0.757572,0.092498,0.619043,-0.185242,-9.542199,-2.093688,-0.784795,-0.04972,0.045571,-0.011472,42.108262,-5.92059,19.17783,4.63583E+18,-0.622168,0.351708,-0.674427,-0.185356,-9.135134,2.581006,-0.71443,2.224359,0.681369,0.038216,44.891181,11.727661,-0.537126,4.63583E+18,0.415807,0.63405,0.409205,-0.507579,0
-9.307857,-1.668217,1.567458,-0.073222,-0.044269,-0.233365,43.635458,5.371257,11.234624,4.63583E+18,0.757465,0.091832,0.619093,-0.185843,-9.545367,-1.65728,-0.449449,-0.026149,0.048919,-0.003708,42.251348,-6.00029,19.086746,4.63583E+18,-0.621961,0.351798,-0.674566,-0.185372,-9.384825,3.41294,-0.131412,1.895977,0.622019,0.000149,44.806829,11.931201,-0.528395,4.63583E+18,0.4096,0.638633,0.40648,-0.509067,0
-9.093237,-1.570563,1.377064,-0.055894,0.004162,-0.208783,43.713802,5.366156,11.08013,4.63583E+18,0.757244,0.091322,0.619273,-0.186393,-9.557576,-1.430007,-0.404485,-0.027556,0.049135,-0.001212,42.273418,-6.16546,19.171266,4.63583E+18,-0.62175,0.351885,-0.674709,-0.185398,-8.960638,2.459751,0.100651,1.70191,0.578225,-0.033841,44.747771,11.832652,-0.430735,4.63583E+18,0.403885,0.642694,0.404157,-0.510371,0
-8.946937,-1.498415,1.154428,-0.048498,0.062029,-0.174062,43.727835,5.430463,11.099799,4.63583E+18,0.756897,0.09097,0.619617,-0.186832,-9.524244,-1.63236,-0.425613,-0.029764,0.051127,0.004909,42.114856,-6.256636,19.17783,4.63583E+18,-0.621524,0.351962,-0.674864,-0.185444,-8.726999,2.209613,-0.359675,1.590566,0.535387,-0.066267,44.825584,11.629086,-0.334169,4.63583E+18,0.398449,0.646387,0.402065,-0.511631,0
-8.967515,-1.461793,1.04164,-0.026929,0.109157,-0.128468,43.713796,5.529953,11.247204,4.63583E+18,0.756456,0.090841,0.620075,-0.187163,-9.544543,-1.647999,-0.518332,-0.029908,0.063224,0.010321,42.114716,-6.342087,19.268903,4.63583E+18,-0.621261,0.352032,-0.675058,-0.185486,-8.813091,2.821218,-0.302787,1.406083,0.505329,-0.102294,44.817955,11.719979,-0.263985,4.63583E+18,0.393466,0.64962,0.400395,-0.5127,0
-9.076288,-1.491477,1.023415,0.015905,0.109002,-0.06891,43.936953,5.32084,11.232651,4.63583E+18,0.756045,0.091,0.620476,-0.187417,-9.56896,-1.647999,-0.604617,-0.029908,0.07704,0.007693,42.343249,-6.268151,19.27549,4.63583E+18,-0.62096,0.352121,-0.675283,-0.185502,-8.563929,2.740561,-0.448621,1.270581,0.504967,-0.134644,44.740131,11.853389,-0.350527,4.63583E+18,0.388767,0.652552,0.399088,-0.513581,0
-9.139328,-1.593144,1.017231,0.069755,0.070091,-0.012682,44.346875,4.825471,11.061759,4.63583E+18,0.755782,0.091362,0.620703,-0.187548,-9.525067,-1.636615,-0.644523,-0.004009,0.089928,0.010465,42.188926,-5.94364,19.366564,4.63583E+18,-0.62066,0.352145,-0.675566,-0.185433,-8.662238,3.167369,-0.870874,1.030311,0.48658,-0.160641,44.74667,11.853389,-0.439467,4.63583E+18,0.384684,0.654993,0.398325,-0.51414,0
-9.193257,-1.671488,1.014297,0.122892,0.039156,0.025758,44.65283,4.541154,11.03874,4.63583E+18,0.755607,0.091972,0.620777,-0.187713,-9.544543,-1.783785,-0.567304,0.00384,0.102746,0.01865,41.948896,-5.931975,19.270693,4.63583E+18,-0.620328,0.352135,-0.6759,-0.185345,-9.000976,4.374136,-0.305118,0.591506,0.435179,-0.201131,44.807935,11.861008,-0.405724,4.63583E+18,0.381791,0.656542,0.398523,-0.514168,0
-9.228797,-1.772226,1.085524,0.183972,0.037303,0.054054,44.782931,4.576842,11.221833,4.63583E+18,0.755412,0.092921,0.620774,-0.188038,-9.546189,-1.657879,-0.538772,0.007261,0.117556,0.028192,41.93243,-6.080791,19.274667,4.63583E+18,-0.619952,0.3521,-0.676289,-0.185251,-9.189529,4.538056,0.87123,0.124569,0.400107,-0.241605,44.738192,11.951902,-0.028383,4.63583E+18,0.380143,0.6572,0.399774,-0.513576,0
-9.244088,-1.838221,1.135288,0.261412,0.041658,0.074159,44.896944,4.590926,11.333567,4.63583E+18,0.755191,0.094168,0.620716,-0.188498,-9.546189,-1.556938,-0.594039,-0.010451,0.133504,0.032824,42.091787,-6.091494,19.457613,4.63583E+18,-0.619502,0.352111,-0.676712,-0.185194,-9.43041,3.146191,1.628282,-0.303136,0.318345,-0.291998,44.587113,12.099477,0.313892,4.63583E+18,0.379693,0.656918,0.401946,-0.512574,0
-9.280713,-1.836208,1.135288,0.341258,0.051918,0.091615,45.062762,4.439194,11.340677,4.63583E+18,0.754923,0.095719,0.62062,-0.189104,-9.682781,-1.652784,-0.666459,-0.027685,0.136579,0.045064,42.251309,-6.011816,19.641548,4.63583E+18,-0.619008,0.352133,-0.677146,-0.185214,-9.636827,1.927841,3.953048,-0.640409,0.188022,-0.347756,44.519314,12.264681,0.410454,4.63583E+18,0.380262,0.655725,0.404781,-0.511446,0
-9.296944,-1.792344,1.104704,0.408525,0.08808,0.115829,45.088918,4.363272,11.299898,4.63583E+18,0.754552,0.097573,0.620572,-0.189794,-9.669913,-1.67159,-0.762468,-0.049756,0.140707,0.048918,42.182352,-6.085721,19.574241,4.63583E+18,-0.618467,0.352204,-0.67758,-0.1853,-9.822371,1.086115,5.590283,-0.875024,0.074377,-0.436653,44.501664,12.490115,0.497003,4.63583E+18,0.381469,0.65376,0.408173,-0.510367,0
-9.335703,-1.629506,1.062044,0.450157,0.126146,0.138517,44.894557,4.527054,11.283791,4.63583E+18,0.754078,0.099648,0.620599,-0.190506,-9.611357,-1.535839,-0.746304,-0.068201,0.141991,0.05511,41.960334,-6.171163,19.477417,4.63583E+18,-0.61789,0.352306,-0.678011,-0.185452,-9.919767,-1.00285,5.825703,-0.819669,0.036879,-0.493426,44.42734,12.655313,0.59465,4.63583E+18,0.382461,0.651695,0.411536,-0.509564,0
-9.409892,-1.3894,1.143579,0.470171,0.127359,0.153823,44.752342,4.560359,11.422213,4.63583E+18,0.753602,0.101827,0.620605,-0.19122,-9.470668,-1.696623,-0.699132,-0.050511,0.151025,0.065501,41.864978,-6.176946,19.550466,4.63583E+18,-0.617306,0.35234,-0.678494,-0.185568,-10.127536,-0.442914,4.121893,-0.297758,0.150684,-0.418996,44.341896,12.873116,0.683615,4.63583E+18,0.381996,0.650824,0.413764,-0.509222,0
-9.393545,-1.110666,1.323599,0.481298,0.119196,0.160399,44.788007,4.46791,11.535996,4.63583E+18,0.753142,0.104051,0.62057,-0.191945,-9.449357,-1.697655,-0.593392,-0.041168,0.162631,0.0722,42.086806,-6.336281,19.749739,4.63583E+18,-0.616697,0.352339,-0.679024,-0.185658,-10.257494,1.847736,0.357233,0.175608,0.245672,-0.325687,44.271644,12.939848,0.692299,4.63583E+18,0.380279,0.651065,0.414885,-0.509287,0
-9.376343,-0.812608,1.467004,0.492601,0.15457,0.161383,44.837791,4.498477,11.495241,4.63583E+18,0.752583,0.10634,0.620633,-0.19268,-9.573708,-1.446473,-0.642854,-0.057517,0.168405,0.077613,42.182992,-6.427508,19.854824,4.63583E+18,-0.616043,0.352369,-0.679563,-0.1858,-10.846706,4.015741,-0.468166,0.262873,0.189342,-0.235894,44.357094,12.947447,0.788872,4.63583E+18,0.378611,0.651477,0.415486,-0.509512,0
-9.49851,-0.558372,1.573792,0.498379,0.217582,0.166278,44.868357,4.541154,11.438337,4.63583E+18,0.751883,0.108625,0.620899,-0.193281,-9.63971,-1.66724,-0.851827,-0.057752,0.176733,0.082953,42.04085,-6.433301,19.952483,4.63583E+18,-0.615361,0.35239,-0.68013,-0.185944,-11.38136,4.969419,1.079973,-0.019016,0.055566,-0.228086,44.44146,13.045922,0.874323,4.63583E+18,0.377956,0.651173,0.416452,-0.509598,0
-9.726405,-0.365078,1.638866,0.506671,0.250838,0.170104,44.880474,4.474934,11.519839,4.63583E+18,0.751065,0.111057,0.621241,-0.193979,-9.769025,-1.559445,-0.946384,-0.063654,0.182291,0.090286,42.03009,-6.433301,19.868066,4.63583E+18,-0.614648,0.35241,-0.680718,-0.186115,-10.986993,1.782468,1.982784,-0.089749,0.00325,-0.275062,44.493017,13.277837,0.952177,4.63583E+18,0.377483,0.650563,0.417614,-0.509777,0
-9.94708,-0.157581,1.655115,0.525358,0.252083,0.167516,44.771594,4.382458,11.71513,4.63583E+18,0.750227,0.113542,0.621568,-0.194732,-9.789508,-1.789285,-1.009069,-0.044177,0.183649,0.099753,42.03009,-6.51295,19.861444,4.63583E+18,-0.613952,0.352354,-0.681337,-0.186253,-10.346742,-0.027878,1.530135,0.177308,0.02611,-0.249138,44.323197,13.489181,0.935919,4.63583E+18,0.376301,0.650466,0.418172,-0.510317,0
-10.072151,-0.006073,1.586901,0.537192,0.267676,0.154608,44.679096,4.351908,11.869706,4.63583E+18,0.749327,0.116042,0.621937,-0.195547,-9.744824,-1.954613,-1.081484,-0.002902,0.183721,0.113349,41.802525,-6.518754,20.032118,4.63583E+18,-0.613306,0.352153,-0.682007,-0.186309,-10.235888,1.945307,0.058911,0.201214,0.022924,-0.264659,44.178593,13.481602,0.769066,4.63583E+18,0.375026,0.650371,0.418717,-0.51093,0
-10.133183,0.026441,1.455694,0.543333,0.309067,0.143041,44.78091,4.273578,11.926633,4.63583E+18,0.7483,0.118564,0.62243,-0.196392,-9.764264,-1.806097,-1.14335,0.004978,0.179739,0.126239,41.626644,-6.598401,20.135582,4.63583E+18,-0.612672,0.351891,-0.682692,-0.186382,-10.907224,1.866406,-1.420752,-0.008035,-0.060574,-0.28659,44.192665,13.418883,0.769066,4.63583E+18,0.374417,0.649731,0.419635,-0.511437,0
-10.19422,-0.018337,1.391644,0.545378,0.33513,0.1328,44.8927,4.289941,11.967358,4.63583E+18,0.747191,0.121087,0.623003,-0.197259,-9.731792,-1.419051,-1.272642,-0.002623,0.176462,0.128105,41.615036,-6.604205,20.142216,4.63583E+18,-0.612034,0.351641,-0.683364,-0.186485,-10.660807,0.507359,-2.348225,-0.062977,-0.067794,-0.314453,44.336207,13.595172,0.759337,4.63583E+18,0.373908,0.64894,0.420734,-0.511911,0
-10.255258,-0.117035,1.412007,0.543419,0.314554,0.107247,44.748185,4.418093,12.065017,4.63583E+18,0.746108,0.12352,0.623521,-0.198211,-9.808938,-1.164108,-1.418299,-0.024109,0.160317,0.126187,41.546777,-6.604205,20.051201,4.63583E+18,-0.611412,0.351438,-0.683975,-0.186669,-10.105657,-0.458569,-3.702917,-0.123826,-0.063936,-0.340267,44.309966,13.819529,0.660279,4.63583E+18,0.373502,0.648016,0.422037,-0.512305,0
-10.311201,-0.230949,1.450654,0.543778,0.279492,0.068973,44.570221,4.50354,12.157582,4.63583E+18,0.745077,0.125826,0.623945,-0.1993,-9.917143,-1.409162,-1.51928,-0.038577,0.143227,0.129028,41.530417,-6.524568,20.135571,4.63583E+18,-0.610815,0.35125,-0.684534,-0.186926,-10.439071,-0.739167,-4.231982,-0.19029,-0.086179,-0.334454,44.140143,13.96062,0.680044,4.63583E+18,0.373325,0.646948,0.423431,-0.512633,0
-10.354938,-0.316395,1.469978,0.553571,0.268373,0.033907,44.586561,4.553361,12.207403,4.63583E+18,0.744035,0.128062,0.62434,-0.200528,-9.879123,-1.49651,-1.446307,-0.035541,0.133107,0.12626,41.609203,-6.518754,20.233207,4.63583E+18,-0.610253,0.351054,-0.685066,-0.187183,-10.18056,-0.310583,-4.003532,-0.198981,-0.104962,-0.323111,44.003036,14.038514,0.767987,4.63583E+18,0.373228,0.645845,0.424783,-0.512976,0
-10.335579,-0.350954,1.477096,0.56514,0.259109,0.011301,44.750345,4.588986,12.243028,4.63583E+18,0.742987,0.130266,0.624704,-0.201859,-9.909915,-1.274006,-1.315346,-0.041221,0.120506,0.124051,41.615036,-6.59838,20.239874,4.63583E+18,-0.60972,0.350868,-0.685557,-0.187469,-9.913835,-0.338186,-3.290525,-0.15167,-0.107506,-0.306275,44.080933,14.038514,0.765486,4.63583E+18,0.373044,0.644838,0.425983,-0.513382,0
-10.166697,-0.339776,1.487272,0.574487,0.219052,0.001424,44.814384,4.710045,12.333559,4.63583E+18,0.742023,0.132439,0.624936,-0.203266,-9.912412,-1.200486,-1.226565,-0.054597,0.106693,0.115942,41.467158,-6.76346,20.057869,4.63583E+18,-0.609213,0.350728,-0.685991,-0.187792,-9.793908,0.005147,-2.411172,-0.084318,-0.103516,-0.303165,44.066899,14.044991,0.846961,4.63583E+18,0.372677,0.643948,0.427036,-0.51389,0
-9.857463,-0.374362,1.55238,0.603684,0.182564,-0.000178,44.764549,4.845325,12.426123,4.63583E+18,0.741157,0.134584,0.625045,-0.204675,-9.650811,-1.355561,-1.288984,-0.044596,0.103756,0.104413,41.615578,-6.843353,20.146922,4.63583E+18,-0.608738,0.350594,-0.686407,-0.188062,-9.717822,0.573399,-1.672731,-0.073955,-0.10292,-0.299991,43.907145,14.124695,0.769066,4.63583E+18,0.372287,0.64308,0.428058,-0.514409,0
-9.486128,-0.453722,1.649023,0.656828,0.212837,0.003294,44.835777,4.859554,12.475966,4.63583E+18,0.740152,0.13701,0.625178,-0.206291,-9.552024,-1.435472,-1.259863,-0.000005,0.098634,0.095649,41.627247,-7.007587,20.245414,4.63583E+18,-0.608349,0.350367,-0.686833,-0.18819,-9.854605,0.694745,-1.151453,-0.084196,-0.105873,-0.286955,43.758872,14.272245,0.76799,4.63583E+18,0.371958,0.642211,0.429062,-0.514896,0
-9.184025,-0.621574,1.613402,0.711567,0.310304,0.013976,44.899841,4.774107,12.481053,4.63583E+18,0.738863,0.139714,0.625552,-0.207958,-9.546189,-1.110632,-1.052633,0.02908,0.088317,0.079142,41.479384,-7.178491,20.343073,4.63583E+18,-0.608045,0.350105,-0.68723,-0.188209,-9.899841,0.656696,-0.931356,-0.044047,-0.095568,-0.282682,43.849705,14.432018,0.748245,4.63583E+18,0.371511,0.641433,0.429984,-0.515419,0
-9.080273,-0.83824,1.401819,0.758028,0.414263,0.032578,44.783877,4.759869,12.605158,4.63583E+18,0.737281,0.142699,0.626187,-0.209626,-9.625787,-1.075088,-0.923918,0.041921,0.080623,0.06504,41.388952,-7.042336,20.520308,4.63583E+18,-0.607793,0.349844,-0.687597,-0.188166,-10.025508,0.379506,-0.818625,0.013821,-0.088782,-0.277562,43.975737,14.58677,0.6592,4.63583E+18,0.370907,0.640767,0.430778,-0.516019,0
-9.135206,-1.023386,1.179033,0.796749,0.444795,0.049135,44.625182,4.880925,12.850324,4.63583E+18,0.7356,0.14587,0.626863,-0.211323,-9.631641,-1.17659,-1.09749,0.06163,0.073146,0.049165,41.53092,-6.872271,20.62382,4.63583E+18,-0.607604,0.349573,-0.687938,-0.188037,-10.041696,0.399239,-0.573748,0.076359,-0.075938,-0.26396,43.891372,14.57564,0.651673,4.63583E+18,0.370143,0.640248,0.43142,-0.516675,0
-9.248117,-1.189195,1.147487,0.833865,0.386497,0.056612,44.563121,5.01622,12.959176,4.63583E+18,0.734043,0.149122,0.627312,-0.213126,-9.608899,-1.184118,-1.258696,0.077945,0.056715,0.037122,41.541794,-6.86056,20.448578,4.63583E+18,-0.607495,0.349282,-0.688231,-0.187856,-9.864657,0.474318,-0.610307,0.163952,-0.043041,-0.253466,43.824577,14.57564,0.581275,4.63583E+18,0.369107,0.639953,0.431896,-0.517384,0
-9.382389,-1.286862,1.278711,0.881037,0.307368,0.053052,44.575342,5.030479,12.875782,4.63583E+18,0.732647,0.152437,0.62747,-0.21511,-9.641335,-1.263705,-1.224092,0.087002,0.040621,0.028358,41.621382,-7.008365,20.355606,4.63583E+18,-0.607452,0.348981,-0.688479,-0.187649,-9.861813,0.361854,-1.027505,0.211466,-0.03459,-0.24605,43.823502,14.589617,0.650599,4.63583E+18,0.367945,0.639761,0.432262,-0.518143,0
-9.460737,-1.232967,1.32756,0.938449,0.247194,0.037833,44.497014,4.945027,12.809622,4.63583E+18,0.731346,0.15583,0.627392,-0.217324,-9.507416,-1.2582,-1.266218,0.085598,0.031563,0.015834,41.627247,-7.178429,20.440697,4.63583E+18,-0.607442,0.348711,-0.688683,-0.187429,-9.700986,0.69797,-1.457259,0.183801,-0.026738,-0.250886,43.804854,14.762255,0.55295,4.63583E+18,0.366831,0.639533,0.432712,-0.518838,0
-9.445485,-1.081401,1.301108,0.997018,0.215233,0.008374,44.447155,4.966348,12.902193,4.63583E+18,0.730049,0.159292,0.627171,-0.219797,-9.451887,-1.132314,-1.349147,0.071526,0.013072,0.003018,41.468091,-7.031007,20.617923,4.63583E+18,-0.607476,0.3485,-0.688811,-0.187243,-9.525392,0.70413,-1.779342,0.125582,-0.015458,-0.261943,43.712958,15.072131,0.472472,4.63583E+18,0.365828,0.639219,0.433334,-0.519413,0
-9.413948,-0.882049,1.283818,1.041792,0.213717,-0.024382,44.482739,5.16774,12.987639,4.63583E+18,0.72868,0.162801,0.626914,-0.222484,-9.39169,-1.236761,-1.229974,0.056572,-0.004166,-0.004827,41.456341,-6.871473,20.630512,4.63583E+18,-0.607543,0.348335,-0.688873,-0.187106,-9.435249,0.537126,-2.019193,0.084206,-0.009425,-0.276334,43.560706,15.290111,0.545435,4.63583E+18,0.364892,0.638828,0.434093,-0.519919,0
-9.374286,-0.646037,1.254322,1.071078,0.210163,-0.051263,44.461448,5.411875,13.073086,4.63583E+18,0.72726,0.166322,0.626624,-0.225328,-9.353393,-1.301988,-1.118441,0.047587,-0.019265,-0.009319,41.456341,-6.940127,20.448646,4.63583E+18,-0.607644,0.348193,-0.688882,-0.187006,-9.424115,0.533909,-2.206984,0.047727,-0.008228,-0.284409,43.495637,15.36442,0.361272,4.63583E+18,0.364033,0.638368,0.434953,-0.520367,0
-9.318336,-0.499509,1.21262,1.09751,0.191474,-0.069782,44.295638,5.589942,13.122958,4.63583E+18,0.725835,0.169854,0.626251,-0.228305,-9.203089,-1.31756,-1.099506,0.028099,-0.028252,-0.022544,41.456341,-6.866437,20.34425,4.63583E+18,-0.607754,0.348132,-0.688834,-0.186941,-9.42197,0.468333,-2.311489,0.034708,-0.015553,-0.287801,43.629261,15.448799,0.182039,4.63583E+18,0.363214,0.637865,0.435839,-0.520815,0
-9.264428,-0.428312,1.194281,1.129553,0.174824,-0.074326,44.269063,5.63982,13.122958,4.63583E+18,0.724409,0.173451,0.625785,-0.231385,-9.249008,-1.2843,-1.212333,0.013774,-0.040775,-0.033445,41.308576,-6.86056,20.428468,4.63583E+18,-0.607886,0.348129,-0.688728,-0.186907,-9.397556,0.113909,-2.349596,0.053804,-0.010494,-0.292297,43.615322,15.51561,0.188059,4.63583E+18,0.362324,0.637392,0.436702,-0.52129,0
-9.203392,-0.373348,1.228857,1.166487,0.169836,-0.069256,44.39727,5.741441,13.158526,4.63583E+18,0.722982,0.17709,0.625271,-0.23446,-9.38961,-1.327243,-1.22074,0.016796,-0.04862,-0.03617,41.365846,-6.86056,20.435194,4.63583E+18,-0.608049,0.348119,-0.6886,-0.18687,-9.390278,-0.080525,-2.260296,0.081236,-0.008545,-0.288213,43.456641,15.522035,0.37586,4.63583E+18,0.361367,0.636971,0.437497,-0.521803,0
-9.16776,-0.340816,1.272606,1.204057,0.173837,-0.059019,44.411585,5.955106,13.122028,4.63583E+18,0.72148,0.180942,0.624688,-0.237678,-9.456533,-1.273774,-1.232107,0.014107,-0.055102,-0.051236,41.530022,-6.86056,20.526125,4.63583E+18,-0.608237,0.348154,-0.688431,-0.186813,-9.548331,0.092305,-2.009295,0.094053,-0.008264,-0.28542,43.311867,15.595279,0.467522,4.63583E+18,0.36038,0.636574,0.438256,-0.522332,0
-9.203323,-0.295024,1.268583,1.228895,0.18345,-0.049407,44.290576,6.049792,12.884034,4.63583E+18,0.719922,0.184899,0.624085,-0.240919,-9.540294,-1.155918,-1.232948,0.00593,-0.066483,-0.057311,41.609983,-6.701449,20.623774,4.63583E+18,-0.608452,0.348218,-0.688219,-0.186779,-9.57917,0.020561,-1.815049,0.108557,-0.004966,-0.275526,43.318291,15.66317,0.361298,4.63583E+18,0.35937,0.636222,0.438962,-0.522864,0
-9.324338,-0.301092,1.212626,1.246788,0.191729,-0.040682,44.1908,6.113791,12.79632,4.63583E+18,0.718317,0.188935,0.623464,-0.244167,-9.625745,-1.431622,-1.142027,0.015285,-0.070277,-0.055691,41.535483,-6.610102,20.448672,4.63583E+18,-0.608689,0.34825,-0.688006,-0.186729,-9.670402,-0.157183,-1.643722,0.140505,0.000055,-0.261961,43.377627,15.673237,0.183111,4.63583E+18,0.358294,0.635953,0.43957,-0.523419,0
-9.495233,-0.32452,1.153639,1.261476,0.195471,-0.036762,44.1908,6.355803,13.014981,4.63583E+18,0.716671,0.193023,0.622818,-0.247432,-9.574816,-1.634522,-1.055733,0.025967,-0.067514,-0.05256,41.529587,-6.683761,20.435194,4.63583E+18,-0.608932,0.348248,-0.687812,-0.186653,-9.69054,-0.268563,-1.609864,0.171481,0.012592,-0.240317,43.292174,15.689904,0.190597,4.63583E+18,0.35716,0.635795,0.44007,-0.523965,0
-9.630568,-0.317392,1.085482,1.281402,0.191916,-0.040496,44.1908,6.651864,13.049908,4.63583E+18,0.714992,0.197152,0.622125,-0.250756,-9.513786,-1.488908,-0.970291,0.030681,-0.060333,-0.049356,41.529587,-6.689657,20.526103,4.63583E+18,-0.609158,0.348231,-0.687646,-0.18656,-9.666125,-0.270701,-1.720175,0.201615,0.021924,-0.216218,43.206723,16.013704,0.268563,4.63583E+18,0.355982,0.635745,0.440454,-0.524504,0
-9.73633,-0.302158,1.054915,1.306421,0.178928,-0.050639,44.155252,6.85841,12.756936,4.63583E+18,0.713291,0.201311,0.621355,-0.254179,-9.520931,-1.556641,-0.907567,0.045891,-0.056833,-0.044163,41.529587,-6.769202,20.532852,4.63583E+18,-0.609393,0.348162,-0.687507,-0.186433,-9.644915,-0.290845,-1.699438,0.222133,0.029172,-0.196343,43.135156,16.370129,0.268563,4.63583E+18,0.354778,0.635777,0.440751,-0.525032,0
-9.860458,-0.255378,1.046809,1.317915,0.154813,-0.06408,44.135818,7.095336,12.616303,4.63583E+18,0.711605,0.205437,0.620494,-0.257684,-9.499048,-1.744365,-0.880621,0.061913,-0.053629,-0.031862,41.461404,-6.775109,20.351035,4.63583E+18,-0.609632,0.34802,-0.687407,-0.186286,-9.65499,-0.264297,-1.606635,0.233043,0.044821,-0.170385,43.209465,16.356264,0.268563,4.63583E+18,0.353573,0.635905,0.440978,-0.525499,0
-9.904311,-0.179118,1.035576,1.316053,0.115844,-0.079562,44.143054,7.353819,12.694616,4.63583E+18,0.709981,0.209469,0.619512,-0.261255,-9.49736,-1.735142,-0.935744,0.076939,-0.047442,-0.019046,41.376808,-6.775109,20.337534,4.63583E+18,-0.609866,0.347807,-0.687352,-0.18612,-9.642782,-0.201605,-1.689953,0.23266,0.055544,-0.15232,43.287453,16.211432,0.260032,4.63583E+18,0.352388,0.636089,0.441173,-0.525909,0
-9.885945,-0.076373,1.070148,1.302799,0.074524,-0.092126,44.062673,7.482061,12.825775,4.63583E+18,0.708438,0.213377,0.618414,-0.264857,-9.520081,-1.676647,-0.996774,0.082945,-0.042028,-0.007224,41.450415,-6.695584,20.246647,4.63583E+18,-0.610083,0.347549,-0.687333,-0.18596,-9.638031,-0.014337,-1.749919,0.204748,0.055264,-0.135139,43.273608,16.218887,0.163449,4.63583E+18,0.351315,0.636261,0.441382,-0.526243,0
-9.905284,0.023351,1.093586,1.277432,0.059902,-0.090441,44.055455,7.531968,12.980487,4.63583E+18,0.706935,0.217191,0.617281,-0.268394,-9.510414,-1.570168,-0.989646,0.071387,-0.032711,0.00055,41.524506,-6.689657,20.239874,4.63583E+18,-0.610252,0.347305,-0.68734,-0.185839,-9.710211,-0.045142,-1.795553,0.165742,0.052712,-0.117167,43.128757,16.296883,0.101427,4.63583E+18,0.350388,0.636402,0.441626,-0.526486,0
-9.917491,0.108797,1.071222,1.242903,0.06702,-0.079674,44.135821,7.603073,12.951164,4.63583E+18,0.705458,0.220879,0.6162,-0.271734,-9.475485,-1.585269,-0.920636,0.059563,-0.030056,0.009021,41.609109,-6.689657,20.33076,4.63583E+18,-0.610389,0.347069,-0.687356,-0.185769,-9.765923,-0.126827,-1.826929,0.14238,0.056985,-0.101238,43.143666,16.283039,0.277082,4.63583E+18,0.349551,0.636548,0.441884,-0.52665,0
-9.934778,0.219651,1.070155,1.198935,0.079301,-0.065788,44.209071,7.768906,12.708071,4.63583E+18,0.703961,0.224537,0.615154,-0.274967,-9.461584,-1.609684,-0.915555,0.048808,-0.025932,0.019554,41.694562,-6.610132,20.246648,4.63583E+18,-0.61049,0.346833,-0.68739,-0.185752,-9.761668,-0.042448,-2.038636,0.10834,0.060419,-0.086658,43.297533,16.16584,0.333252,4.63583E+18,0.348829,0.636677,0.442183,-0.526721,0
-9.943954,0.340744,1.088507,1.146953,0.088212,-0.051902,44.221359,7.932685,12.572562,4.63583E+18,0.702487,0.228084,0.614166,-0.278012,-9.460737,-1.531853,-0.926916,0.042102,-0.019671,0.028247,41.768655,-6.524681,20.14899,4.63583E+18,-0.610557,0.346594,-0.687447,-0.185767,-9.711776,0.007398,-2.032255,0.065849,0.055637,-0.075511,43.260356,16.475787,-0.020716,4.63583E+18,0.348253,0.636755,0.442539,-0.52671,0
-9.926669,0.421111,1.028541,1.092037,0.08581,-0.039794,44.209067,8.032472,12.622455,4.63583E+18,0.701067,0.231493,0.613209,-0.280876,-9.494812,-1.514567,-0.939121,0.034701,-0.013264,0.035797,41.705586,-6.677765,20.323943,4.63583E+18,-0.61059,0.346357,-0.687525,-0.185813,-9.658183,-0.178348,-1.971772,0.037195,0.056519,-0.060419,43.105403,16.680077,-0.093915,4.63583E+18,0.347784,0.63682,0.442918,-0.526621,0
-9.897177,0.46896,0.969463,1.047605,0.078872,-0.032403,44.21629,8.027393,12.465025,4.63583E+18,0.699702,0.234774,0.612264,-0.283603,-9.554148,-1.50236,-0.883181,0.027224,-0.006855,0.045261,41.620984,-6.916812,20.61012,4.63583E+18,-0.610586,0.346116,-0.687627,-0.185896,-9.681533,-0.264852,-2.03014,0.013097,0.056194,-0.054521,43.123981,16.589323,0.081741,4.63583E+18,0.347392,0.636861,0.443334,-0.526481,0
-9.891022,0.516709,0.98167,1.023654,0.060194,-0.032574,44.100378,8.091349,12.238948,4.63583E+18,0.698469,0.237797,0.611344,-0.286098,-9.535679,-1.524229,-0.867574,0.016764,-0.001439,0.05587,41.762707,-6.786137,20.630512,4.63583E+18,-0.610543,0.345875,-0.687751,-0.186028,-9.693741,-0.351891,-1.935667,0.018531,0.062463,-0.042586,43.195627,16.441773,0.170904,4.63583E+18,0.347001,0.636944,0.443716,-0.526316,0
-9.917489,0.594058,1.00911,1.003009,0.02762,-0.041648,43.972147,8.292718,12.348601,4.63583E+18,0.697246,0.24084,0.610296,-0.288762,-9.488556,-1.548638,-0.844013,0.005092,0.002907,0.065555,41.773735,-6.616118,20.448809,4.63583E+18,-0.610464,0.34564,-0.68789,-0.186212,-9.702762,-0.325352,-1.871444,0.046535,0.056612,-0.028514,43.128757,16.295821,0.187895,4.63583E+18,0.346576,0.637082,0.44399,-0.526198,0
-9.909388,0.617501,1.047783,0.976931,-0.01136,-0.053133,43.988237,8.506392,12.426281,4.63583E+18,0.696121,0.243728,0.609166,-0.291427,-9.485152,-1.470837,-0.842311,-0.011628,0.013142,0.069207,41.773735,-6.683709,20.25347,4.63583E+18,-0.610328,0.345444,-0.688047,-0.186439,-9.67941,-0.276528,-1.783342,0.065481,0.057169,-0.012772,43.122394,16.298464,0.366222,4.63583E+18,0.346135,0.637276,0.444182,-0.526091,0
-9.857541,0.645902,1.06712,0.943123,-0.039426,-0.06319,44.146921,8.636675,12.223846,4.63583E+18,0.695076,0.246454,0.607995,-0.29406,-9.507868,-1.430815,-0.8991,-0.029712,0.02283,0.074399,41.705587,-6.769161,20.421599,4.63583E+18,-0.610135,0.345287,-0.688222,-0.186718,-9.66296,-0.223456,-1.801913,0.080204,0.062742,-0.000047,43.048087,16.449736,0.357737,4.63583E+18,0.345672,0.637527,0.444316,-0.525978,0
-9.814753,0.68567,1.074252,0.896664,-0.035799,-0.072539,44.17364,8.714996,12.109744,4.63583E+18,0.694127,0.248859,0.60696,-0.296408,-9.577697,-1.496396,-0.880638,-0.029983,0.027474,0.086693,41.621003,-6.854594,20.616874,4.63583E+18,-0.609918,0.345098,-0.688426,-0.187021,-9.598741,-0.124736,-1.885243,0.080715,0.059816,0.011238,42.99021,16.517677,0.268563,4.63583E+18,0.345238,0.637793,0.444414,-0.525858,0
-9.789372,0.676483,1.08948,0.842463,-0.027232,-0.077795,44.080933,8.830904,12.06406,4.63583E+18,0.693194,0.251105,0.606012,-0.298627,-9.526044,-1.580985,-0.890286,-0.026928,0.0387,0.093549,41.467442,-6.940035,20.448857,4.63583E+18,-0.609668,0.344891,-0.68867,-0.187318,-9.513809,-0.027596,-1.949461,0.073983,0.05926,0.01774,43.20306,16.528824,0.28447,4.63583E+18,0.344838,0.63806,0.444508,-0.525718,0
-9.723263,0.658237,1.156553,0.780874,-0.031864,-0.076822,44.111386,8.95914,11.91867,4.63583E+18,0.692325,0.253177,0.605117,-0.300699,-9.53313,-1.48477,-0.925205,-0.021736,0.044489,0.101945,41.603951,-6.866529,20.435194,4.63583E+18,-0.609403,0.34465,-0.688946,-0.187613,-9.560515,-0.06951,-2.041814,0.054012,0.052944,0.025494,43.199379,16.528824,0.44426,4.63583E+18,0.344519,0.638297,0.444616,-0.525547,0
-9.629731,0.622578,1.261332,0.71768,-0.01713,-0.071038,44.154179,9.009064,11.84515,4.63583E+18,0.691487,0.255097,0.604333,-0.302577,-9.533982,-1.567923,-0.973176,-0.003481,0.047842,0.111483,41.92158,-6.769733,20.526021,4.63583E+18,-0.609146,0.344338,-0.689257,-0.187875,-9.578575,-0.162932,-2.077377,0.049505,0.048159,0.036176,43.03695,16.527765,0.366222,4.63583E+18,0.344244,0.638538,0.444698,-0.525365,0
-9.517807,0.602283,1.338694,0.654841,0.027094,-0.060634,44.154179,9.04458,11.942808,4.63583E+18,0.690612,0.256913,0.603741,-0.304215,-9.52263,-1.540699,-0.953888,0.015743,0.058,0.120102,41.717598,-7.001293,20.453389,4.63583E+18,-0.608881,0.34396,-0.689621,-0.188089,-9.524463,-0.196949,-2.11025,0.052667,0.048487,0.046208,42.977462,16.517674,0.374684,4.63583E+18,0.343983,0.638801,0.444747,-0.525175,0
-9.440442,0.568674,1.331711,0.595191,0.078547,-0.042392,44.154179,9.195995,11.91362,4.63583E+18,0.689691,0.258665,0.603351,-0.30559,-9.533128,-1.401894,-1.008944,0.022057,0.060735,0.124674,41.552898,-7.178202,20.447401,4.63583E+18,-0.608614,0.343555,-0.690003,-0.188293,-9.428346,-0.101317,-2.214344,0.04514,0.040917,0.049875,43.069261,16.528824,0.471285,4.63583E+18,0.343764,0.639044,0.444792,-0.524985,0
-9.427127,0.566614,1.246266,0.545338,0.120756,-0.02103,44.118666,9.369102,11.711182,4.63583E+18,0.688741,0.260378,0.603121,-0.306731,-9.556686,-1.357588,-1.024566,0.018458,0.055918,0.125967,41.621259,-7.110697,20.538216,4.63583E+18,-0.608354,0.343151,-0.690372,-0.188518,-9.482463,-0.266448,-2.13418,0.049177,0.033205,0.058605,43.214207,16.528824,0.557794,4.63583E+18,0.343567,0.639291,0.444793,-0.524811,0
-9.478965,0.57882,1.181108,0.504917,0.135752,-0.001,44.068726,9.447416,11.591961,4.63583E+18,0.687739,0.2622,0.602892,-0.307874,-9.581098,-1.332321,-1.070824,0.010213,0.059516,0.125048,41.547792,-7.025255,20.624514,4.63583E+18,-0.608073,0.342773,-0.690742,-0.188759,-9.58598,-0.223024,-2.102375,0.061347,0.033811,0.068546,43.200476,16.52143,0.639599,4.63583E+18,0.343359,0.639576,0.444742,-0.524645,0
-9.577563,0.606242,1.195205,0.476064,0.119844,0.010945,44.104228,9.49736,11.665972,4.63583E+18,0.68682,0.263947,0.60264,-0.308926,-9.582811,-1.273848,-1.108307,0.009613,0.055843,0.121,41.314758,-7.178182,20.539697,4.63583E+18,-0.607804,0.342405,-0.691096,-0.188998,-9.615209,-0.002112,-2.00307,0.06641,0.029816,0.070775,43.061849,16.443373,0.536191,4.63583E+18,0.343149,0.639862,0.444668,-0.524495,0
-9.711844,0.665215,1.295872,0.450263,0.091185,0.012374,44.154179,9.49736,11.820717,4.63583E+18,0.685999,0.265586,0.602334,-0.309939,-9.582811,-1.212824,-1.076826,0.007627,0.050578,0.116729,41.308994,-7.349048,20.453409,4.63583E+18,-0.607551,0.342049,-0.691428,-0.189238,-9.565314,-0.017009,-2.017395,0.068269,0.02884,0.073887,43.135105,16.437025,0.260099,4.63583E+18,0.342943,0.640155,0.444581,-0.524347,0
-9.810621,0.753669,1.41794,0.408015,0.071484,0.006425,44.083183,9.532857,11.796667,4.63583E+18,0.685353,0.266892,0.602107,-0.310689,-9.571463,-1.140439,-1.062903,0.00847,0.046231,0.109477,41.377948,-7.281622,20.447401,4.63583E+18,-0.607317,0.341709,-0.69174,-0.189465,-9.504184,0.070728,-2.047614,0.067293,0.028934,0.075933,43.202,16.363668,0.170904,4.63583E+18,0.342743,0.64045,0.44449,-0.524194,0
-9.854378,0.817896,1.428461,0.351851,0.076791,-0.00861,43.947782,9.54732,11.646994,4.63583E+18,0.684726,0.268019,0.601978,-0.311349,-9.604655,-1.123938,-1.039343,0.009538,0.039971,0.101999,41.303645,-7.048606,20.526853,4.63583E+18,-0.607109,0.341383,-0.692025,-0.189678,-9.446377,0.174134,-2.017452,0.066634,0.029249,0.076907,43.202,16.289346,0.163367,4.63583E+18,0.342547,0.640747,0.444398,-0.524037,0
-9.860579,0.833107,1.195779,0.295863,0.096642,-0.026769,43.902893,9.431448,11.678156,4.63583E+18,0.684084,0.268973,0.601994,-0.311906,-9.641273,-1.123081,-1.037629,0.016565,0.039521,0.094523,41.445182,-6.952021,20.532852,4.63583E+18,-0.606918,0.341059,-0.692304,-0.189854,-9.423039,0.197836,-2.05192,0.059816,0.022337,0.076907,43.19554,16.218968,0.085452,4.63583E+18,0.342381,0.641019,0.444311,-0.523887,0
-9.813819,0.854518,0.927965,0.241029,0.099011,-0.040934,43.940447,9.338663,11.832908,4.63583E+18,0.683399,0.269889,0.602037,-0.312535,-9.6325,-1.111732,-1.037629,0.029007,0.037535,0.086053,41.456341,-7.093549,20.442062,4.63583E+18,-0.606757,0.340727,-0.692576,-0.189975,-9.408682,0.089057,-2.069503,0.060663,0.021551,0.076907,43.128757,16.309786,0.110183,4.63583E+18,0.342215,0.64129,0.444222,-0.52374,0
-9.773062,0.839316,0.892986,0.186925,0.074105,-0.045044,43.947801,9.475486,11.803863,4.63583E+18,0.68283,0.270608,0.602082,-0.313067,-9.64299,-1.178967,-1.003582,0.040831,0.038378,0.08148,41.388249,-7.184152,20.525985,4.63583E+18,-0.606615,0.340378,-0.692851,-0.190049,-9.374211,0.004301,-2.141671,0.0699,0.023499,0.077001,43.135208,16.450899,0.365147,4.63583E+18,0.342024,0.641577,0.444117,-0.523602,0
-9.760856,0.792564,1.025182,0.133421,0.042869,-0.039804,43.897823,9.698662,11.682485,4.63583E+18,0.682406,0.271148,0.602102,-0.313487,-9.632501,-1.184118,-0.98966,0.044637,0.03746,0.073236,41.303664,-7.190161,20.532852,4.63583E+18,-0.606487,0.340042,-0.693115,-0.190094,-9.369521,0.050977,-2.196259,0.075052,0.022748,0.077787,43.215959,16.514864,0.329317,4.63583E+18,0.341825,0.641869,0.444001,-0.523473,0
-9.70811,0.751792,1.121008,0.08517,0.018179,-0.027087,43.897823,9.675633,11.723023,4.63583E+18,0.682114,0.271551,0.6021,-0.313777,-9.563556,-1.138728,-1.011495,0.042876,0.035399,0.068662,41.297646,-7.269593,20.442073,4.63583E+18,-0.606367,0.339722,-0.693366,-0.190135,-9.44384,0.062506,-2.184051,0.078445,0.014672,0.075932,43.354252,16.356169,0.073244,4.63583E+18,0.341631,0.642143,0.443872,-0.523372,0
-9.598249,0.754785,1.094755,0.034627,0.014671,-0.013544,43.831956,9.582811,11.704144,4.63583E+18,0.68199,0.271677,0.602213,-0.31372,-9.535702,-1.067204,-1.001867,0.025847,0.042199,0.058432,41.229559,-7.355045,20.525973,4.63583E+18,-0.606212,0.339479,-0.693605,-0.190191,-9.518553,-0.035944,-2.177213,0.084161,0.011468,0.076437,43.287453,16.204989,0.090425,4.63583E+18,0.341432,0.642417,0.443728,-0.523288,0
-9.523851,0.804527,0.986971,-0.025346,0.026057,-0.004999,43.739124,9.648667,11.591967,4.63583E+18,0.681923,0.271656,0.602433,-0.313463,-9.511293,-0.982631,-1.035041,0.000743,0.039748,0.048746,41.144989,-7.440477,20.623611,4.63583E+18,-0.606036,0.339326,-0.693804,-0.190299,-9.483005,0.103028,-2.20779,0.093023,0.009297,0.070908,43.288526,16.138187,0.277152,4.63583E+18,0.3412,0.642688,0.443576,-0.523235,0
-9.534896,0.884913,0.925687,-0.095117,0.043932,0.002216,43.810046,9.675652,11.706405,4.63583E+18,0.681897,0.271483,0.602784,-0.312994,-9.532257,-1.203483,-0.992251,-0.010995,0.037536,0.047074,41.13895,-7.525928,20.812025,4.63583E+18,-0.605852,0.339205,-0.693985,-0.190439,-9.462882,0.166203,-2.064124,0.092402,0.016527,0.063057,43.306094,16.131753,0.349065,4.63583E+18,0.340939,0.642958,0.443458,-0.523173,0
-9.606061,0.917632,0.960231,-0.166338,0.057237,0.008443,43.975877,9.582811,11.958847,4.63583E+18,0.681836,0.271312,0.603182,-0.312507,-9.556673,-1.266124,-1.090913,-0.0048,0.041356,0.046006,41.218369,-7.600043,20.655642,4.63583E+18,-0.605667,0.339074,-0.694179,-0.190555,-9.490514,0.252727,-2.065607,0.074713,0.010681,0.05065,43.365399,16.064943,0.170904,4.63583E+18,0.340709,0.643168,0.443404,-0.523112,0
-9.691506,0.872962,1.02425,-0.220594,0.048636,0.015477,44.068726,9.653712,12.068057,4.63583E+18,0.681867,0.270994,0.603618,-0.311874,-9.637809,-1.167468,-1.15539,-0.006258,0.039672,0.04196,41.303813,-7.537144,20.551961,4.63583E+18,-0.605489,0.338957,-0.694362,-0.190667,-9.550478,0.334303,-1.963248,0.060769,0.010963,0.031799,43.288525,16.063871,0.17948,4.63583E+18,0.340474,0.643322,0.443431,-0.523052,0
-9.731379,0.830103,1.043866,-0.252661,0.029409,0.023658,44.00289,9.753716,12.0204,4.63583E+18,0.682076,0.270419,0.604103,-0.310975,-9.632504,-1.227771,-1.102981,-0.005416,0.041507,0.04265,41.309853,-7.452556,20.635816,4.63583E+18,-0.605306,0.338837,-0.69455,-0.190776,-9.597158,0.271329,-1.951673,0.036169,0.013605,0.01638,43.306077,16.053804,0.260007,4.63583E+18,0.340266,0.643419,0.443557,-0.522961,0
-9.686715,0.769346,0.945313,-0.277226,0.016386,0.03611,43.91003,9.652453,11.968318,4.63583E+18,0.682363,0.269783,0.604571,-0.309988,-9.631641,-1.232948,-1.053288,-0.010304,0.037687,0.039748,41.23044,-7.367104,20.540618,4.63583E+18,-0.605129,0.338734,-0.69472,-0.190898,-9.61515,0.417622,-2.059839,0.023874,0.0104,-0.003542,43.366481,16.057448,0.170904,4.63583E+18,0.340054,0.643454,0.443758,-0.522885,0
-9.633724,0.617809,0.856602,-0.297362,0.022301,0.048849,43.91003,9.474133,11.940029,4.63583E+18,0.682673,0.269128,0.605067,-0.308905,-9.631641,-1.142202,-0.993121,-0.03351,0.040363,0.034559,41.2244,-7.361064,20.623598,4.63583E+18,-0.604917,0.338706,-0.694871,-0.19107,-9.569535,0.312045,-2.02536,0.028614,0.007477,-0.018907,43.293243,15.979491,0.19657,4.63583E+18,0.339801,0.643461,0.443987,-0.522847,0
-9.619433,0.448985,0.857498,-0.308591,0.039939,0.054476,43.940403,9.52536,11.803952,4.63583E+18,0.68287,0.268647,0.605545,-0.307949,-9.586269,-1.078573,-1.045515,-0.048152,0.043567,0.028226,41.29246,-7.361064,20.721256,4.63583E+18,-0.604681,0.338736,-0.695008,-0.191265,-9.553049,0.258494,-2.012083,0.037479,0.007477,-0.027733,43.218928,15.993394,0.463881,4.63583E+18,0.339506,0.643464,0.444219,-0.522838,0
-9.649802,0.281071,0.883994,-0.312524,0.047624,0.053147,43.952905,9.668263,11.722976,4.63583E+18,0.683049,0.268163,0.60605,-0.306979,-9.582811,-1.210368,-1.095209,-0.049135,0.039824,0.025787,41.308988,-7.440466,20.72817,4.63583E+18,-0.604456,0.338772,-0.695132,-0.191462,-9.495222,0.279701,-1.987668,0.037705,0.007477,-0.039295,43.139895,16.151019,0.446773,4.63583E+18,0.339184,0.643445,0.444482,-0.522846,0
-9.707863,0.159889,0.886079,-0.315885,0.04877,0.0464,43.91003,9.531606,11.906679,4.63583E+18,0.68322,0.267654,0.606569,-0.306017,-9.582811,-1.254761,-1.098666,-0.044173,0.040514,0.026628,41.230469,-7.525898,20.648789,4.63583E+18,-0.604236,0.338794,-0.695262,-0.191647,-9.468673,0.272835,-1.964324,0.028506,0.007944,-0.049281,43.142641,16.299627,0.276039,4.63583E+18,0.338865,0.643396,0.444792,-0.52285,0
-9.714118,0.109867,0.883994,-0.324612,0.050828,0.03465,43.91003,9.338663,12.166302,4.63583E+18,0.683379,0.267092,0.607117,-0.305063,-9.582811,-1.189313,-1.075983,-0.045779,0.03662,0.021742,41.2244,-7.600017,20.73345,4.63583E+18,-0.604029,0.33883,-0.695374,-0.19183,-9.423047,0.332344,-1.954252,0.010242,0.012351,-0.063074,43.287453,16.448104,0.355083,4.63583E+18,0.338556,0.643304,0.445185,-0.522828,0
-9.697738,0.119986,0.90126,-0.331646,0.050646,0.025115,43.91003,9.409502,12.235108,4.63583E+18,0.683533,0.266486,0.607684,-0.304119,-9.616832,-1.240819,-1.119613,-0.037,0.03334,0.025332,41.371826,-7.537171,20.910481,4.63583E+18,-0.603841,0.338831,-0.695489,-0.192001,-9.420452,0.484024,-1.962188,-0.031136,0.00701,-0.076079,43.279977,16.363721,0.349135,4.63583E+18,0.33834,0.643119,0.445696,-0.522762,0
-9.709945,0.169697,0.905437,-0.337612,0.05924,0.016936,43.879674,9.403322,12.17584,4.63583E+18,0.683737,0.265698,0.608359,-0.302998,-9.585417,-1.29051,-1.123081,-0.038301,0.029144,0.024643,41.315064,-7.531968,20.753407,4.63583E+18,-0.603665,0.338833,-0.695591,-0.192181,-9.512771,0.41811,-1.930905,-0.065945,0.00251,-0.090472,43.188118,16.281933,0.163429,4.63583E+18,0.338194,0.642847,0.446314,-0.522663,0
-9.701916,0.23491,0.860786,-0.344723,0.071826,0.009353,43.836784,9.187444,12.268992,4.63583E+18,0.683912,0.264875,0.60909,-0.301853,-9.571473,-1.225953,-1.202452,-0.031508,0.027848,0.020599,41.309853,-7.6,20.558959,4.63583E+18,-0.603506,0.338829,-0.695689,-0.192333,-9.544056,0.18892,-1.965982,-0.063021,0.006596,-0.098736,43.05077,16.127047,0.101449,4.63583E+18,0.338014,0.642572,0.446953,-0.522571,0
-9.670352,0.276593,0.812837,-0.360092,0.073702,0.009248,43.8722,9.200761,12.50182,4.63583E+18,0.684101,0.264002,0.609848,-0.300658,-9.593282,-1.130031,-1.242549,-0.037921,0.028764,0.016326,41.309853,-7.605212,20.545059,4.63583E+18,-0.603339,0.338854,-0.695778,-0.192491,-9.519642,0.126339,-2.099673,-0.06386,0.008265,-0.104263,43.136222,16.158448,0.277094,4.63583E+18,0.337822,0.642289,0.447612,-0.522479,0
-9.67123,0.325417,0.805689,-0.393767,0.071489,0.01529,43.957643,9.350871,12.69954,4.63583E+18,0.684251,0.263219,0.610558,-0.299558,-9.572347,-1.055065,-1.301835,-0.03151,0.02884,0.005111,41.15115,-7.616548,20.715099,4.63583E+18,-0.60319,0.338896,-0.695856,-0.192603,-9.502685,0.140018,-2.092218,-0.07105,0.005434,-0.111647,43.213142,16.383974,0.357702,4.63583E+18,0.337637,0.641976,0.448301,-0.522392,0
-9.692678,0.36413,0.805689,-0.445373,0.069247,0.024278,44.00769,9.315468,12.675815,4.63583E+18,0.684474,0.26231,0.611314,-0.298303,-9.717987,-0.789083,-1.396889,-0.027008,0.029832,-0.000687,41.13895,-7.4587,20.72817,4.63583E+18,-0.60305,0.338943,-0.695932,-0.192687,-9.562656,-0.184176,-2.019547,-0.053264,0.006223,-0.117403,43.19561,16.528824,0.277083,4.63583E+18,0.337392,0.641678,0.448968,-0.522345,0
-9.733141,0.398661,0.795573,-0.497118,0.077579,0.032121,44.002631,9.265419,12.445087,4.63583E+18,0.684738,0.261285,0.612147,-0.296884,-9.797315,-1.086471,-1.222478,-0.041582,0.033876,-0.006028,41.286316,-7.287814,20.637484,4.63583E+18,-0.602882,0.339045,-0.695998,-0.192793,-9.612551,-0.166563,-2.077389,-0.041149,0.004552,-0.11708,43.128757,16.528824,0.373677,4.63583E+18,0.337117,0.641394,0.449605,-0.522323,0
-9.840895,0.407036,0.761051,-0.538876,0.084049,0.039673,43.894365,9.194638,12.32615,4.63583E+18,0.685123,0.259989,0.613115,-0.295131,-9.779876,-1.337562,-1.185864,-0.038759,0.035172,-0.004425,41.297646,-7.275612,20.811862,4.63583E+18,-0.602713,0.339137,-0.696071,-0.192895,-9.667199,0.128957,-2.093284,-0.047744,0.007198,-0.124464,43.128757,16.52137,0.44422,4.63583E+18,0.336839,0.641092,0.45028,-0.522292,0
-9.94779,0.363267,0.717282,-0.569622,0.062238,0.047257,43.690685,8.96311,12.597731,4.63583E+18,0.685605,0.258591,0.614049,-0.293292,-9.710116,-1.377693,-1.184118,-0.029526,0.036241,-0.000305,41.150283,-7.354962,21.007201,4.63583E+18,-0.602551,0.339193,-0.69616,-0.192978,-9.658183,0.056228,-2.016857,-0.054427,0.004459,-0.130872,43.128757,16.436991,0.349205,4.63583E+18,0.33657,0.640761,0.450982,-0.522265,0
-10.023131,0.3317,0.716036,-0.580814,0.026957,0.048693,43.670539,8.807444,12.885965,4.63583E+18,0.686189,0.257116,0.614892,-0.291452,-9.636879,-1.322765,-1.172784,-0.01198,0.043259,0.004959,41.13895,-7.361064,20.839799,4.63583E+18,-0.602391,0.339195,-0.696289,-0.193013,-9.681534,-0.113568,-1.922942,-0.042075,0.006502,-0.13756,43.135137,16.383951,0.17941,4.63583E+18,0.336249,0.64044,0.451678,-0.522265,0
-10.028581,0.271914,0.754758,-0.572746,0.012892,0.045856,43.829233,8.88574,12.797959,4.63583E+18,0.686703,0.255827,0.615606,-0.289864,-9.631641,-1.341068,-1.058568,0.005187,0.048753,0.013275,41.13895,-7.440404,20.82583,4.63583E+18,-0.602232,0.339134,-0.696456,-0.193012,-9.691618,-0.012748,-1.984504,-0.034692,0.007384,-0.146615,43.202,16.542612,0.292957,4.63583E+18,0.335887,0.640113,0.452382,-0.522288,0
-9.925014,0.141831,0.753906,-0.557349,0.027077,0.039188,43.856543,8.83475,12.728973,4.63583E+18,0.687153,0.254581,0.616345,-0.288318,-9.586309,-1.354147,-1.015838,0.01335,0.051118,0.018844,41.059619,-7.525846,20.916493,4.63583E+18,-0.602074,0.339037,-0.696644,-0.192998,-9.675167,0.09926,-1.921345,-0.027077,0.006873,-0.149819,43.181848,16.693885,0.557818,4.63583E+18,0.335499,0.639789,0.453078,-0.522332,0
-9.798746,0.003356,0.712234,-0.544423,0.05201,0.030644,43.768595,8.590619,12.879253,4.63583E+18,0.687512,0.25338,0.617147,-0.286802,-9.582811,-1.287017,-0.967878,0.011902,0.055238,0.020218,41.132838,-7.531968,21.014163,4.63583E+18,-0.601902,0.338943,-0.696842,-0.192986,-9.61307,-0.028117,-1.842257,-0.005111,0.012306,-0.152838,42.95627,16.767129,0.639568,4.63583E+18,0.335035,0.639502,0.453741,-0.522406,0
-9.701087,-0.101458,0.688667,-0.544278,0.071789,0.022541,43.841433,8.482891,13.036252,4.63583E+18,0.687807,0.252181,0.618011,-0.285287,-9.53748,-1.157115,-0.975718,0.003817,0.061493,0.019303,41.070951,-7.611298,20.930484,4.63583E+18,-0.6017,0.338877,-0.697048,-0.192987,-9.535584,-0.188955,-1.833231,0.033389,0.018715,-0.153999,42.817726,16.840372,0.551996,4.63583E+18,0.334454,0.639279,0.454332,-0.522537,0
-9.598381,-0.173852,0.721082,-0.554259,0.090904,0.01639,43.934444,8.497611,13.086336,4.63583E+18,0.688132,0.250787,0.619015,-0.283549,-9.511319,-1.192822,-1.11257,0.00023,0.05997,0.024184,41.065704,-7.764729,20.923489,4.63583E+18,-0.601494,0.338804,-0.697254,-0.193013,-9.424115,-0.108307,-1.859761,0.059211,0.024938,-0.156506,42.890963,16.900899,0.444261,4.63583E+18,0.333787,0.6391,0.454882,-0.522704,0
-9.493573,-0.180165,0.766961,-0.552012,0.114844,0.014328,43.833422,8.447523,13.131797,4.63583E+18,0.688393,0.249407,0.620089,-0.281781,-9.532233,-1.286987,-1.20241,0,0.058825,0.024567,41.065704,-7.855445,20.84416,4.63583E+18,-0.601291,0.338729,-0.697457,-0.193043,-9.425173,0.040853,-1.908586,0.063534,0.029025,-0.162544,42.957851,16.827662,0.35776,4.63583E+18,0.333087,0.638924,0.455444,-0.522876,0
-9.416121,-0.178898,0.720667,-0.532455,0.131456,0.014512,43.62464,8.447523,13.236607,4.63583E+18,0.688588,0.248098,0.621185,-0.280041,-9.545313,-1.25999,-1.242527,0,0.054782,0.024567,41.224344,-7.782247,20.656734,4.63583E+18,-0.6011,0.338651,-0.69765,-0.193078,-9.435264,0.086511,-1.962716,0.054993,0.030513,-0.165143,42.957851,16.760765,0.260091,4.63583E+18,0.332401,0.638734,0.456034,-0.523032,0
-9.377392,-0.222677,0.619634,-0.503469,0.131051,0.01477,43.602304,8.417222,13.334265,4.63583E+18,0.688745,0.246884,0.622238,-0.278386,-9.523526,-1.257362,-1.19983,-0.015864,0.055467,0.022584,41.372586,-7.617477,20.824021,4.63583E+18,-0.600886,0.338618,-0.697829,-0.193154,-9.431519,0.07439,-2.067282,0.025593,0.025636,-0.172527,42.950448,16.780861,0.187827,4.63583E+18,0.331786,0.638477,0.456699,-0.523154,0
-9.37823,-0.249199,0.633516,-0.468219,0.120738,0.01779,43.737857,8.303571,13.391521,4.63583E+18,0.68889,0.245769,0.623213,-0.276828,-9.544437,-1.053398,-1.275645,-0.023039,0.051578,0.014499,41.383099,-7.457905,20.917356,4.63583E+18,-0.60068,0.338624,-0.697981,-0.193236,-9.513797,-0.174076,-2.124572,0.012128,0.024803,-0.178658,42.866057,17.0128,0.382086,4.63583E+18,0.331195,0.638188,0.457409,-0.523261,0
-9.414848,-0.256355,0.698762,-0.429882,0.113665,0.02162,43.752612,8.137737,13.39657,4.63583E+18,0.688938,0.244942,0.624047,-0.275559,-9.614169,-0.958319,-1.451727,-0.021517,0.04334,0.00992,41.224476,-7.446516,21.014129,4.63583E+18,-0.600504,0.338632,-0.698107,-0.193315,-9.562621,-0.209638,-2.250976,-0.007518,0.015837,-0.181585,42.7981,17.238377,0.540883,4.63583E+18,0.330667,0.637846,0.458157,-0.523358,0
-9.466612,-0.2715,0.684899,-0.386718,0.124893,0.023941,43.702503,8.044679,13.4845,4.63583E+18,0.688914,0.244258,0.62486,-0.274384,-9.664753,-1.031487,-1.521538,-0.01938,0.036778,0.006639,41.144215,-7.525825,20.930509,4.63583E+18,-0.600353,0.338639,-0.698213,-0.193389,-9.610395,-0.259399,-2.159189,-0.017748,0.014348,-0.181123,42.793286,17.389679,0.443225,4.63583E+18,0.33017,0.637487,0.458924,-0.523438,0
-9.575194,-0.298026,0.604496,-0.342924,0.150529,0.022801,43.773179,8.044679,13.67477,4.63583E+18,0.688775,0.243725,0.625696,-0.273299,-9.758903,-1.082949,-1.355977,-0.019227,0.033343,0.003435,41.218257,-7.679257,21.014129,4.63583E+18,-0.600215,0.338652,-0.698305,-0.193459,-9.651233,-0.538784,-2.011057,-0.001675,0.01895,-0.175598,42.860191,17.456587,0.362454,4.63583E+18,0.329633,0.637169,0.459647,-0.523529,0
-9.754073,-0.300137,0.596874,-0.296923,0.165121,0.017203,43.838076,8.009346,13.787206,4.63583E+18,0.688621,0.243149,0.626595,-0.272138,-9.765923,-1.222385,-1.308833,-0.03112,0.029148,0.004196,41.2244,-7.769954,21.032476,4.63583E+18,-0.600073,0.338689,-0.698378,-0.193572,-9.726132,-0.430427,-1.969151,0.003297,0.016854,-0.168028,42.846462,17.456587,0.451674,4.63583E+18,0.329103,0.636868,0.460335,-0.523624,0
-9.961594,-0.292978,0.732797,-0.249114,0.155662,0.00796,43.752624,7.994558,13.753987,4.63583E+18,0.688435,0.242664,0.627425,-0.271127,-9.709281,-1.164978,-1.362834,-0.036009,0.025866,0.001299,41.156432,-7.776116,21.022028,4.63583E+18,-0.599935,0.338744,-0.698435,-0.193697,-9.693733,-0.47021,-1.876776,0.005749,0.025636,-0.158838,42.695168,17.462915,0.451674,4.63583E+18,0.32857,0.636606,0.461005,-0.523688,0
-10.103505,-0.28793,0.889851,-0.204508,0.14534,-0.00379,43.636885,8.080012,13.691659,4.63583E+18,0.688217,0.242262,0.628186,-0.270275,-9.704885,-1.171032,-1.423871,-0.028387,0.024644,0.007016,40.91326,-7.708145,20.93052,4.63583E+18,-0.599808,0.338762,-0.698503,-0.193816,-9.700666,-0.536071,-1.842263,0.023024,0.026282,-0.143,42.627199,17.529831,0.443236,4.63583E+18,0.328024,0.636399,0.461597,-0.523761,0
-10.091776,-0.265632,0.788586,-0.167527,0.163043,-0.015538,43.513531,8.029208,13.810652,4.63583E+18,0.687818,0.242147,0.628894,-0.269746,-9.727537,-1.341796,-1.326335,-0.009934,0.021594,0.013423,40.747565,-7.702871,20.923489,4.63583E+18,-0.59971,0.338712,-0.698587,-0.193902,-9.653947,-0.533354,-1.841656,0.041881,0.033389,-0.128653,42.630806,17.523504,0.354015,4.63583E+18,0.327445,0.63626,0.462118,-0.523832,0
-9.978987,-0.229012,0.427435,-0.142663,0.193434,-0.02508,43.505879,7.850666,14.070408,4.63583E+18,0.687387,0.241915,0.629747,-0.269063,-9.672666,-1.411656,-1.239111,0.01425,0.022354,0.019833,40.736103,-7.623583,21.014104,4.63583E+18,-0.59964,0.338584,-0.698701,-0.193933,-9.628486,-0.61837,-1.954236,0.056096,0.036593,-0.109523,42.779585,17.462899,0.36243,4.63583E+18,0.326865,0.636184,0.462562,-0.523895,0
-9.87498,-0.207526,0.260091,-0.124761,0.218697,-0.029281,43.556015,7.906469,14.220315,4.63583E+18,0.68687,0.241744,0.630657,-0.268405,-9.668263,-1.268808,-1.153659,0.02296,0.024413,0.022277,40.883356,-7.61742,21.20238,4.63583E+18,-0.599573,0.338429,-0.698831,-0.193941,-9.590807,-0.572695,-1.97487,0.061953,0.039521,-0.091454,42.694124,17.543522,0.460099,4.63583E+18,0.326303,0.636156,0.462949,-0.523938,0
-9.849256,-0.227704,0.408192,-0.108298,0.242496,-0.029467,43.520704,8.056886,14.31081,4.63583E+18,0.686184,0.241851,0.631539,-0.267989,-9.634287,-1.132781,-1.102193,0.025481,0.029522,0.023422,40.974079,-7.61742,21.125861,4.63583E+18,-0.599495,0.338268,-0.698977,-0.193939,-9.541983,-0.545765,-2.084724,0.060204,0.039337,-0.074642,42.623405,17.682218,0.549333,4.63583E+18,0.325782,0.636157,0.463294,-0.523954,0
-9.888805,-0.241221,0.511902,-0.086793,0.233729,-0.027957,43.475606,7.955992,14.453873,4.63583E+18,0.685501,0.242013,0.63237,-0.267633,-9.60899,-1.258987,-1.132643,0.026627,0.030899,0.025481,40.980251,-7.696698,20.937599,4.63583E+18,-0.599412,0.338099,-0.69913,-0.193936,-9.49631,-0.370026,-2.188277,0.039268,0.036466,-0.06085,42.701496,17.601626,0.532525,4.63583E+18,0.325353,0.63615,0.463645,-0.52392,0
-9.919575,-0.174339,0.415563,-0.060347,0.181438,-0.025821,43.513033,7.913614,14.530245,4.63583E+18,0.685012,0.242004,0.633093,-0.267183,-9.527948,-1.212942,-1.180591,0.023731,0.032958,0.028608,41.048206,-7.702871,21.104696,4.63583E+18,-0.599317,0.33793,-0.69929,-0.193946,-9.476738,-0.301807,-2.227007,0.012874,0.026244,-0.047754,42.695185,17.462898,0.362429,4.63583E+18,0.325041,0.63611,0.464005,-0.523843,0
-9.887199,-0.064483,0.299344,-0.043283,0.133541,-0.025009,43.525759,8.056886,14.506113,4.63583E+18,0.68455,0.242187,0.633585,-0.267035,-9.499121,-1.151899,-1.184118,0.018544,0.03113,0.027849,41.064824,-7.78216,21.209423,4.63583E+18,-0.599221,0.337774,-0.69944,-0.193973,-9.387493,-0.530177,-2.289095,0.000664,0.020903,-0.031824,42.620892,17.536141,0.460088,4.63583E+18,0.324808,0.636072,0.464341,-0.523736,0
-9.831211,0.025204,0.261396,-0.040845,0.105656,-0.026959,43.482769,7.956068,14.649127,4.63583E+18,0.684156,0.242341,0.633996,-0.266926,-9.508688,-1.124839,-1.286073,0.008246,0.023046,0.029754,40.986405,-7.788323,21.307094,4.63583E+18,-0.599133,0.337632,-0.699565,-0.194047,-9.394846,-0.602761,-2.347626,-0.015781,0.01593,-0.016964,42.549103,17.610428,0.549333,4.63583E+18,0.32466,0.63603,0.464667,-0.52359,0
-9.782381,0.086241,0.324013,-0.046696,0.083039,-0.028399,43.482769,7.812738,14.770958,4.63583E+18,0.683827,0.242449,0.634351,-0.266828,-9.520894,-1.0891,-1.327966,-0.004416,0.020449,0.029908,41.127506,-7.776996,21.22351,4.63583E+18,-0.599034,0.337518,-0.699672,-0.194161,-9.479247,-0.776022,-2.257319,-0.025303,0.014219,-0.003445,42.616043,17.69483,0.549333,4.63583E+18,0.32457,0.635996,0.464976,-0.523412,0
-9.773879,0.122074,0.463335,-0.060279,0.062117,-0.028654,43.447484,7.913555,14.72559,4.63583E+18,0.683646,0.242304,0.634735,-0.266511,-9.555755,-1.199729,-1.31928,-0.012279,0.015339,0.027926,41.2862,-7.628865,21.216467,4.63583E+18,-0.598942,0.337426,-0.699757,-0.194301,-9.554591,-0.703433,-2.23671,-0.034307,0.006225,0.006076,42.609742,17.761772,0.549333,4.63583E+18,0.32454,0.635952,0.465268,-0.523225,0
-9.782381,0.117033,0.599742,-0.072889,0.04888,-0.029908,43.362033,8.0216,14.661092,4.63583E+18,0.683513,0.2421,0.635099,-0.266172,-9.592374,-1.231184,-1.307074,-0.010836,0.011981,0.028763,41.071133,-7.53814,21.216467,4.63583E+18,-0.59886,0.337324,-0.699836,-0.194444,-9.645946,-0.523869,-2.124758,-0.046723,0.005007,0.014437,42.542801,17.755479,0.540942,4.63583E+18,0.324564,0.635904,0.465564,-0.523006,0
-9.713398,0.109867,0.636129,-0.075652,0.053613,-0.03079,43.316906,7.941196,14.706449,4.63583E+18,0.683372,0.241884,0.635482,-0.265815,-9.640326,-1.142333,-1.362827,-0.020592,0.008776,0.031813,40.838286,-7.769832,21.125851,4.63583E+18,-0.598772,0.337235,-0.699903,-0.194628,-9.666166,-0.481244,-1.994672,-0.043611,0.012726,0.020295,42.550143,17.682235,0.460065,4.63583E+18,0.324577,0.635888,0.465847,-0.522764,0
-9.620791,0.109867,0.560766,-0.080874,0.070955,-0.032485,43.319036,7.928418,14.725617,4.63583E+18,0.683189,0.241665,0.635924,-0.265428,-9.655175,-1.135288,-1.367229,-0.029291,0.007554,0.031053,40.900836,-8.014836,21.118807,4.63583E+18,-0.598676,0.337169,-0.699959,-0.194838,-9.641751,-0.15383,-1.912367,-0.041566,0.01175,0.020295,42.635595,17.615282,0.565065,4.63583E+18,0.324586,0.635873,0.466125,-0.522529,0
-9.570604,0.089712,0.534995,-0.092251,0.087538,-0.035758,43.347137,8.107475,14.575436,4.63583E+18,0.682967,0.241428,0.636427,-0.265008,-9.656056,-1.191909,-1.378553,-0.017027,0.001532,0.029985,41.122168,-7.873933,21.299995,4.63583E+18,-0.598617,0.33707,-0.700007,-0.195017,-9.610008,-0.23613,-1.8803,-0.039856,0.012391,0.020386,42.706372,17.615282,0.732444,4.63583E+18,0.32459,0.635862,0.466399,-0.522296,0
-9.615953,0.040882,0.574527,-0.099965,0.099033,-0.04349,43.427552,8.301034,14.493876,4.63583E+18,0.682711,0.241168,0.636976,-0.264586,-9.64473,-1.241627,-1.32281,-0.001158,-0.000914,0.029908,41.218226,-7.78229,21.314127,4.63583E+18,-0.598586,0.33693,-0.700062,-0.195154,-9.501199,-0.281816,-2.015267,-0.031038,0.019593,0.021638,42.620932,17.614236,0.725122,4.63583E+18,0.324559,0.63588,0.466661,-0.522059,0
-9.710698,-0.028096,0.554953,-0.091403,0.11085,-0.052661,43.510866,8.170047,14.757781,4.63583E+18,0.682407,0.240913,0.637561,-0.264191,-9.621203,-1.177218,-1.227817,0.007926,0.000913,0.029908,41.077204,-7.855375,21.223544,4.63583E+18,-0.598564,0.336769,-0.700129,-0.195261,-9.410862,-0.296115,-2.025383,-0.018556,0.023499,0.024842,42.543847,17.5968,0.655359,4.63583E+18,0.324495,0.63593,0.466892,-0.521831,0
-9.799057,-0.100566,0.360216,-0.074821,0.119192,-0.059002,43.502729,8.018907,15.127298,4.63583E+18,0.682066,0.240677,0.638166,-0.263828,-9.574138,-1.115291,-1.141473,0.008545,0.002059,0.027926,40.907171,-7.793624,21.125875,4.63583E+18,-0.59854,0.336613,-0.700197,-0.195361,-9.3997,-0.327511,-2.015266,0.001462,0.023956,0.028046,42.561274,17.523565,0.744652,4.63583E+18,0.324383,0.636015,0.467072,-0.521637,0
-9.888768,-0.137186,0.13487,-0.064649,0.108427,-0.062647,43.339003,8.169841,15.154242,4.63583E+18,0.681739,0.240447,0.638732,-0.263512,-9.536632,-1.133522,-1.11264,0.007554,0.005109,0.023808,40.894802,-7.856267,21.118807,4.63583E+18,-0.59851,0.336474,-0.700265,-0.195449,-9.398657,-0.305185,-2.032687,0.017912,0.028931,0.031159,42.628254,17.456587,0.744652,4.63583E+18,0.324225,0.636138,0.467214,-0.521457,0
-9.939726,-0.17884,0.063937,-0.063969,0.078134,-0.062513,43.273872,8.207488,14.963983,4.63583E+18,0.681489,0.24019,0.63921,-0.263232,-9.52266,-1.135288,-1.122195,0.002524,0.010294,0.022509,40.98537,-8.178565,21.039558,4.63583E+18,-0.598458,0.336355,-0.70034,-0.195541,-9.391665,-0.29997,-2.102802,0.02643,0.029999,0.033204,42.628254,17.462845,0.744652,4.63583E+18,0.324047,0.636279,0.467334,-0.521289,0
-9.986419,-0.212561,0.115666,-0.072768,0.034394,-0.051698,43.288824,7.956173,14.942015,4.63583E+18,0.681378,0.239886,0.639564,-0.262938,-9.555742,-1.089999,-1.145726,0.006099,0.013654,0.022431,41.060395,-7.965603,21.033356,4.63583E+18,-0.598402,0.33623,-0.700426,-0.195618,-9.441538,-0.244148,-2.139425,0.023043,0.030794,0.034089,42.628254,17.529831,0.751953,4.63583E+18,0.323878,0.636418,0.46746,-0.521111,0
-10.002137,-0.219733,0.193943,-0.08433,-0.016435,-0.032846,43.173163,7.812738,15.1445,4.63583E+18,0.681341,0.239769,0.639683,-0.262851,-9.592361,-1.075138,-1.215423,-0.001516,0.012895,0.017478,40.986455,-7.720595,21.112604,4.63583E+18,-0.598342,0.336139,-0.700497,-0.195706,-9.502575,-0.243105,-2.173961,0.016881,0.028749,0.032382,42.641813,17.523573,0.821759,4.63583E+18,0.323725,0.636541,0.4676,-0.520929,0
-9.93821,-0.174426,0.289456,-0.09979,-0.0543,-0.011485,43.150405,7.883216,15.294493,4.63583E+18,0.681443,0.239624,0.63969,-0.2627,-9.617661,-1.006325,-1.266025,-0.005108,0.014799,0.01709,40.912327,-7.929294,21.118807,4.63583E+18,-0.598272,0.336058,-0.700569,-0.195801,-9.564654,-0.230898,-2.185125,0.002109,0.027863,0.023837,42.786949,17.456587,0.7168,4.63583E+18,0.323596,0.636625,0.467794,-0.520733,0
-9.837646,-0.064551,0.38926,-0.117696,-0.056092,0.008998,43.316286,8.049097,15.25911,4.63583E+18,0.68159,0.239482,0.639691,-0.262446,-9.676039,-1.091576,-1.326175,-0.032087,0.011982,0.013128,40.82776,-7.94702,21.209376,4.63583E+18,-0.598176,0.336054,-0.700607,-0.195969,-9.635808,-0.228066,-2.180959,-0.009978,0.028931,0.015111,42.793198,17.470127,0.539959,4.63583E+18,0.323477,0.636679,0.468039,-0.520521,0
-9.725647,0.020138,0.459604,-0.131515,-0.015668,0.0247,43.374285,8.142338,15.096905,4.63583E+18,0.681753,0.239161,0.639891,-0.261828,-9.714435,-0.985455,-1.319286,-0.076776,0.010759,0.002912,40.889484,-7.64135,21.386284,4.63583E+18,-0.598029,0.33619,-0.70059,-0.196244,-9.683595,-0.323642,-2.124838,-0.013339,0.029999,0.004976,42.853942,17.621532,0.456132,4.63583E+18,0.323343,0.63671,0.468319,-0.520315,0
-9.678329,0.073994,0.453065,-0.143516,0.044703,0.032297,43.324074,8.107107,15.039521,4.63583E+18,0.681681,0.239119,0.640183,-0.26134,-9.728412,-0.829453,-1.408947,-0.098928,0.00771,-0.007767,41.04194,-7.61742,21.32035,4.63583E+18,-0.597869,0.33641,-0.700532,-0.196561,-9.717093,-0.361476,-2.00618,-0.007933,0.03125,0.000248,42.77341,17.682279,0.643117,4.63583E+18,0.323182,0.636741,0.468602,-0.520121,0
-9.712809,0.140063,0.347485,-0.15564,0.086782,0.029337,43.359303,8.056886,15.079783,4.63583E+18,0.681505,0.239082,0.64061,-0.260786,-9.695346,-1.066896,-1.506604,-0.087531,-0.001436,-0.015478,40.985587,-7.775874,21.133035,4.63583E+18,-0.597758,0.336617,-0.700449,-0.196839,-9.709813,-0.05403,-2.044603,-0.012545,0.033908,-0.009091,42.614732,17.608001,0.725163,4.63583E+18,0.323008,0.636754,0.468923,-0.519925,0
-9.771706,0.213309,0.218233,-0.163933,0.102861,0.018027,43.339064,8.056886,15.13718,4.63583E+18,0.681369,0.238795,0.641183,-0.259998,-9.658724,-1.222277,-1.558991,-0.062752,-0.01204,-0.011071,40.753888,-7.788323,21.118807,4.63583E+18,-0.597709,0.336739,-0.700367,-0.197071,-9.625401,-0.120268,-1.98072,-0.008521,0.031249,-0.014863,42.469555,17.529831,0.638671,4.63583E+18,0.322816,0.636754,0.469246,-0.519752,0
-9.849977,0.251323,0.091136,-0.170341,0.101719,0.007347,43.173204,8.026693,15.182469,4.63583E+18,0.681231,0.238454,0.641771,-0.259218,-9.610789,-1.346116,-1.404112,-0.025236,-0.017769,-0.008701,40.736103,-7.709105,21.118807,4.63583E+18,-0.597727,0.336757,-0.700304,-0.197208,-9.552156,-0.223621,-2.019421,0.00284,0.034272,-0.014614,42.490355,17.523591,0.564933,4.63583E+18,0.322589,0.636777,0.469548,-0.519592,0
-9.92033,0.234085,0.007176,-0.175869,0.081482,-0.002454,43.115146,7.913201,15.287298,4.63583E+18,0.681147,0.238036,0.642322,-0.258457,-9.58459,-1.196569,-1.165282,-0.001634,-0.018159,-0.002603,40.962465,-7.850006,21.028263,4.63583E+18,-0.597775,0.336697,-0.700269,-0.197292,-9.480998,-0.133243,-2.075258,-0.001341,0.035522,-0.022976,42.713703,17.456587,0.749063,4.63583E+18,0.322352,0.63678,0.469883,-0.519432,0
-9.969156,0.19458,-0.030184,-0.182342,0.050191,-0.012759,43.200593,7.782554,15.425196,4.63583E+18,0.681141,0.237536,0.642802,-0.257737,-9.560178,-1.1049,-1.079595,-0.002971,-0.014198,-0.003127,40.980251,-8.020003,21.111682,4.63583E+18,-0.59781,0.336645,-0.700241,-0.197373,-9.435284,-0.124151,-2.082529,-0.004273,0.038272,-0.029113,42.713703,17.476321,0.927763,4.63583E+18,0.322104,0.636773,0.470244,-0.519268,0
-10.007922,0.138579,-0.068215,-0.195915,0.016078,-0.023375,43.281007,7.7747,15.499789,4.63583E+18,0.681135,0.237167,0.643123,-0.257293,-9.52445,-1.143928,-1.164774,-0.000234,-0.010916,-0.005185,40.912361,-8.111679,21.299854,4.63583E+18,-0.597841,0.336595,-0.700221,-0.197436,-9.421,-0.152719,-2.162787,-0.004182,0.036135,-0.032135,42.712665,17.695797,0.911148,4.63583E+18,0.321854,0.636755,0.47061,-0.519114,0
-10.037361,0.069645,-0.040926,-0.216459,-0.016214,-0.027332,43.324074,7.819918,15.402143,4.63583E+18,0.681322,0.236465,0.643463,-0.256593,-9.533089,-1.170124,-1.205852,0.01188,-0.012661,-0.003361,40.97489,-7.959529,21.404637,4.63583E+18,-0.597893,0.336507,-0.700209,-0.197472,-9.389565,-0.224912,-2.188233,-0.003023,0.033728,-0.032841,42.714962,17.766728,0.732444,4.63583E+18,0.321604,0.636732,0.470972,-0.518969,0
-10.053872,0.017235,-0.00718,-0.23889,-0.063592,-0.019225,43.293909,7.782572,15.384927,4.63583E+18,0.681671,0.235657,0.643689,-0.255842,-9.545297,-1.171911,-1.219848,0.017768,-0.016778,-0.004195,40.980251,-7.720717,21.230743,4.63583E+18,-0.597965,0.336404,-0.70019,-0.197494,-9.413983,-0.289068,-2.225896,-0.000796,0.02884,-0.029636,42.847745,17.682305,0.732444,4.63583E+18,0.321364,0.636707,0.471314,-0.518838,0
-10.006471,0.039498,0.06536,-0.262641,-0.123659,-0.000627,43.250832,7.739494,15.442365,4.63583E+18,0.682127,0.235011,0.643661,-0.255291,-9.523561,-1.194539,-1.084974,0.008259,-0.010161,-0.002293,40.889743,-7.544477,21.035445,4.63583E+18,-0.598004,0.336324,-0.700182,-0.19754,-9.43736,-0.379467,-2.267466,0.002227,0.028931,-0.026159,42.699184,17.621505,0.732444,4.63583E+18,0.321122,0.636694,0.471638,-0.518709,0
-9.883674,0.061037,0.219029,-0.284757,-0.163492,0.0186,43.280997,7.739494,15.402143,4.63583E+18,0.68273,0.234312,0.643524,-0.254666,-9.567024,-1.162388,-1.074252,0.003518,-0.013573,-0.003126,40.893907,-7.611155,21.021149,4.63583E+18,-0.598046,0.336255,-0.700161,-0.197602,-9.44853,-0.39478,-2.234991,0.003295,0.029727,-0.019932,42.529337,17.687492,0.73348,4.63583E+18,0.320888,0.636697,0.471943,-0.518574,0
-9.724985,0.066064,0.36551,-0.300967,-0.173794,0.036066,43.324074,7.669115,15.269299,4.63583E+18,0.683394,0.233603,0.643356,-0.253957,-9.55929,-1.046566,-1.074252,0.021023,-0.012896,-0.001225,40.973995,-7.775811,21.111657,4.63583E+18,-0.59811,0.336138,-0.700159,-0.197618,-9.453708,-0.438431,-2.244091,0.004273,0.027138,-0.015388,42.391355,17.670106,0.752936,4.63583E+18,0.320663,0.636705,0.472229,-0.518442,0
-9.571334,0.068219,0.496905,-0.309763,-0.153816,0.047501,43.324074,7.498231,15.166621,4.63583E+18,0.684115,0.232689,0.643327,-0.252927,-9.603646,-1.241253,-1.006377,0.032329,-0.012818,0.006851,41.059439,-7.856198,21.209307,4.63583E+18,-0.598183,0.335968,-0.700178,-0.197621,-9.509567,-0.424156,-2.219679,0.003549,0.020385,-0.007821,42.476795,17.603075,0.857825,4.63583E+18,0.320469,0.636712,0.472485,-0.518319,0
-9.465051,0.050986,0.576617,-0.306245,-0.110464,0.051271,43.324074,7.468042,15.168777,4.63583E+18,0.684722,0.231833,0.643416,-0.251843,-9.629848,-1.313917,-1.046251,0.050927,-0.013807,0.007477,40.907352,-7.940744,21.216467,4.63583E+18,-0.598284,0.33575,-0.70021,-0.197572,-9.51267,-0.39374,-2.19423,-0.004544,0.021091,0.000995,42.561214,17.62376,1.017148,4.63583E+18,0.320313,0.636729,0.472736,-0.518167,0
-9.441349,0.026571,0.598163,-0.292423,-0.062772,0.047753,43.359254,7.56859,15.12139,4.63583E+18,0.685089,0.231298,0.643541,-0.251016,-9.597709,-1.001696,-1.038526,0.060257,-0.00003,0.002529,40.747758,-7.879154,21.306955,4.63583E+18,-0.598361,0.335533,-0.700278,-0.197466,-9.544121,-0.43243,-2.154505,-0.006391,0.018249,0.013198,42.634459,17.847223,0.919489,4.63583E+18,0.320192,0.636761,0.472953,-0.518004,0
-9.473654,-0.002867,0.623287,-0.269742,-0.031607,0.040088,43.409527,7.498243,15.109158,4.63583E+18,0.685341,0.230839,0.643739,-0.250242,-9.583708,-1.067079,-1.015008,0.066823,0.001068,0.000157,40.80397,-7.794599,21.393302,4.63583E+18,-0.598447,0.335308,-0.70035,-0.197332,-9.516604,-0.491399,-2.086432,0.007512,0.019408,0.030921,42.695292,17.839984,0.830103,4.63583E+18,0.32007,0.63685,0.473093,-0.517842,0
-9.539716,-0.069638,0.679299,-0.249132,-0.016338,0.030601,43.379378,7.367538,15.254199,4.63583E+18,0.685614,0.230193,0.644052,-0.249282,-9.481026,-1.300441,-0.820953,0.070262,0.006016,0.005937,40.888517,-7.709157,21.139459,4.63583E+18,-0.598518,0.335061,-0.700445,-0.197197,-9.457639,-0.535246,-2.074226,0.034049,0.022086,0.055847,42.628254,17.761772,0.830103,4.63583E+18,0.319924,0.637029,0.473113,-0.517694,0
-9.648125,-0.154378,0.692957,-0.236377,-0.006285,0.016716,43.366426,7.39478,15.40429,4.63583E+18,0.68574,0.229794,0.644309,-0.248638,-9.461634,-1.273157,-0.68127,0.060601,0.013337,0.009378,40.962665,-7.544521,20.937835,4.63583E+18,-0.598551,0.334834,-0.700556,-0.197088,-9.417919,-0.66145,-2.060986,0.071088,0.03045,0.084777,42.63445,17.761772,0.821842,4.63583E+18,0.319726,0.637332,0.472987,-0.517558,0
-9.786712,-0.188134,0.580999,-0.228083,0.006592,0.005029,43.444685,7.490323,15.414391,4.63583E+18,0.685811,0.229401,0.644605,-0.248039,-9.438122,-1.043407,-0.648791,0.046953,0.014875,0.006645,41.047202,-7.452811,21.093111,4.63583E+18,-0.598563,0.33465,-0.700655,-0.19701,-9.351902,-0.833364,-2.038636,0.116126,0.037129,0.114953,42.688091,17.755585,0.725226,4.63583E+18,0.319461,0.637769,0.472692,-0.517453,0
-9.881509,-0.180251,0.346203,-0.220795,0.011188,-0.003955,43.494976,7.453004,15.361936,4.63583E+18,0.685853,0.22901,0.644914,-0.24748,-9.413704,-1.149824,-0.714848,-0.001569,0.010996,0.00344,41.053497,-7.604846,21.117909,4.63583E+18,-0.598522,0.334593,-0.700701,-0.197072,-9.363078,-1.010277,-2.039666,0.16357,0.047372,0.148513,42.529411,17.687498,0.646992,4.63583E+18,0.319121,0.638356,0.472219,-0.51737,0
-9.924619,-0.108469,0.130023,-0.221919,-0.01067,-0.014008,43.459818,7.409894,15.369121,4.63583E+18,0.686037,0.22832,0.645259,-0.246705,-9.423217,-1.193631,-0.867259,-0.039976,0.016619,0.006173,40.98564,-7.843607,20.847383,4.63583E+18,-0.598408,0.334628,-0.700732,-0.197245,-9.366172,-1.101593,-2.04775,0.215283,0.063382,0.186879,42.411948,17.663945,0.654211,4.63583E+18,0.318695,0.639122,0.471553,-0.517295,0
-9.914575,-0.041644,0.061731,-0.246539,-0.053576,-0.022931,43.344243,7.374741,15.369121,4.63583E+18,0.686352,0.227487,0.645515,-0.245926,-9.401499,-1.105861,-0.845009,-0.040747,0.01808,0.014325,40.901097,-7.861567,20.916294,4.63583E+18,-0.598282,0.334643,-0.700778,-0.197439,-9.401759,-0.996889,-2.010103,0.259869,0.067744,0.223449,42.707526,17.516446,0.741711,4.63583E+18,0.318219,0.640027,0.470699,-0.517247,0
-9.870073,-0.018699,0.112725,-0.281477,-0.108551,-0.025825,43.250832,7.254136,15.333968,4.63583E+18,0.686842,0.226497,0.64565,-0.245119,-9.433625,-1.087358,-0.89885,-0.059389,0.006285,0.010996,40.894802,-7.861567,21.104415,4.63583E+18,-0.598168,0.334703,-0.700775,-0.197696,-9.422061,-0.961421,-1.966419,0.302686,0.073802,0.250856,42.544945,17.415299,0.836149,4.63583E+18,0.317676,0.641053,0.469687,-0.51723,0
-9.791815,0.054539,0.139302,-0.309185,-0.166415,-0.019735,43.285975,7.08827,15.248524,4.63583E+18,0.687516,0.225388,0.645639,-0.244279,-9.447631,-0.871608,-1.186046,-0.095515,0.008309,-0.009107,40.894802,-7.940723,21.028344,4.63583E+18,-0.598014,0.334914,-0.700718,-0.198005,-9.407927,-1.033249,-1.98377,0.356886,0.0867,0.273997,41.437299,17.934104,0.761868,4.63583E+18,0.317012,0.642223,0.468511,-0.517253,0
-9.696332,0.132796,0.181625,-0.329358,-0.206332,-0.009304,43.336281,7.029979,15.233354,4.63583E+18,0.688324,0.224211,0.645522,-0.243393,-9.437225,-0.911044,-1.434637,-0.107172,0.009534,-0.026509,40.894802,-7.94702,21.021149,4.63583E+18,-0.597854,0.335206,-0.700631,-0.198303,-9.505586,-0.686304,-2.050844,0.393258,0.088386,0.292774,40.726217,18.368292,0.690812,4.63583E+18,0.316286,0.643478,0.467207,-0.517316,0
-9.601523,0.183111,0.277119,-0.352469,-0.20215,-0.003833,43.336281,7.145551,15.318807,4.63583E+18,0.689147,0.222987,0.645433,-0.242424,-9.549386,-0.972087,-1.712727,-0.074247,-0.008194,-0.026783,40.973944,-7.800037,21.20205,4.63583E+18,-0.597792,0.335401,-0.700526,-0.19853,-9.602208,-0.30815,-2.057005,0.394765,0.084913,0.30576,41.036388,18.624737,0.775228,4.63583E+18,0.315589,0.644751,0.465859,-0.517373,0
