Accelerometer-X,Accelerometer-Y,Accelerometer-Z,Gyroscope-X,Gyroscope-Y,Gyroscope-Z,Magnetometer-X,Magnetometer-Y,Magnetometer-Z,Barometer-pressure,Orientation-S,Orientation-X,Orientation-Y,Orientation-Z,Accelerometer-X,Accelerometer-Y,Accelerometer-Z,Gyroscope-X,Gyroscope-Y,Gyroscope-Z,Magnetometer-X,Magnetometer-Y,Magnetometer-Z,Barometer-pressure,Orientation-S,Orientation-X,Orientation-Y,Orientation-Z,Accelerometer-X,Accelerometer-Y,Accelerometer-Z,Gyroscope-X,Gyroscope-Y,Gyroscope-Z,Magnetometer-X,Magnetometer-Y,Magnetometer-Z,Barometer-pressure,Orientation-S,Orientation-X,Orientation-Y,Orientation-Z,jump
-10.254792,-1.880469,0.187871,-2.957308,-0.382023,0.973966,43.899453,-15.329766,3.927655,4.63583E+18,0.742442,-0.166004,0.598042,0.252127,-10.281101,-0.743639,-0.294687,-0.770085,-0.816729,-0.373824,44.009016,-15.246034,3.531104,4.63583E+18,0.587044,-0.501652,0.502484,0.388888,-9.531249,-2.20891,4.968968,-3.53413,-0.380786,-2.621802,41.753659,13.162148,14.676106,4.63583E+18,0.63095,0.378568,0.617385,-0.278251,0
-9.980414,-1.894791,0.295622,-2.802836,-0.39277,0.96923,43.659008,-15.830267,3.577343,4.63583E+18,0.740419,-0.171777,0.594531,0.262309,-10.172246,-0.917895,0.188802,-0.782393,-0.843405,-0.354841,44.2908,-15.188034,3.01055,4.63583E+18,0.587629,-0.503008,0.498446,0.391442,-9.791063,-1.689439,5.760617,-4.064167,-0.574609,-2.817558,41.43626,13.577689,14.984509,4.63583E+18,0.635468,0.359807,0.624868,-0.27615,0
-9.574979,-1.966896,0.349268,-2.705685,-0.28376,0.95497,43.503495,-16.334406,3.29299,4.63583E+18,0.7381,-0.177381,0.591364,0.272089,-10.210171,-0.752246,0.291099,-0.807669,-0.866037,-0.333964,44.35052,-14.969348,2.686225,4.63583E+18,0.588161,-0.504329,0.494345,0.394134,-9.97739,-2.068217,6.331809,-4.418413,-0.776517,-3.007069,41.232666,14.102868,15.265289,4.63583E+18,0.640522,0.339213,0.632218,-0.2738,0
-9.127974,-2.284287,0.23782,-2.633282,-0.101022,0.956131,43.418043,-16.912975,2.665591,4.63583E+18,0.735281,-0.182942,0.588761,0.281521,-10.304499,-0.441521,0.798742,-0.862852,-0.883141,-0.300255,44.312874,-14.85641,2.38848,4.63583E+18,0.588546,-0.505669,0.490172,0.397044,-9.882239,-3.135454,6.671229,-4.561515,-0.969011,-3.188138,40.898949,14.582087,15.484745,4.63583E+18,0.645735,0.317362,0.639139,-0.27168,0
-9.077349,-2.583763,0.082935,-2.565077,0.108576,0.957632,43.3326,-17.317461,2.205972,4.63583E+18,0.731901,-0.188513,0.586804,0.290593,-10.472337,-0.796486,1.33394,-0.876837,-0.902227,-0.274439,44.367511,-14.945195,1.955394,4.63583E+18,0.588881,-0.506945,0.485969,0.400076,-9.43309,-4.375334,6.610652,-4.517861,-1.132501,-3.36882,40.382312,15.033769,15.680067,4.63583E+18,0.650751,0.294783,0.64545,-0.270223,0
-9.536839,-2.503421,-0.266699,-2.473861,0.345244,0.922008,43.247685,-17.495161,1.85605,4.63583E+18,0.727965,-0.194157,0.585578,0.29911,-10.671143,-1.087487,1.629201,-0.879667,-0.917195,-0.248641,44.362732,-14.926332,1.581768,4.63583E+18,0.589182,-0.508133,0.481766,0.403195,-9.198858,-4.820537,6.345327,-4.34223,-1.2618,-3.544269,40.170882,15.494171,16.076671,4.63583E+18,0.655323,0.271893,0.651061,-0.269714,0
-10.169526,-2.799166,-0.7848,-2.319973,0.524647,0.902172,43.16395,-17.824238,1.868782,4.63583E+18,0.723656,-0.199584,0.585005,0.307012,-10.566433,-0.763056,1.909117,-0.932531,-0.922789,-0.218861,44.325081,-14.808613,1.288806,4.63583E+18,0.58932,-0.509361,0.477514,0.406489,-9.220263,-4.534777,5.947378,-4.009162,-1.324759,-3.691255,40.088896,16.133008,16.473948,4.63583E+18,0.659153,0.24929,0.655928,-0.270426,0
-10.725064,-2.855776,-1.178813,-2.047892,0.695731,0.890586,42.846033,-18.139007,1.892672,4.63583E+18,0.719097,-0.204418,0.585226,0.314042,-10.239338,-0.311825,2.611091,-1.017705,-0.94759,-0.164933,44.372873,-14.811922,0.83882,4.63583E+18,0.589217,-0.510631,0.473156,0.410125,-9.241004,-3.619267,4.737785,-3.656609,-1.329361,-3.825688,39.64464,16.998595,16.577654,4.63583E+18,0.662122,0.22715,0.660178,-0.272329,0
-10.596205,-2.307543,-2.236888,-1.847313,0.682173,0.83482,42.530594,-18.39847,1.892849,4.63583E+18,0.714753,-0.208753,0.585572,0.320399,-9.687369,-0.018228,3.46932,-1.16772,-0.968719,-0.113336,44.458319,-14.700842,0.265103,4.63583E+18,0.588727,-0.512113,0.46858,0.414214,-9.241004,-2.459302,3.311532,-3.312029,-1.279928,-3.910968,39.128679,17.698849,16.577654,4.63583E+18,0.664196,0.205667,0.663923,-0.275228,0
-10.308113,-2.657527,-4.209985,-2.020724,0.172286,0.772928,42.530594,-18.72807,1.615919,4.63583E+18,0.711528,-0.213057,0.584068,0.327414,-9.259247,-0.609339,3.009039,-1.276231,-0.991127,-0.084533,44.448204,-14.45133,-0.363213,4.63583E+18,0.587974,-0.513744,0.463802,0.418619,-9.442267,-1.730314,1.771248,-2.920804,-1.17343,-3.945029,38.701678,18.309165,16.647657,4.63583E+18,0.66529,0.185199,0.667236,-0.279081,0
-9.848075,-4.228811,-4.086558,-1.914856,-0.370723,0.691611,42.523273,-19.064988,1.148379,4.63583E+18,0.709774,-0.21649,0.580982,0.334386,-9.236012,-1.154321,2.246436,-1.271901,-1.014556,-0.055786,44.280855,-14.432426,-1.089187,4.63583E+18,0.587195,-0.515248,0.459008,0.423122,-10.230535,0.420274,0.215883,-2.5745,-1.106489,-3.925813,38.281347,19.147018,16.666562,4.63583E+18,0.665668,0.165743,0.670035,-0.283671,0
-9.214194,-4.598753,-2.046169,-1.782558,-0.39286,0.683403,42.352908,-19.558655,0.615276,4.63583E+18,0.708155,-0.219505,0.577967,0.34101,-9.726646,-1.439536,1.818398,-1.223548,-1.064745,-0.027922,44.274145,-14.550171,-1.74905,4.63583E+18,0.586539,-0.51647,0.454213,0.427694,-10.414323,3.334814,-0.840992,-2.275956,-1.095315,-3.802516,37.801588,20.074781,16.663105,4.63583E+18,0.665695,0.147409,0.672169,-0.288633,0
-8.867172,-4.195503,-0.522117,-1.660431,-0.320096,0.777054,42.197342,-19.89264,0.443851,4.63583E+18,0.706296,-0.222026,0.575391,0.347529,-10.548871,-1.742109,1.12285,-1.145184,-1.120026,-0.007535,44.485999,-14.533245,-2.268197,4.63583E+18,0.586095,-0.517337,0.449446,0.432265,-12.012371,5.058589,-1.348931,-1.913021,-1.111231,-3.411718,37.371121,20.888725,16.80309,4.63583E+18,0.665795,0.131107,0.673365,-0.29344,0
-8.400685,-2.971947,0.695796,-1.701329,-0.403242,0.840831,42.108761,-20.059157,0.24979,4.63583E+18,0.704462,-0.22438,0.572535,0.354389,-11.103081,-2.079703,0.217669,-1.012151,-1.153231,-0.009555,44.463964,-14.537964,-2.75111,4.63583E+18,0.585982,-0.517798,0.444815,0.436635,-12.991526,12.179345,-2.353793,-1.380936,-1.020829,-2.749803,36.95954,21.666515,17.059643,4.63583E+18,0.666002,0.118218,0.673641,-0.297783,0
-7.871147,-1.944808,2.066692,-1.816261,-0.273716,0.935032,41.953204,-20.404046,-0.190666,4.63583E+18,0.702024,-0.227023,0.569938,0.361654,-11.747961,-1.742284,0.270123,-0.822223,-1.207615,-0.029629,44.225231,-14.57564,-3.232517,4.63583E+18,0.586394,-0.517712,0.440339,0.440702,-9.466017,19.230742,-9.035327,-1.132575,-0.736968,-1.882324,36.65822,22.272815,17.069205,4.63583E+18,0.666271,0.108788,0.673876,-0.300232,0
-7.260285,-0.677922,2.094937,-1.821233,0.246972,0.791852,41.867755,-20.805055,-0.642586,4.63583E+18,0.698511,-0.230789,0.568682,0.367994,-12.371528,-0.951392,1.042731,-0.552356,-1.297433,-0.068775,44.117554,-14.527878,-3.660826,4.63583E+18,0.587608,-0.51685,0.436041,0.444354,-8.090244,26.331147,-17.720559,-1.30762,-0.39106,-0.900426,36.471868,22.477485,16.901573,4.63583E+18,0.666829,0.102054,0.674798,-0.299285,0
-7.206281,-1.171465,0.843301,-1.719256,0.751471,0.605956,41.779182,-20.889987,-0.809576,4.63583E+18,0.694138,-0.235458,0.568834,0.373041,-12.685669,0.365674,1.32773,-0.332181,-1.44475,-0.141412,44.165315,-14.442427,-4.153801,4.63583E+18,0.589681,-0.515288,0.43162,0.447727,-6.893462,33.15214,-27.880733,-1.986585,0.024157,0.045956,36.383162,22.332067,17.056124,4.63583E+18,0.667649,0.096607,0.67728,-0.293604,0
-7.599187,-2.876675,-0.217939,-1.548546,0.620316,0.567727,41.624135,-20.963742,-0.622578,4.63583E+18,0.690262,-0.239506,0.5688,0.377679,-13.202694,2.480347,1.497215,-0.320636,-1.641123,-0.240212,44.203007,-14.35698,-4.836675,4.63583E+18,0.59229,-0.513485,0.426508,0.451239,-9.469893,24.131141,-28.423534,-3.884177,-0.048659,0.386447,36.392093,21.759051,17.690175,4.63583E+18,0.669742,0.086739,0.681633,-0.281601,0
-8.340686,-4.412099,0.199822,-1.166306,0.055297,0.627526,41.557112,-21.059565,-0.638135,4.63583E+18,0.687983,-0.241414,0.56778,0.382131,-14.235233,4.765491,1.832178,-0.561459,-1.88832,-0.341051,44.203007,-14.128284,-5.714833,4.63583E+18,0.594978,-0.511962,0.42009,0.455435,-14.582075,-11.414937,-11.600257,-4.945818,-0.284751,0.011297,36.49868,20.884852,18.599174,4.63583E+18,0.672214,0.072539,0.686475,-0.267616,0
-9.58268,-3.86813,2.700077,-0.838498,-0.634191,0.607086,41.623617,-21.386053,-1.012652,4.63583E+18,0.687679,-0.241327,0.565269,0.386433,-15.477534,6.976141,2.10721,-1.091324,-2.159351,-0.429426,44.155255,-13.793293,-6.63148,4.63583E+18,0.597127,-0.511346,0.411772,0.460878,-13.642192,-34.414835,-4.923586,-3.714519,-0.074718,0.069321,36.562995,20.163525,19.362406,4.63583E+18,0.673551,0.062166,0.69029,-0.256836,0
-11.255116,-1.242288,7.350563,-1.132989,-1.405853,0.405113,41.534554,-21.632036,-1.578782,4.63583E+18,0.689192,-0.241306,0.559846,0.391609,-16.343463,8.930504,2.850601,-1.792359,-2.39557,-0.490775,44.076636,-13.504661,-7.503463,4.63583E+18,0.598235,-0.512052,0.40134,0.467808,-13.997174,-26.021622,-4.07872,-2.005263,0.179276,0.664842,36.59087,19.817351,19.827378,4.63583E+18,0.674244,0.058565,0.692726,-0.249193,0
-11.758017,1.328429,11.786976,-1.811649,-1.553429,-0.014181,41.370374,-21.637004,-2.250189,4.63583E+18,0.690997,-0.243954,0.552428,0.397282,-16.4998,9.880722,3.888829,-2.542793,-2.58232,-0.559493,43.95568,-13.343796,-8.533679,4.63583E+18,0.598078,-0.514273,0.388759,0.476123,-16.503108,-8.834521,-2.243411,-1.38982,0.302933,1.150907,36.790179,19.3056,20.275732,4.63583E+18,0.674887,0.058223,0.694706,-0.241912,0
-10.647464,1.875061,11.152175,-2.020279,-0.955658,-0.360753,41.361783,-21.481927,-2.909701,4.63583E+18,0.691724,-0.248967,0.545981,0.401793,-15.839369,8.87817,3.893274,-3.278028,-2.70076,-0.666179,43.749243,-13.121965,-9.802559,4.63583E+18,0.596587,-0.518118,0.37409,0.485484,-15.965298,-1.844194,-0.495574,-1.528935,0.401676,1.375327,37.058733,18.578112,20.690594,4.63583E+18,0.675459,0.058236,0.697004,-0.233558,0
-9.312533,2.965684,5.676989,-1.77874,-0.342161,-0.393532,41.43863,-21.408176,-3.287917,4.63583E+18,0.69131,-0.254368,0.541634,0.404994,-14.447192,7.049506,3.196362,-3.816039,-2.75151,-0.737234,43.546008,-12.601452,-11.321206,4.63583E+18,0.593947,-0.523121,0.357916,0.495447,-11.122696,-1.084987,-1.106886,-1.563488,0.620214,1.434106,37.161154,17.739092,21.011277,4.63583E+18,0.675406,0.058532,0.699882,-0.224867,0
-9.007686,5.206531,3.253,-1.577215,0.275772,-0.17557,41.593716,-21.31963,-3.386092,4.63583E+18,0.689312,-0.259726,0.53961,0.407692,-12.986307,5.090976,2.659948,-4.119068,-2.753755,-0.75389,43.327404,-11.930125,-12.75768,4.63583E+18,0.590441,-0.528674,0.340925,0.505622,-8.467641,-0.493569,-7.1041,-0.942765,1.066405,1.496476,37.075368,17.099765,21.452865,4.63583E+18,0.673906,0.061173,0.703365,-0.217684,0
-9.270227,6.120746,4.543884,-1.824015,0.737384,0.066477,41.657165,-21.168152,-3.507301,4.63583E+18,0.685559,-0.266018,0.538725,0.411119,-11.92409,2.605863,2.288648,-4.262257,-2.716979,-0.749091,43.071045,-11.210988,-13.97273,4.63583E+18,0.586303,-0.534409,0.323584,0.515702,-11.363317,1.329557,-10.398356,-0.209722,1.34423,1.693325,37.06349,16.664106,21.935866,4.63583E+18,0.671531,0.066697,0.706859,-0.21201,0
-9.68588,4.775894,5.717178,-2.157784,0.66371,0.274427,41.48769,-21.190128,-3.885173,4.63583E+18,0.681192,-0.272651,0.537247,0.415937,-11.051986,0.326758,1.712212,-4.254808,-2.645553,-0.721361,42.814694,-10.317799,-15.253697,4.63583E+18,0.581768,-0.539999,0.306349,0.52545,-15.587917,2.801236,-2.478589,-0.023066,1.041111,1.853478,37.205027,16.107356,22.350755,4.63583E+18,0.670085,0.072945,0.70924,-0.206506,0
-10.388764,3.127653,5.763938,-2.225984,0.456662,0.470874,41.090118,-21.417308,-4.240596,4.63583E+18,0.67681,-0.278654,0.535238,0.421663,-10.062611,-1.247457,0.794652,-4.097262,-2.520269,-0.670509,42.510636,-9.459989,-16.566323,4.63583E+18,0.577069,-0.545183,0.289742,0.534617,-17.002068,7.027384,6.416085,-0.416804,0.73064,1.912501,37.449314,15.423639,22.662682,4.63583E+18,0.670791,0.073986,0.711449,-0.195974,0
-10.952091,2.070644,4.609108,-2.044575,0.523166,0.565283,41.100372,-21.261708,-4.349937,4.63583E+18,0.672265,-0.284029,0.5338,0.427137,-8.839824,-2.854996,0.000987,-3.864948,-2.370284,-0.623218,42.16883,-8.763052,-17.72683,4.63583E+18,0.572412,-0.549863,0.274027,0.543051,-11.551822,1.777577,0.745947,-0.261688,0.95091,1.809927,37.59549,14.776824,22.952184,4.63583E+18,0.669542,0.079208,0.713741,-0.189772,0
-11.000404,1.975617,2.509487,-1.793812,0.637673,0.593974,41.340913,-21.197227,-4.450653,4.63583E+18,0.66766,-0.288819,0.533122,0.431965,-7.495675,-4.948942,-0.745654,-3.502376,-2.1636,-0.563173,41.833862,-8.049372,-18.855535,4.63583E+18,0.568015,-0.553899,0.259657,0.550575,-7.419035,-4.989019,-4.897949,-0.035602,0.941035,1.628737,37.640701,14.320332,23.245162,4.63583E+18,0.668057,0.084513,0.71584,-0.184742,0
-11.05543,2.198805,1.887854,-1.551405,0.582421,0.56721,41.482738,-21.608699,-4.617977,4.63583E+18,0.663478,-0.292879,0.532663,0.436221,-6.038604,-6.113938,-2.472276,-2.951307,-1.901189,-0.45957,41.497486,-7.347117,-19.863766,4.63583E+18,0.56421,-0.556982,0.247328,0.557016,-8.593146,3.681882,-3.728844,-0.30818,0.772613,1.511746,37.603935,13.877326,23.546829,4.63583E+18,0.667041,0.088579,0.717683,-0.179279,0
-11.530444,1.918518,3.255465,-1.386535,0.435031,0.4649,41.235563,-21.917868,-4.695772,4.63583E+18,0.659979,-0.296428,0.531948,0.439988,-4.847979,-4.582112,-4.528218,-2.320345,-1.619962,-0.276038,41.162489,-6.871893,-20.524653,4.63583E+18,0.561084,-0.558932,0.237532,0.562458,-9.284433,5.841459,-3.427998,-0.579405,0.656457,1.349232,37.60407,13.238709,23.773348,4.63583E+18,0.666317,0.091314,0.719434,-0.173489,0
-11.95,1.079238,4.860614,-1.286129,0.260606,0.345807,40.930913,-21.762232,-4.606269,4.63583E+18,0.657186,-0.299635,0.530771,0.443404,-4.675147,-2.72652,-6.345842,-1.702858,-1.320035,-0.088261,40.962369,-6.487814,-21.019723,4.63583E+18,0.558598,-0.559892,0.230295,0.566968,-9.174566,1.06735,-2.269345,-0.389186,0.557266,1.221957,37.576055,12.644278,23.977404,4.63583E+18,0.66567,0.094242,0.720777,-0.168766,0
-11.611706,0.047245,5.17948,-1.184608,0.029975,0.289778,40.922785,-21.687485,-4.719732,4.63583E+18,0.655115,-0.302254,0.529065,0.446718,-5.458075,-4.086764,-7.220248,-1.030104,-1.035545,0.076277,40.871526,-6.067384,-21.567897,4.63583E+18,0.556983,-0.559771,0.225671,0.570526,-9.519006,1.423279,-1.363055,-0.167463,0.466815,1.084572,37.509763,12.322184,24.106268,4.63583E+18,0.665092,0.097308,0.721747,-0.165122,0
-10.797892,-0.547294,4.996932,-1.05915,-0.190579,0.270148,40.997533,-21.861956,-5.191231,4.63583E+18,0.653709,-0.304156,0.526954,0.44997,-6.19171,-5.38971,-6.834156,-0.318281,-0.770879,0.246345,40.745189,-5.883968,-22.038055,4.63583E+18,0.556332,-0.558463,0.223716,0.573206,-10.541916,3.778644,-2.10313,-0.295151,0.353537,0.949711,37.445253,12.029084,24.343713,4.63583E+18,0.664798,0.099535,0.722531,-0.161509,0
-10.089938,-0.482203,5.396166,-0.974107,-0.218707,0.21519,40.830205,-22.104049,-5.550294,4.63583E+18,0.652564,-0.305888,0.524847,0.452912,-6.328561,-4.405663,-6.1265,0.371849,-0.533183,0.400909,40.634196,-6.0747,-22.259761,4.63583E+18,0.556689,-0.555973,0.224316,0.575042,-10.565737,3.035172,-2.112947,-0.437168,0.313721,0.82,37.497795,11.71168,24.6367,4.63583E+18,0.664585,0.10095,0.723341,-0.157842,0
-9.677929,-0.045279,5.963829,-0.949672,-0.057195,0.123774,40.761531,-22.008431,-5.742563,4.63583E+18,0.651257,-0.308054,0.5231,0.455338,-7.684556,-5.258644,-1.625721,1.071529,-0.520312,0.479544,40.520086,-6.54591,-22.296114,4.63583E+18,0.558459,-0.551806,0.226804,0.576362,-9.782138,1.765231,-1.392294,-0.474121,0.289732,0.683582,37.534294,11.403051,24.859766,4.63583E+18,0.664476,0.101284,0.724233,-0.153943,0
-9.628582,0.330608,5.81125,-0.976598,0.129822,0.019807,41.072312,-21.692556,-5.86362,4.63583E+18,0.649696,-0.31087,0.521667,0.457294,-10.211622,-9.369004,6.136839,1.140287,-0.586413,0.285711,40.325905,-6.99026,-22.392898,4.63583E+18,0.5609,-0.547487,0.228853,0.5773,-9.72269,1.983754,-1.212116,-0.466761,0.251113,0.589824,37.485351,11.141553,24.91531,4.63583E+18,0.664293,0.101881,0.724969,-0.150847,0
-9.844235,0.650498,5.248212,-0.984252,0.214439,-0.040856,41.21781,-21.692556,-5.960761,4.63583E+18,0.648045,-0.313994,0.520363,0.458986,-11.342093,-13.300981,10.120631,0.62527,-0.603697,-0.128666,40.087169,-7.093653,-22.582808,4.63583E+18,0.563201,-0.5447,0.228705,0.577755,-9.278416,1.372726,-1.55616,-0.464801,0.246909,0.517043,37.534404,10.792579,24.985194,4.63583E+18,0.664069,0.102262,0.725716,-0.147958,0
-9.953638,1.027407,4.92271,-0.996977,0.152235,-0.044116,41.055567,-21.693063,-6.050774,4.63583E+18,0.646508,-0.317035,0.518852,0.460769,-11.373317,-18.719016,10.729925,0.343707,-0.694263,-0.47273,39.931572,-6.919668,-22.675958,4.63583E+18,0.56577,-0.542676,0.226883,0.577867,-8.790599,0.586912,-1.448792,-0.448899,0.229312,0.45924,37.684461,10.463117,25.082845,4.63583E+18,0.663917,0.102168,0.726469,-0.144978,0
-9.75583,1.365665,4.417097,-1.029565,-0.011424,0.028728,40.821556,-21.704763,-6.245585,4.63583E+18,0.645131,-0.319687,0.516926,0.463027,-9.714115,-18.540815,8.992847,0.391831,-0.691417,-0.633367,39.893795,-6.811731,-22.790324,4.63583E+18,0.568824,-0.540689,0.224817,0.577539,-8.993888,-0.898524,-1.520968,-0.372669,0.21805,0.438236,37.680679,10.149208,25.250372,4.63583E+18,0.663705,0.102421,0.727121,-0.142481,0
-9.220282,1.630077,4.081899,-1.002453,-0.101215,0.180034,40.824589,-21.711839,-6.428675,4.63583E+18,0.643679,-0.321761,0.515003,0.465745,-5.908045,-8.780388,3.896256,0.415978,-0.548543,-0.604789,39.846132,-6.764069,-23.040088,4.63583E+18,0.571721,-0.538953,0.22321,0.576924,-9.197536,-1.800355,-2.041131,-0.302215,0.224476,0.428162,37.668573,9.945358,25.44569,4.63583E+18,0.663433,0.102841,0.727749,-0.140221,0
-8.731403,2.064567,3.917993,-1.014387,-0.067623,0.32091,40.891264,-21.87213,-6.612292,4.63583E+18,0.641854,-0.323624,0.513327,0.468813,-3.228107,-0.454544,-0.449426,0.379623,-0.452092,-0.445472,39.767491,-6.67862,-23.326245,4.63583E+18,0.574072,-0.537375,0.222114,0.576484,-10.032134,-1.359414,-2.474973,-0.345555,0.202302,0.410606,37.733171,9.734298,25.501265,4.63583E+18,0.663231,0.103077,0.728345,-0.137887,0
-8.516219,2.093609,4.204827,-1.006682,-0.001333,0.408991,40.806317,-21.797289,-6.803061,4.63583E+18,0.639714,-0.325401,0.511952,0.472002,-3.185513,0.05983,-0.769629,0.48504,-0.44618,-0.287279,39.687434,-6.640827,-23.504894,4.63583E+18,0.576214,-0.53543,0.221587,0.576361,-10.552717,-1.367581,-2.348727,-0.437581,0.201435,0.385726,37.713838,9.502353,25.64098,4.63583E+18,0.663052,0.102982,0.728998,-0.135342,0
-8.402838,1.938066,4.616414,-1.01843,-0.010343,0.482607,40.736103,-21.96767,-6.889007,4.63583E+18,0.637418,-0.327028,0.510619,0.475414,-4.336476,-3.388347,1.58797,0.737172,-0.456099,-0.202844,39.608796,-6.736143,-23.54808,4.63583E+18,0.578758,-0.532755,0.221865,0.576183,-10.099963,-1.395028,-2.162312,-0.485275,0.219602,0.362078,37.582938,9.261672,25.705317,4.63583E+18,0.66282,0.102694,0.729734,-0.132709,0
-8.207016,1.568317,4.658693,-1.02868,-0.078141,0.527753,40.729048,-22.119814,-6.994225,4.63583E+18,0.635149,-0.328445,0.509137,0.47905,-5.334798,-6.044844,3.871926,0.906296,-0.429297,-0.189328,39.528755,-6.811731,-23.711444,4.63583E+18,0.581584,-0.529727,0.222614,0.57584,-9.774487,-0.511542,-2.316181,-0.537797,0.210099,0.330481,37.651274,9.200906,25.638939,4.63583E+18,0.662614,0.102167,0.73048,-0.130014,0
-8.007553,1.12118,4.550842,-1.003496,-0.105051,0.528611,40.55865,-22.123341,-7.270963,4.63583E+18,0.632956,-0.329733,0.507623,0.482661,-5.786746,-6.260433,4.774936,0.861482,-0.356816,-0.210359,39.450114,-6.811731,-23.895508,4.63583E+18,0.584269,-0.526999,0.223369,0.575334,-9.423749,0.169568,-2.287891,-0.566131,0.190266,0.292945,37.757572,9.143272,25.611132,4.63583E+18,0.662453,0.101444,0.731196,-0.127349,0
-8.003386,0.777402,4.497852,-0.963715,-0.05978,0.499335,40.402988,-22.215819,-7.450033,4.63583E+18,0.630767,-0.331062,0.506258,0.486039,-5.843136,-4.65922,4.692412,0.703577,-0.296521,-0.215029,39.370068,-6.947838,-23.829833,4.63583E+18,0.586598,-0.52478,0.223919,0.574778,-9.162351,0.148033,-2.193778,-0.536014,0.167219,0.265185,37.729529,9.005431,25.680978,4.63583E+18,0.662328,0.10071,0.731839,-0.124864,0
-8.191522,0.39179,4.624094,-0.916554,0.042876,0.459505,40.31452,-22.46514,-7.539505,4.63583E+18,0.628495,-0.332552,0.505194,0.489062,-5.640587,-2.980055,4.371017,0.540063,-0.29581,-0.189706,39.379892,-7.055879,-23.634511,4.63583E+18,0.588503,-0.522934,0.224133,0.57443,-9.054343,0.242592,-2.103077,-0.476492,0.133486,0.243214,37.656289,8.794363,25.848472,4.63583E+18,0.662265,0.100055,0.732363,-0.122633,0
-8.502735,0.134281,4.558033,-0.841595,0.094814,0.411584,40.161855,-22.543556,-7.719098,4.63583E+18,0.626306,-0.334048,0.504345,0.491721,-5.485116,-2.550638,4.065774,0.451991,-0.321327,-0.155046,39.458553,-6.967378,-23.657005,4.63583E+18,0.590153,-0.521207,0.224147,0.5743,-8.99856,0.593263,-1.961773,-0.417752,0.094575,0.218033,37.591776,8.562431,25.973946,4.63583E+18,0.662279,0.099463,0.732757,-0.120664,0
-8.952854,0.139292,4.380454,-0.786862,0.061634,0.342031,40.153657,-22.465129,-7.80873,4.63583E+18,0.624396,-0.335474,0.503417,0.494124,-5.734407,-2.222723,4.454957,0.453551,-0.30122,-0.086914,39.40926,-7.033332,-23.84551,4.63583E+18,0.591629,-0.519455,0.224369,0.574282,-9.002108,0.751677,-1.942751,-0.355793,0.04436,0.195912,37.635495,8.33049,26.010499,4.63583E+18,0.662408,0.098947,0.732989,-0.118964,0
-9.360389,0.255354,4.328619,-0.726417,-0.001864,0.26909,40.229087,-22.550079,-7.715079,4.63583E+18,0.622847,-0.336761,0.502341,0.496294,-6.258126,-1.814684,4.884368,0.414367,-0.262951,-0.015677,39.25597,-7.236628,-24.035421,4.63583E+18,0.592768,-0.517839,0.224704,0.574436,-9.035249,0.288995,-2.127756,-0.280253,-0.009348,0.18402,37.65984,8.203312,26.013977,4.63583E+18,0.662661,0.098578,0.733038,-0.117549,0
-9.578815,0.217456,4.212054,-0.67622,-0.152305,0.189076,40.066915,-22.624313,-7.730063,4.63583E+18,0.621843,-0.337772,0.500862,0.498357,-6.833311,-2.885114,4.997283,0.329896,-0.244339,-0.006223,39.13811,-7.312234,-24.121828,4.63583E+18,0.593719,-0.516452,0.224936,0.574611,-8.958404,-0.722787,-2.581371,-0.168069,-0.052061,0.183113,37.598742,8.126591,25.944151,4.63583E+18,0.662996,0.098498,0.732914,-0.116498,0
-9.467221,-0.141499,4.231731,-0.623843,-0.319593,0.11159,39.835745,-22.711502,-8.097737,4.63583E+18,0.621417,-0.338458,0.498944,0.500342,-7.283069,-4.141015,5.459414,0.278011,-0.216163,-0.023641,39.147954,-7.312234,-24.121828,4.63583E+18,0.594573,-0.515276,0.225076,0.574731,-8.801418,-0.936371,-3.109769,-0.088919,-0.07524,0.180667,37.583114,7.99225,25.925045,4.63583E+18,0.66335,0.098728,0.732672,-0.115804,0
-9.028253,-0.608622,4.422566,-0.520146,-0.373002,0.04628,39.911979,-22.552307,-8.496099,4.63583E+18,0.62138,-0.338897,0.497009,0.502013,-7.413895,-4.048823,5.891183,0.218581,-0.177241,-0.037771,39.185764,-7.353063,-24.176266,4.63583E+18,0.595296,-0.514352,0.225139,0.574785,-8.944704,-0.192972,-2.997564,-0.102874,-0.093093,0.155777,37.647684,7.720115,26.059431,4.63583E+18,0.663785,0.098622,0.732427,-0.11495,0
-8.603984,-0.853522,4.50254,-0.415141,-0.325307,0.004185,40.05249,-22.388876,-8.785091,4.63583E+18,0.621477,-0.33925,0.495355,0.503289,-7.329631,-3.265886,5.946197,0.149306,-0.128066,-0.05439,39.138125,-7.344646,-24.219488,4.63583E+18,0.59583,-0.513745,0.225092,0.574792,-9.387792,0.233806,-1.959399,-0.135977,-0.107433,0.123429,37.680773,7.629627,26.251262,4.63583E+18,0.664246,0.098413,0.732159,-0.114174,0
-8.259446,-0.826627,4.462655,-0.328258,-0.261225,0.002267,40.04951,-22.407041,-8.967972,4.63583E+18,0.621567,-0.339514,0.494044,0.504288,-7.187154,-2.709433,5.670225,0.105571,-0.076345,-0.081005,39.011853,-7.312234,-24.273925,4.63583E+18,0.596319,-0.513383,0.225041,0.574629,-9.856869,-0.169537,-1.185535,-0.113657,-0.116432,0.110474,37.675527,7.743074,26.237141,4.63583E+18,0.664718,0.098228,0.731859,-0.113511,0
-8.145814,-0.72727,4.628592,-0.258716,-0.195746,0.00634,39.972292,-22.55928,-8.866548,4.63583E+18,0.621609,-0.339727,0.493053,0.50506,-7.0897,-2.672419,5.304219,0.108531,-0.040065,-0.105064,38.615022,-7.040073,-24.323952,4.63583E+18,0.596837,-0.513123,0.225036,0.574325,-10.264877,-0.467448,-0.894537,-0.066353,-0.11322,0.109715,37.672047,7.788323,26.069685,4.63583E+18,0.665158,0.098178,0.731544,-0.112996,0
-8.238714,-0.307958,4.66898,-0.211805,-0.09991,0.030647,39.801887,-22.556301,-8.967682,4.63583E+18,0.62147,-0.339969,0.492444,0.505663,-7.108915,-2.949404,5.08888,0.162852,-0.024795,-0.103224,37.702411,-6.272759,-24.247698,4.63583E+18,0.597453,-0.512762,0.225203,0.573941,-10.280315,-0.408008,-0.99064,-0.027909,-0.097345,0.109256,37.733124,7.570193,26.083778,4.63583E+18,0.665535,0.098237,0.731257,-0.112588,0
-8.50378,-0.088423,4.512283,-0.167554,-0.066313,0.04902,39.652618,-22.486036,-9.151267,4.63583E+18,0.621285,-0.340129,0.49204,0.506176,-7.182149,-3.168711,5.083875,0.234163,-0.020645,-0.086609,36.952447,-5.699078,-24.23729,4.63583E+18,0.598177,-0.512218,0.225585,0.573523,-10.119858,-0.052114,-1.163265,-0.015105,-0.086517,0.113532,37.7575,7.483138,26.050559,4.63583E+18,0.665875,0.098349,0.730992,-0.112202,0
-8.683425,-0.15325,4.408853,-0.137863,-0.14563,0.071393,39.729326,-22.489502,-9.342624,4.63583E+18,0.621257,-0.339999,0.491525,0.506797,-7.132954,-2.943883,5.195127,0.275018,-0.01149,-0.076662,37.231217,-6.005897,-24.321336,4.63583E+18,0.598955,-0.511584,0.226109,0.57307,-10.018769,-0.179726,-1.33938,-0.001674,-0.082094,0.11307,37.748777,7.648878,25.886614,4.63583E+18,0.666194,0.098508,0.730731,-0.111863,0
-8.778608,-0.019464,4.460158,-0.111866,-0.178756,0.066037,39.882083,-22.568024,-9.432858,4.63583E+18,0.621345,-0.339742,0.490971,0.507399,-6.945655,-2.674639,5.153959,0.294367,-0.005936,-0.075366,37.877672,-6.424065,-24.190527,4.63583E+18,0.599766,-0.510912,0.226695,0.57259,-9.675138,-0.568606,-1.75798,0.088683,-0.060573,0.121314,37.911014,7.776135,25.822144,4.63583E+18,0.666413,0.09896,0.730484,-0.111773,0
-8.819176,0.104571,4.565075,-0.052877,-0.16171,0.036403,39.886883,-22.486036,-9.354327,4.63583E+18,0.621544,-0.339428,0.490544,0.507778,-6.807543,-2.745627,4.989857,0.350966,-0.002243,-0.066316,37.956468,-6.310691,-23.904351,4.63583E+18,0.600671,-0.510099,0.227444,0.572069,-9.520023,-0.352167,-2.244524,0.108336,-0.043944,0.123447,38.038287,7.573751,25.818659,4.63583E+18,0.666575,0.099475,0.730274,-0.111725,0
-8.947039,0.272512,4.541513,-0.014004,-0.14949,0.039274,39.729307,-22.489492,-9.444222,4.63583E+18,0.621766,-0.339034,0.490234,0.508069,-6.795512,-2.866122,5.048801,0.411419,0.014755,-0.054583,37.659325,-6.117132,-23.943244,4.63583E+18,0.601658,-0.509162,0.228404,0.571483,-9.291536,0.164002,-2.188576,0.033099,-0.036011,0.109864,37.949308,7.369762,25.757609,4.63583E+18,0.666738,0.09974,0.730127,-0.111478,0
-8.908309,0.371158,4.251992,0.009755,-0.226989,0.059482,39.885043,-22.574945,-9.635097,4.63583E+18,0.622137,-0.338372,0.489802,0.508472,-6.900135,-2.954357,5.233128,0.399644,0.036941,-0.052461,37.520152,-6.222093,-24.175004,4.63583E+18,0.602593,-0.508304,0.229396,0.570865,-9.047407,0.39588,-1.885139,-0.029761,-0.033418,0.102389,37.851662,7.437813,25.733206,4.63583E+18,0.666898,0.099919,0.730004,-0.111159,0
-8.531892,0.489773,4.063687,0.040219,-0.288383,0.079189,39.960146,-22.653495,-9.717093,4.63583E+18,0.622634,-0.33746,0.489303,0.508951,-6.950026,-3.077824,5.345615,0.343857,0.063186,-0.055192,37.613962,-6.471648,-24.147306,4.63583E+18,0.603389,-0.50765,0.230314,0.570235,-9.019532,0.357492,-1.489259,-0.038453,-0.038454,0.096133,37.883068,7.596509,25.794252,4.63583E+18,0.667103,0.099868,0.7299,-0.110664,0
-8.209676,0.525903,4.328312,0.081774,-0.234415,0.135284,39.789736,-22.574935,-9.717093,4.63583E+18,0.622959,-0.336439,0.48911,0.509414,-6.920205,-3.171304,5.49907,0.305813,0.084047,-0.057207,37.779457,-6.627392,-24.115194,4.63583E+18,0.604088,-0.507143,0.23119,0.569592,-9.199154,-0.429021,-1.227713,0.010988,-0.045168,0.10239,38.017344,7.528477,25.888416,4.63583E+18,0.667297,0.100056,0.72974,-0.110381,0
-8.071555,0.545396,4.497246,0.070584,-0.167639,0.178131,39.631041,-22.663339,-9.720539,4.63583E+18,0.62304,-0.335501,0.489125,0.509918,-6.827787,-3.20514,5.781399,0.282786,0.099245,-0.057085,37.902759,-6.665242,-24.151651,4.63583E+18,0.604723,-0.506728,0.232048,0.568938,-9.527,-0.889393,-1.555563,0.073396,-0.05005,0.114902,37.958051,7.369786,25.925036,4.63583E+18,0.667485,0.100449,0.729533,-0.110252,0
-8.137492,0.447748,4.618815,0.073879,-0.114888,0.198166,39.478741,-22.822508,-9.798128,4.63583E+18,0.622976,-0.334626,0.489313,0.510392,-6.688107,-3.196948,5.953196,0.258694,0.124068,-0.056612,37.981407,-6.665242,-23.935461,4.63583E+18,0.605281,-0.506432,0.232913,0.568255,-9.657799,-0.472612,-2.040372,0.076297,-0.035249,0.112461,37.907476,7.385478,25.85877,4.63583E+18,0.667626,0.100853,0.729366,-0.110134,0
-8.317168,0.353033,4.724265,0.104727,-0.105027,0.211364,39.482176,-22.989484,-9.696605,4.63583E+18,0.622905,-0.333663,0.489609,0.510824,-6.594626,-3.226925,5.928627,0.240672,0.148499,-0.057207,37.966263,-6.665242,-23.713424,4.63583E+18,0.605777,-0.506238,0.233795,0.567536,-9.676981,-0.289489,-1.885213,0.036169,-0.024263,0.093236,38.017325,7.462204,25.822148,4.63583E+18,0.667741,0.101097,0.729256,-0.109946,0
-8.408938,0.324693,4.723774,0.132241,-0.14062,0.207602,39.557324,-23.05684,-9.798189,4.63583E+18,0.622953,-0.332561,0.489865,0.511239,-6.479198,-3.259377,5.889377,0.225474,0.167131,-0.054705,38.071177,-6.801219,-23.615765,4.63583E+18,0.606216,-0.506124,0.234693,0.566797,-10.05534,-0.519643,-1.560844,0.006412,-0.032348,0.081943,38.123709,7.544164,25.888401,4.63583E+18,0.667886,0.101223,0.729141,-0.109706,0
-8.357667,0.206058,4.709611,0.153601,-0.183253,0.190214,39.383506,-22.98654,-9.985656,4.63583E+18,0.623153,-0.331347,0.490031,0.511624,-6.361306,-3.334146,5.945143,0.225039,0.185287,-0.039255,38.742127,-7.269641,-23.497728,4.63583E+18,0.6066,-0.506038,0.235667,0.566059,-10.126928,-0.427294,-1.599146,0.007628,-0.034791,0.074009,38.034804,7.507565,25.916317,4.63583E+18,0.668035,0.101328,0.729022,-0.109492,0
-8.246823,0.174818,4.648574,0.174622,-0.197522,0.165175,39.152568,-22.98654,-9.981741,4.63583E+18,0.623463,-0.330098,0.49017,0.51192,-6.330232,-3.522795,6.068599,0.242019,0.209392,-0.018135,39.464429,-7.78747,-23.485792,4.63583E+18,0.606944,-0.505945,0.236787,0.565306,-9.772999,-0.170961,-1.987957,0.009919,-0.034943,0.0586,37.928422,7.369819,25.785564,4.63583E+18,0.668176,0.101392,0.728909,-0.109326,0
-8.118412,0.271987,4.59781,0.189494,-0.194615,0.129544,39.244376,-22.992899,-9.884083,4.63583E+18,0.623863,-0.328888,0.490298,0.512089,-6.41721,-3.462462,6.134914,0.262315,0.241207,-0.00426,39.597903,-7.923853,-23.686803,4.63583E+18,0.607553,-0.505739,0.23832,0.564191,-9.521819,0.137685,-2.115372,-0.008691,-0.036774,0.041204,37.965004,7.272143,25.663475,4.63583E+18,0.668323,0.10135,0.728806,-0.109151,0
-8.134022,0.361797,4.794544,0.253185,-0.173385,0.110236,39.475822,-23.148642,-9.789851,4.63583E+18,0.624347,-0.327597,0.490589,0.512048,-6.516106,-3.251082,6.058785,0.283201,0.277759,0.002973,39.480008,-7.845213,-23.606003,4.63583E+18,0.607829,-0.505693,0.239721,0.56334,-9.063272,0.38012,-2.111881,-0.038903,-0.025945,0.013436,38.050454,7.198899,25.705278,4.63583E+18,0.668436,0.101144,0.72876,-0.108956,0
-8.230716,0.555186,5.016267,0.306088,-0.156163,0.088359,39.402084,-23.230688,-9.782032,4.63583E+18,0.624914,-0.326248,0.491007,0.511817,-6.482024,-3.206514,5.864753,0.299212,0.313237,0.005935,39.530438,-7.901057,-23.275164,4.63583E+18,0.608129,-0.505671,0.241286,0.562368,-9.038643,0.544051,-2.042158,-0.074758,-0.033565,-0.018605,37.952876,7.343546,25.733206,4.63583E+18,0.668573,0.100743,0.728722,-0.108749,0
-8.300061,0.699226,4.983102,0.321168,-0.16129,0.053288,39.320045,-23.230688,-9.87579,4.63583E+18,0.625584,-0.32492,0.491395,0.51147,-6.372152,-3.345054,5.687156,0.310367,0.348729,0.007598,39.56005,-8.154884,-23.138443,4.63583E+18,0.60841,-0.5057,0.24297,0.561311,-9.27753,0.455231,-1.709198,-0.078589,-0.046841,-0.037685,37.956276,7.523189,25.663487,4.63583E+18,0.66874,0.100275,0.728655,-0.108595,0
-8.274679,0.77788,4.744316,0.340639,-0.160569,-0.002808,39.326349,-23.236992,-9.875305,4.63583E+18,0.626397,-0.323657,0.49175,0.510935,-6.316641,-3.7482,5.559677,0.354931,0.393245,0.010923,39.527573,-8.301034,-23.13303,4.63583E+18,0.60873,-0.505715,0.244876,0.560122,-9.316015,-0.154847,-1.822238,-0.027041,-0.057065,-0.043183,38.142795,7.56859,25.626833,4.63583E+18,0.668915,0.099932,0.728539,-0.108619,0
-8.22682,0.695337,4.642692,0.391189,-0.143429,-0.046559,39.479226,-23.389385,-9.856308,4.63583E+18,0.627335,-0.322386,0.492196,0.510158,-6.256884,-4.175231,5.390059,0.434815,0.433935,0.014007,39.704188,-8.212726,-22.969999,4.63583E+18,0.609203,-0.505599,0.247111,0.558728,-9.441458,-0.212873,-2.195394,0.011584,-0.071253,-0.049131,38.27888,7.516309,25.82375,4.63583E+18,0.669113,0.099669,0.728369,-0.108778,0
-8.20289,0.682645,4.745685,0.42409,-0.151033,-0.088946,39.490467,-23.383082,-9.68047,4.63583E+18,0.62842,-0.321098,0.492633,0.509212,-6.233945,-4.273876,5.2233,0.514197,0.464669,0.017926,39.899301,-8.325726,-22.840052,4.63583E+18,0.609728,-0.505376,0.249552,0.55727,-9.584484,-0.155201,-2.333337,0.02685,-0.084224,-0.05737,38.19357,7.434359,25.982522,4.63583E+18,0.669342,0.099414,0.728159,-0.109008,0
-8.191168,0.658716,4.972764,0.452154,-0.16129,-0.122065,39.478741,-23.227304,-9.684821,4.63583E+18,0.629632,-0.319782,0.493056,0.508133,-6.311314,-4.168054,4.987153,0.598592,0.49529,0.02386,39.990164,-8.560228,-22.731388,4.63583E+18,0.610376,-0.505002,0.252274,0.555673,-9.602008,-0.463654,-2.265404,0.046681,-0.092925,-0.058291,38.087144,7.357615,25.813575,4.63583E+18,0.669588,0.099207,0.727917,-0.109303,0
-8.190201,0.651827,5.081181,0.487107,-0.160656,-0.130092,39.478741,-23.145237,-9.793722,4.63583E+18,0.630902,-0.318389,0.493542,0.506958,-6.421173,-4.16822,4.601875,0.691515,0.521984,0.029675,40.068819,-8.58989,-22.373106,4.63583E+18,0.611174,-0.504438,0.255292,0.553926,-9.769268,-0.429131,-2.14683,0.048833,-0.107263,-0.05768,38.001695,7.441199,25.593807,4.63583E+18,0.669876,0.099006,0.727633,-0.109612,0
-8.165786,0.769066,5.157808,0.514879,-0.143576,-0.150778,39.472457,-23.148621,-9.871923,4.63583E+18,0.632215,-0.317,0.494101,0.505647,-6.537824,-4.116494,4.223542,0.773744,0.546197,0.035609,40.18959,-8.64566,-21.993476,4.63583E+18,0.612101,-0.503707,0.258573,0.552043,-9.917575,-0.610159,-1.946352,0.064531,-0.124352,-0.054631,38.029503,7.544123,25.607584,4.63583E+18,0.67021,0.098854,0.727292,-0.10997,0
-8.14523,0.768584,5.309738,0.542943,-0.101193,-0.153954,39.320527,-23.240327,-9.76608,4.63583E+18,0.63348,-0.31563,0.494824,0.504211,-6.65989,-3.891288,3.934699,0.843877,0.569454,0.04083,40.355066,-8.811135,-21.809146,4.63583E+18,0.613126,-0.502837,0.262082,0.55004,-9.879338,-0.864846,-2.019333,0.092148,-0.13382,-0.041211,38.111461,7.455334,25.565851,4.63583E+18,0.670568,0.098813,0.726906,-0.110374,0
-8.217993,0.753967,5.29223,0.57836,-0.06697,-0.130412,39.338518,-23.477728,-9.46186,4.63583E+18,0.634668,-0.314188,0.49574,0.502717,-6.809112,-3.649893,3.746243,0.900475,0.587846,0.040944,40.383399,-8.83947,-21.657184,4.63583E+18,0.614234,-0.501857,0.265759,0.547931,-9.833952,-0.457369,-2.09268,0.072966,-0.131844,-0.033268,38.196904,7.305362,25.468199,4.63583E+18,0.670931,0.098739,0.726532,-0.110693,0
-8.274691,0.677832,5.152006,0.618514,-0.032058,-0.106182,39.490952,-23.538442,-9.192657,4.63583E+18,0.635782,-0.31266,0.49686,0.501154,-6.932501,-3.552354,3.707004,0.953297,0.605652,0.034769,40.304732,-8.984851,-21.305696,4.63583E+18,0.615463,-0.500764,0.269612,0.545664,-9.809538,-0.216299,-1.873198,0.031466,-0.125741,-0.025947,38.325907,7.315668,25.370544,4.63583E+18,0.671296,0.098576,0.726191,-0.110864,0
-8.222985,0.527996,5.169498,0.673715,-0.004979,-0.090624,39.481341,-23.300569,-9.21207,4.63583E+18,0.636873,-0.311008,0.498183,0.49948,-7.024741,-3.579511,3.777572,1.020007,0.624878,0.026224,40.279013,-9.409496,-20.870349,4.63583E+18,0.616814,-0.499542,0.273641,0.543248,-9.741571,-0.491478,-1.590648,0.021513,-0.126954,-0.015115,38.306895,7.50215,25.342569,4.63583E+18,0.671673,0.098425,0.725845,-0.11098,0
-8.09995,0.295095,5.307818,0.720966,0.0318,-0.086394,39.250167,-23.228091,-9.387688,4.63583E+18,0.637935,-0.309294,0.499703,0.497667,-7.102029,-3.451836,3.868437,1.089428,0.647668,0.021837,40.420203,-9.726681,-20.528623,4.63583E+18,0.618276,-0.498186,0.27787,0.540679,-9.699676,-0.72358,-1.644345,0.050625,-0.123606,0.002728,38.169208,7.620841,25.412236,4.63583E+18,0.672035,0.098414,0.725488,-0.111136,0
-7.954903,0.039701,5.241016,0.774583,0.078984,-0.083736,39.338979,-23.468875,-9.075298,4.63583E+18,0.638956,-0.307526,0.501458,0.495684,-7.108758,-3.312255,3.953889,1.152209,0.669739,0.018393,40.61683,-9.802545,-20.344262,4.63583E+18,0.619832,-0.496707,0.282282,0.537967,-9.657843,-0.603601,-1.88842,0.070335,-0.126341,0.021499,38.184681,7.589582,25.440228,4.63583E+18,0.672406,0.098513,0.725106,-0.111297,0
-7.846007,-0.186943,5.04022,0.834247,0.105203,-0.094793,39.506512,-23.621325,-8.595201,4.63583E+18,0.640013,-0.305672,0.503386,0.493508,-7.160379,-3.282423,4.039335,1.207744,0.69134,0.011865,40.694062,-9.985814,-20.083703,4.63583E+18,0.62147,-0.495125,0.286851,0.53511,-9.530644,-0.754827,-1.956684,0.082084,-0.129702,0.041181,38.261421,7.516342,25.370564,4.63583E+18,0.672791,0.098702,0.724701,-0.111439,0
-7.761034,-0.278854,5.003119,0.917165,0.145793,-0.115088,39.585255,-23.617971,-8.321617,4.63583E+18,0.641124,-0.303719,0.505559,0.491045,-7.24172,-3.074782,4.077273,1.269103,0.715431,0.00617,40.835208,-10.267871,-19.747403,4.63583E+18,0.623197,-0.493427,0.291598,0.532096,-9.476446,-0.807484,-2.031544,0.112116,-0.136409,0.065282,38.395602,7.608531,25.26421,4.63583E+18,0.673194,0.099049,0.724253,-0.111611,0
-7.688269,-0.22284,4.949021,1.016586,0.185502,-0.135215,39.503159,-23.532521,-8.228269,4.63583E+18,0.642306,-0.301617,0.508007,0.488261,-7.229477,-2.849713,4.077273,1.328436,0.729903,0.001898,41.174341,-10.471292,-19.400156,4.63583E+18,0.625149,-0.491517,0.296622,0.528787,-9.420708,-0.784775,-2.080464,0.153309,-0.153333,0.082537,38.493351,7.714985,25.163054,4.63583E+18,0.673638,0.099562,0.72373,-0.111868,0
-7.63106,0.011939,4.771184,1.118675,0.203282,-0.151403,39.503636,-23.447079,-8.225192,4.63583E+18,0.643598,-0.299306,0.510679,0.485185,-7.304152,-2.775138,4.192629,1.360707,0.724437,-0.000594,41.446896,-10.63541,-18.955234,4.63583E+18,0.626993,-0.489583,0.301536,0.525609,-9.408407,-0.398202,-2.026523,0.182322,-0.175152,0.094138,38.557888,7.687257,24.934801,4.63583E+18,0.67414,0.100182,0.723126,-0.112191,0
-7.669115,0.316169,4.733339,1.235085,0.212371,-0.171823,39.518709,-23.371178,-7.849628,4.63583E+18,0.645041,-0.296736,0.513572,0.481782,-7.480478,-2.582447,4.339084,1.376016,0.720764,-0.001662,41.524165,-10.89589,-18.575509,4.63583E+18,0.628847,-0.487582,0.30646,0.522395,-9.507664,-0.36602,-1.70604,0.218768,-0.197581,0.101772,38.575394,7.666249,24.784633,4.63583E+18,0.674697,0.100918,0.722439,-0.112611,0
-7.743791,0.593118,4.957161,1.323597,0.234342,-0.195782,39.6075,-23.529874,-7.544922,4.63583E+18,0.646573,-0.294013,0.516657,0.478085,-7.488526,-2.237912,4.280673,1.395839,0.731448,-0.003324,41.529587,-11.135913,-18.282531,4.63583E+18,0.630701,-0.485538,0.311436,0.519112,-9.607115,-0.615236,-1.543444,0.275653,-0.224579,0.112749,38.584097,7.657546,24.956798,4.63583E+18,0.675316,0.101832,0.721643,-0.11318,0
-7.856026,0.774304,4.968718,1.38263,0.244897,-0.23161,39.77791,-23.682362,-7.248646,4.63583E+18,0.648205,-0.291219,0.519825,0.474135,-7.434309,-1.912442,4.117939,1.413874,0.744026,-0.000117,41.529587,-11.260668,-17.881048,4.63583E+18,0.632539,-0.483449,0.316476,0.515766,-9.666458,-0.190973,-1.639081,0.310496,-0.241234,0.114143,38.648532,7.601816,25.037384,4.63583E+18,0.67597,0.102838,0.720782,-0.113853,0
-8.024549,0.908109,4.666866,1.449897,0.252999,-0.282188,39.930892,-23.679029,-6.866407,4.63583E+18,0.649976,-0.288357,0.523067,0.469875,-7.590329,-1.633043,4.005373,1.407104,0.744023,0.00083,41.760226,-11.439726,-17.501308,4.63583E+18,0.634335,-0.481354,0.321493,0.512405,-9.732693,0.038318,-1.571474,0.316478,-0.259837,0.10637,38.655647,7.580798,24.706645,4.63583E+18,0.676671,0.103829,0.719867,-0.114574,0
-8.136319,1.031611,4.46808,1.54295,0.275999,-0.342004,39.939767,-23.593578,-6.397938,4.63583E+18,0.651898,-0.285405,0.52646,0.465203,-7.782921,-1.432308,3.953838,1.356772,0.737258,-0.005817,42.080321,-11.636398,-17.208315,4.63583E+18,0.636026,-0.479367,0.326357,0.509086,-9.849451,-0.220971,-1.37797,0.34511,-0.280438,0.107418,38.596419,7.64172,24.503877,4.63583E+18,0.677408,0.104968,0.718867,-0.115455,0
-8.296896,1.185542,4.782588,1.637992,0.285682,-0.401522,39.869381,-23.508137,-6.113403,4.63583E+18,0.653995,-0.282329,0.529966,0.460128,-7.904978,-1.319751,3.875166,1.276432,0.734292,-0.013768,41.863223,-11.530554,-16.813638,4.63583E+18,0.637574,-0.477565,0.331037,0.505812,-9.948912,-0.277387,-1.44023,0.384173,-0.302254,0.108951,38.627608,7.779378,24.606377,4.63583E+18,0.678211,0.106088,0.717802,-0.116341,0
-8.500631,1.221216,5.017243,1.705318,0.271143,-0.454322,39.876035,-23.422204,-5.734953,4.63583E+18,0.656269,-0.279143,0.533471,0.454752,-8.020258,-1.24109,3.739542,1.186954,0.729664,-0.024211,41.372268,-11.301351,-16.344381,4.63583E+18,0.638949,-0.475987,0.335484,0.502624,-9.98215,0.056909,-1.576321,0.383794,-0.320877,0.102098,38.753061,7.877156,24.519726,4.63583E+18,0.679055,0.107234,0.716676,-0.117307,0
-8.602294,1.228531,5.012827,1.747887,0.268497,-0.517203,40.043718,-23.328348,-5.348194,4.63583E+18,0.658679,-0.275958,0.536945,0.449088,-8.096218,-1.296689,3.701553,1.109928,0.731681,-0.040589,41.513279,-11.596998,-16.016125,4.63583E+18,0.640181,-0.474627,0.339731,0.499479,-9.959551,0.000374,-1.602675,0.36168,-0.33949,0.097815,38.84734,7.845979,24.263495,4.63583E+18,0.67996,0.108295,0.715506,-0.118225,0
-8.498776,1.116721,4.899549,1.810772,0.305751,-0.54873,40.132585,-23.327859,-4.77843,4.63583E+18,0.661095,-0.272722,0.540569,0.443125,-8.151821,-1.590956,3.763936,1.073847,0.745445,-0.056847,41.868649,-11.930688,-15.708286,4.63583E+18,0.641336,-0.473401,0.343898,0.4963,-9.748893,-0.438719,-1.668784,0.379751,-0.354149,0.102531,38.920583,7.824945,24.043637,4.63583E+18,0.680899,0.109415,0.714282,-0.11919,0
-8.257095,0.958531,4.708155,1.870624,0.366158,-0.5674,40.306395,-23.312726,-4.310201,4.63583E+18,0.663434,-0.269456,0.544413,0.436879,-8.090842,-1.8243,3.742276,1.085348,0.754824,-0.070731,41.700619,-11.651453,-15.228222,4.63583E+18,0.642509,-0.472169,0.348075,0.493034,-9.668263,-0.385838,-1.618522,0.414997,-0.373056,0.106201,39.106931,7.946756,23.839635,4.63583E+18,0.681877,0.11064,0.71298,-0.120261,0
-8.077886,0.809603,4.607569,1.931935,0.441355,-0.572869,40.541275,-23.223858,-4.022113,4.63583E+18,0.665633,-0.266149,0.548531,0.430363,-7.925368,-1.806728,3.664952,1.132338,0.766331,-0.078686,41.552619,-11.442385,-14.707352,4.63583E+18,0.643753,-0.470832,0.352354,0.48964,-9.607361,-0.183381,-1.456458,0.469277,-0.396702,0.106054,39.22576,8.048051,23.649517,4.63583E+18,0.682895,0.112009,0.711579,-0.121505,0
-8.000727,0.607443,4.430323,2.003415,0.525911,-0.581115,40.559335,-23.043198,-3.547012,4.63583E+18,0.66768,-0.262793,0.552959,0.423533,-7.734143,-1.778199,3.556476,1.180883,0.791012,-0.082483,41.590622,-11.481737,-14.334305,4.63583E+18,0.64504,-0.469405,0.356778,0.486099,-9.35663,-0.082086,-1.429949,0.544164,-0.414416,0.102702,39.238102,8.129989,23.527316,4.63583E+18,0.683924,0.113572,0.710087,-0.122988,0
-8.12524,0.537614,4.102187,2.072717,0.58731,-0.582098,40.718519,-22.634001,-2.801872,4.63583E+18,0.669606,-0.259331,0.557632,0.416439,-7.635058,-1.963909,3.294789,1.187788,0.829813,-0.100987,41.170458,-11.168655,-14.006112,4.63583E+18,0.646296,-0.468049,0.361271,0.482405,-9.308913,0.121639,-1.475269,0.616661,-0.440026,0.093863,39.40857,8.102352,23.490552,4.63583E+18,0.684985,0.115298,0.708483,-0.124718,0
-8.306887,0.553723,3.814089,2.1386,0.608247,-0.58103,40.886497,-22.376171,-2.052336,4.63583E+18,0.671492,-0.255695,0.562429,0.409135,-7.595743,-2.038682,3.225402,1.257508,0.861512,-0.111327,40.833763,-10.960856,-13.734766,4.63583E+18,0.647636,-0.466566,0.365956,0.478497,-9.352553,0.317102,-1.489303,0.670107,-0.475262,0.076331,39.583129,8.142193,23.347862,4.63583E+18,0.686108,0.117104,0.706751,-0.126669,0
-8.453828,0.664534,3.649044,2.195758,0.593169,-0.580259,40.980251,-22.375686,-1.482597,4.63583E+18,0.673409,-0.251846,0.567229,0.401677,-7.95487,-2.620053,3.533188,1.434082,0.858088,-0.09472,41.247151,-11.36482,-13.370026,4.63583E+18,0.649261,-0.464555,0.371,0.47435,-9.276089,0.392319,-1.66328,0.713299,-0.506558,0.049186,39.555641,8.332031,22.952471,4.63583E+18,0.687279,0.11894,0.704912,-0.128843,0
-8.612055,0.798831,3.622195,2.240753,0.575391,-0.587392,40.98706,-22.35375,-0.999161,4.63583E+18,0.675361,-0.247832,0.571991,0.394073,-8.488021,-2.915038,3.865555,1.626701,0.843366,-0.066121,41.802023,-11.658071,-12.767915,4.63583E+18,0.651188,-0.461925,0.37642,0.469986,-9.33668,0.515916,-1.811732,0.7306,-0.546051,0.025368,39.623248,8.624837,22.60689,4.63583E+18,0.688534,0.12074,0.702951,-0.131159,0
-8.756103,0.934066,3.533359,2.288602,0.567059,-0.612423,41.157946,-22.094515,-0.344402,4.63583E+18,0.677354,-0.243704,0.576723,0.386252,-8.531749,-1.621953,4.060918,1.71449,0.851421,-0.042261,41.886404,-11.563215,-12.097888,4.63583E+18,0.653185,-0.459007,0.382057,0.465504,-9.584023,0.378895,-1.86941,0.727422,-0.581472,-0.002843,39.722736,8.76827,22.583541,4.63583E+18,0.68987,0.122427,0.700894,-0.133562,0
-8.845917,1.088883,3.36294,2.330945,0.563261,-0.648867,41.322544,-21.764432,0.204929,4.63583E+18,0.679384,-0.23951,0.581415,0.378191,-8.612819,-0.462772,4.071899,1.66814,0.863891,-0.040702,41.722277,-11.676877,-11.587747,4.63583E+18,0.655027,-0.456209,0.387618,0.461047,-9.607389,-0.086151,-1.792977,0.761036,-0.600578,-0.032295,39.738608,8.78933,22.408095,4.63583E+18,0.691218,0.124108,0.698769,-0.136151,0
-9.041698,1.152331,3.21103,2.364985,0.545358,-0.688173,41.337651,-21.426048,0.754685,4.63583E+18,0.681479,-0.235259,0.586007,0.369913,-8.968177,-0.07342,4.102972,1.611375,0.860932,-0.048302,41.787169,-11.964481,-11.19711,4.63583E+18,0.656741,-0.453546,0.393024,0.456639,-9.548032,-0.052861,-1.627443,0.79906,-0.617505,-0.047437,39.726401,8.737161,22.0578,4.63583E+18,0.692565,0.125898,0.696559,-0.138956,0
-9.246337,1.27054,3.220815,2.421306,0.533819,-0.721169,41.426507,-21.169662,1.320166,4.63583E+18,0.68363,-0.230884,0.590553,0.361373,-9.259854,-0.048698,4.183048,1.531441,0.843021,-0.065615,42.173566,-12.208613,-10.745528,4.63583E+18,0.658328,-0.451071,0.398175,0.452322,-9.655704,0.241776,-1.40956,0.814674,-0.646314,-0.064657,39.992417,8.776947,21.670688,4.63583E+18,0.693965,0.127665,0.694253,-0.141867,0
-9.379154,1.296402,3.167157,2.470055,0.526354,-0.725188,41.600291,-20.913337,1.97929,4.63583E+18,0.68577,-0.226339,0.595077,0.352666,-9.288565,-0.207454,3.840329,1.348036,0.84572,-0.093385,42.579207,-12.595001,-10.197634,4.63583E+18,0.659585,-0.449129,0.402916,0.448207,-9.626626,0.233949,-1.116731,0.845285,-0.672582,-0.076585,40.318707,9.036316,21.340887,4.63583E+18,0.695432,0.129333,0.691871,-0.144779,0
-9.472945,1.356955,2.997703,2.50928,0.493622,-0.722882,41.838154,-20.657465,2.634622,4.63583E+18,0.68794,-0.2216,0.599495,0.343857,-9.330406,0.183949,3.240754,1.11518,0.855469,-0.118786,42.72591,-12.865191,-9.618452,4.63583E+18,0.660411,-0.44787,0.407185,0.444376,-9.603714,0.308352,-1.034117,0.884804,-0.699123,-0.094259,40.389116,9.409374,21.044412,4.63583E+18,0.696913,0.13113,0.689368,-0.147949,0
-9.472945,1.403851,2.859556,2.541028,0.470588,-0.715754,41.917323,-20.416218,3.192293,4.63583E+18,0.690101,-0.21669,0.603824,0.334968,-9.574462,0.943512,3.105957,0.90486,0.828442,-0.138728,42.631088,-12.720351,-9.098927,4.63583E+18,0.660905,-0.44716,0.410941,0.440884,-9.676782,0.388793,-0.924601,0.90987,-0.726894,-0.117903,40.3647,9.799997,20.690583,4.63583E+18,0.698428,0.132918,0.686765,-0.151278,0
-9.474391,1.407707,2.627161,2.567153,0.458376,-0.691316,41.853724,-20.235216,3.652263,4.63583E+18,0.692193,-0.211598,0.608099,0.326053,-9.765838,0.958037,3.360878,0.677641,0.803964,-0.163521,42.500828,-12.438176,-8.785403,4.63583E+18,0.661048,-0.447064,0.414157,0.437749,-9.661413,0.39415,-0.731127,0.917685,-0.756187,-0.148557,40.522869,10.02544,20.433877,4.63583E+18,0.699986,0.13462,0.684072,-0.154731,0
-9.517256,1.504394,2.385923,2.630352,0.433281,-0.66983,42.024131,-19.811848,4.02229,4.63583E+18,0.694285,-0.206206,0.612328,0.31702,-9.896022,0.660622,3.511635,0.466797,0.800518,-0.209312,42.504756,-12.376885,-8.649699,4.63583E+18,0.660875,-0.447613,0.416885,0.43485,-9.922038,0.494958,-0.636633,0.930778,-0.786093,-0.186231,40.746097,10.131962,20.165515,4.63583E+18,0.701582,0.136227,0.681288,-0.158341,0
-9.715968,1.577646,2.220302,2.67058,0.369987,-0.644712,42.183324,-19.478841,4.489593,4.63583E+18,0.696446,-0.200522,0.616367,0.30797,-9.995103,0.791889,3.548257,0.35088,0.795895,-0.247437,42.67825,-12.502971,-8.389501,4.63583E+18,0.660552,-0.448533,0.419312,0.432049,-10.043178,0.371979,-0.613886,0.96688,-0.808392,-0.22955,40.85281,10.330398,19.742192,4.63583E+18,0.703173,0.137799,0.67842,-0.162188,0
-9.999548,1.65279,2.18273,2.675962,0.325868,-0.606309,42.347481,-19.066758,5.035446,4.63583E+18,0.698581,-0.194639,0.620235,0.299013,-10.110299,0.623076,3.584874,0.265347,0.794935,-0.263941,42.827573,-12.390813,-7.951521,4.63583E+18,0.660091,-0.449709,0.421546,0.429349,-10.020587,0.139848,-0.749602,1.014517,-0.823066,-0.276734,40.79207,10.679171,19.196097,4.63583E+18,0.704715,0.139408,0.675476,-0.166357,0
-10.354043,1.769594,2.110674,2.681658,0.272773,-0.569259,42.344606,-18.725428,5.49933,4.63583E+18,0.700718,-0.18855,0.623902,0.290154,-10.309611,0.459673,3.51994,0.154165,0.80454,-0.287538,42.894044,-12.013834,-7.583776,4.63583E+18,0.659438,-0.451243,0.423557,0.426756,-10.123251,0.343136,-0.89275,1.001964,-0.827508,-0.318722,40.804051,10.904525,18.822393,4.63583E+18,0.706226,0.140853,0.67253,-0.170612,0
-10.712138,1.748738,1.772672,2.672472,0.202503,-0.539869,42.277602,-18.402038,5.967106,4.63583E+18,0.702902,-0.182301,0.627294,0.281421,-10.433228,0.700964,3.258337,0.012722,0.821389,-0.324207,42.968628,-11.876371,-7.350388,4.63583E+18,0.658545,-0.453255,0.425288,0.424274,-10.22971,0.547442,-0.736227,0.958484,-0.824767,-0.370433,40.986974,11.010984,18.529416,4.63583E+18,0.707697,0.142023,0.669633,-0.174889,0
-10.865547,1.524967,1.527595,2.726585,0.163928,-0.497358,42.366394,-18.227801,6.532411,4.63583E+18,0.705083,-0.175712,0.630585,0.272664,-10.510461,0.226299,2.992371,-0.077227,0.835282,-0.352469,43.094684,-12.009197,-7.10094,4.63583E+18,0.657498,-0.455582,0.426837,0.421842,-10.210693,0.733943,-0.580854,0.890468,-0.815925,-0.426278,41.097022,11.253121,18.236463,4.63583E+18,0.709122,0.142838,0.666825,-0.17913,0
-10.887093,1.503421,1.26766,2.795677,0.121899,-0.460646,42.536802,-17.961924,7.179595,4.63583E+18,0.707285,-0.16875,0.633771,0.263828,-10.66768,-0.721968,2.932431,-0.066283,0.85496,-0.356297,43.21275,-12.037958,-6.808014,4.63583E+18,0.656434,-0.457914,0.428446,0.419338,-10.14096,0.976258,-0.340445,0.79834,-0.799914,-0.488669,41.088422,11.732343,17.812965,4.63583E+18,0.710492,0.143216,0.664152,-0.183285,0
-10.839696,1.55225,1.224083,2.802217,0.068748,-0.440059,42.692632,-17.461423,7.526446,4.63583E+18,0.709509,-0.161631,0.636733,0.255035,-10.578791,-0.94436,3.231622,-0.043086,0.901084,-0.357225,43.29143,-11.905145,-6.467685,4.63583E+18,0.655322,-0.460257,0.430212,0.416695,-10.024201,1.154276,0.126588,0.699312,-0.777187,-0.551539,41.121429,12.177218,17.467442,4.63583E+18,0.711792,0.143139,0.661642,-0.187333,0
-10.820825,1.593933,1.304764,2.759371,-0.029745,-0.411415,42.780931,-16.970975,7.69733,4.63583E+18,0.711835,-0.154435,0.63929,0.246473,-10.369664,-0.992502,3.576494,0.015774,0.949535,-0.334983,43.364674,-11.741008,-6.136622,4.63583E+18,0.654186,-0.462476,0.432247,0.413908,-10.055282,1.440017,0.65501,0.599974,-0.756427,-0.611207,41.130247,12.345075,17.174464,4.63583E+18,0.71303,0.142616,0.659292,-0.191267,0
-10.629618,1.456794,1.258142,2.713565,-0.102637,-0.360545,42.936771,-16.72635,7.876329,4.63583E+18,0.714178,-0.147143,0.64153,0.238198,-10.349085,-1.244865,3.830041,0.108129,0.989762,-0.283251,43.437913,-11.487601,-5.85043,4.63583E+18,0.653054,-0.464411,0.434642,0.41101,-10.205146,1.642559,0.997137,0.507498,-0.744055,-0.674519,41.170253,12.531442,16.881511,4.63583E+18,0.714224,0.141651,0.657075,-0.195122,0
-10.24658,1.251633,0.954629,2.670542,-0.051504,-0.293621,43.009341,-16.46376,8.261483,4.63583E+18,0.716198,-0.13983,0.643838,0.230176,-10.03123,-1.20073,3.907837,0.126915,1.040301,-0.241323,43.37584,-11.340677,-5.4614,4.63583E+18,0.651782,-0.466296,0.437279,0.408088,-10.210705,1.353914,1.004629,0.439091,-0.732918,-0.742725,41.283509,12.885233,16.518896,4.63583E+18,0.715356,0.1403,0.654972,-0.198981,0
-10.057476,1.106127,0.410305,2.620102,-0.031558,-0.237075,42.775217,-16.058297,8.800249,4.63583E+18,0.717991,-0.132517,0.646111,0.222418,-9.544002,-1.350293,3.565323,0.113931,1.090281,-0.211533,43.252304,-11.388032,-5.039469,4.63583E+18,0.650328,-0.468238,0.440077,0.405165,-10.22799,0.829141,0.6111,0.444762,-0.7166,-0.801491,41.426486,13.166226,16.197896,4.63583E+18,0.716456,0.138555,0.652989,-0.202729,0
-10.022278,0.985943,0.292025,2.5624,-0.045472,-0.20919,42.793139,-15.88785,9.073434,4.63583E+18,0.719677,-0.125272,0.648227,0.214881,-9.084414,-1.921065,3.198653,0.140811,1.135257,-0.177367,43.390084,-11.331427,-4.600175,4.63583E+18,0.648772,-0.47011,0.443098,0.402188,-10.276814,-0.015951,0.072348,0.629065,-0.674082,-0.850631,41.285832,13.511249,15.913655,4.63583E+18,0.717195,0.13752,0.650932,-0.207381,0
-10.023706,0.920315,0.264755,2.475934,-0.034222,-0.206376,42.9485,-15.715827,9.166025,4.63583E+18,0.721203,-0.118274,0.650229,0.207557,-8.735374,-2.378648,3.10068,0.187925,1.171125,-0.129445,43.666887,-11.21464,-4.118649,4.63583E+18,0.647145,-0.471815,0.446378,0.399175,-10.377844,-1.067306,-0.31166,1.026225,-0.639254,-0.898389,41.090389,13.901872,15.624195,4.63583E+18,0.717547,0.137568,0.648642,-0.213225,0
-10.06505,1.037156,0.169957,2.338673,-0.036201,-0.239936,43.025514,-15.215441,9.441621,4.63583E+18,0.722622,-0.111764,0.652022,0.200484,-8.703715,-2.081851,3.073626,0.232438,1.191201,-0.074496,43.721639,-11.181981,-3.588477,4.63583E+18,0.645459,-0.47332,0.449882,0.396178,-10.491218,-1.18803,-0.28974,1.379404,-0.68152,-0.92514,41.128294,14.466516,15.192012,4.63583E+18,0.717753,0.138555,0.645896,-0.220117,0
-10.227975,1.024478,0.138941,2.212682,-0.062829,-0.285701,43.196397,-14.727732,9.889941,4.63583E+18,0.724024,-0.105725,0.653549,0.19361,-8.962357,-1.273578,3.133005,0.213735,1.193251,-0.017065,43.678089,-11.134642,-3.11621,4.63583E+18,0.643621,-0.474758,0.453462,0.393357,-10.435789,0.080927,-0.191952,1.477837,-0.780175,-0.921984,41.250357,15.092547,14.773352,4.63583E+18,0.718128,0.139744,0.642725,-0.227309,0
-10.500782,1.000535,-0.049773,2.061211,-0.142744,-0.352907,43.354091,-14.563432,10.249559,4.63583E+18,0.725571,-0.100251,0.65463,0.186965,-9.651889,-0.788377,2.670825,0.10265,1.175714,0.030917,43.718668,-11.055952,-2.732331,4.63583E+18,0.6415,-0.476363,0.456895,0.390899,-10.374608,0.883437,-0.197003,1.455639,-0.86584,-0.926981,41.215839,15.497659,14.382695,4.63583E+18,0.718695,0.140763,0.639279,-0.23449,0
-10.875438,0.992573,-0.067112,1.9131,-0.272614,-0.390411,43.180358,-14.553998,10.433557,4.63583E+18,0.727386,-0.095219,0.655139,0.180652,-10.165788,-1.365344,1.603692,0.007206,1.148896,0.071145,43.663417,-11.070625,-2.245701,4.63583E+18,0.63916,-0.478092,0.460169,0.388775,-10.30319,0.769635,-0.077037,1.391921,-0.920362,-0.935685,41.057291,15.75414,13.800694,4.63583E+18,0.71939,0.141505,0.635697,-0.241545,0
-11.154793,1.102497,0.101962,1.719678,-0.447599,-0.402687,42.951777,-14.297114,10.327406,4.63583E+18,0.729565,-0.090667,0.654927,0.174889,-11.330725,-1.999026,0.890355,-0.050225,1.070831,0.132918,43.592636,-11.156073,-1.773417,4.63583E+18,0.636741,-0.479719,0.463255,0.387074,-10.400417,0.567021,0.201755,1.314109,-0.967052,-0.93555,41.091658,16.16005,13.132818,4.63583E+18,0.72021,0.141957,0.632013,-0.248405,0
-11.39611,1.505756,0.541482,1.494161,-0.698081,-0.374461,43.119904,-13.736103,10.021335,4.63583E+18,0.73228,-0.086536,0.653764,0.169912,-14.073545,-0.76355,1.368014,-0.120095,0.967657,0.20438,43.680536,-11.282087,-1.436897,4.63583E+18,0.634253,-0.481217,0.466087,0.385896,-10.510422,-0.101324,0.753962,1.302807,-0.972188,-0.921691,41.222419,16.688284,12.591935,4.63583E+18,0.721022,0.142397,0.628279,-0.255181,0
-11.561821,1.604794,1.284637,1.190111,-0.952337,-0.332228,43.516592,-13.504209,9.997864,4.63583E+18,0.735515,-0.083032,0.651595,0.165977,-13.764988,1.016289,1.156629,-0.30098,0.927152,0.178916,43.798653,-11.400205,-1.143954,4.63583E+18,0.631511,-0.48317,0.468461,0.385078,-10.839398,-1.075898,1.270471,1.336332,-0.9612,-0.885269,41.182748,17.124532,12.173235,4.63583E+18,0.721779,0.143035,0.624482,-0.261912,0
-11.593271,1.423074,1.971035,1.007673,-0.964574,-0.21937,43.744752,-13.568519,9.986578,4.63583E+18,0.738612,-0.079769,0.649276,0.16288,-12.629546,-0.516734,-0.791788,-0.432319,0.89876,0.112109,43.789465,-11.485657,-0.803652,4.63583E+18,0.628656,-0.485545,0.470406,0.384391,-11.484029,-1.24548,1.42994,1.655418,-0.849316,-0.689293,41.07289,17.515137,11.652186,4.63583E+18,0.722224,0.145254,0.620516,-0.268801,0
-11.488559,0.975164,2.11094,0.987086,-0.885412,-0.03746,43.579959,-13.407003,9.689839,4.63583E+18,0.74134,-0.076127,0.647226,0.160368,-12.438103,-3.181656,-1.68259,-0.314336,0.869966,0.079801,43.751335,-11.571108,-0.418468,4.63583E+18,0.626137,-0.487619,0.47239,0.383441,-12.494718,0.838521,0.683928,2.703259,-0.638748,-0.211219,41.076073,17.90576,11.008891,4.63583E+18,0.721952,0.152083,0.615658,-0.276805,0
-11.219073,0.616502,2.10903,0.878313,-0.878354,0.097073,43.571504,-13.190089,9.307217,4.63583E+18,0.743903,-0.07246,0.645149,0.158558,-11.795992,-3.292791,-1.054088,-0.104558,0.85278,0.064221,43.79189,-11.609241,-0.136,4.63583E+18,0.624095,-0.489143,0.474626,0.382067,-13.156915,3.85158,-1.091182,3.938358,-0.403302,0.335424,41.072727,18.244221,10.337483,4.63583E+18,0.720778,0.164268,0.609611,-0.286129,0
-11.236437,0.133382,2.656038,0.747095,-0.746768,0.174928,43.663051,-13.352067,9.131138,4.63583E+18,0.746002,-0.069076,0.643402,0.157299,-11.471242,-1.72483,-0.197006,-0.010948,0.816157,0.03723,43.824577,-11.474071,-0.008279,4.63583E+18,0.62235,-0.490413,0.476853,0.380508,-12.676451,5.371275,-3.78034,4.897475,-0.144414,0.766484,41.039617,18.448567,9.46607,4.63583E+18,0.718552,0.180677,0.602689,-0.296319,0
-11.379175,-0.52394,2.821806,0.621667,-0.589166,0.193995,43.897823,-13.590121,9.131607,4.63583E+18,0.747618,-0.066131,0.642057,0.156387,-11.234078,-0.512704,0.56024,-0.027334,0.755676,0.003967,43.81782,-11.270483,0.179844,4.63583E+18,0.620738,-0.491689,0.478824,0.379016,-11.80103,4.410183,-6.444054,5.465297,0.062059,1.048458,41.116043,18.502913,8.383453,4.63583E+18,0.715383,0.199661,0.595181,-0.306794,0
-11.422391,-1.118351,2.559816,0.540324,-0.580403,0.153542,43.891281,-13.662945,9.131662,4.63583E+18,0.749204,-0.063553,0.640667,0.155563,-10.973581,-0.633267,0.739636,-0.035287,0.699961,-0.021077,43.859676,-11.241493,0.467372,4.63583E+18,0.619255,-0.492944,0.480582,0.377585,-10.887313,3.214207,-7.560574,5.729636,0.207882,1.235221,41.412035,18.567295,7.500347,4.63583E+18,0.711467,0.219966,0.587276,-0.317076,0
-11.319591,-1.29778,2.468232,0.508566,-0.647283,0.061032,43.726917,-13.42534,8.823205,4.63583E+18,0.751011,-0.061275,0.639016,0.154552,-10.628094,-1.159031,0.464554,-0.009558,0.654396,-0.043869,43.897823,-11.374238,0.706275,4.63583E+18,0.617946,-0.494102,0.482211,0.376136,-9.811914,2.729819,-7.280387,5.803799,0.373473,1.38402,41.786889,18.548406,6.867002,4.63583E+18,0.706842,0.240939,0.579269,-0.326757,0
-11.084848,-1.06917,2.540016,0.482404,-0.73117,-0.075317,43.735795,-13.35817,8.4293,4.63583E+18,0.753113,-0.059388,0.637043,0.153202,-10.322472,-1.339974,0.324149,0.022599,0.603853,-0.045722,43.803233,-11.362712,0.901583,4.63583E+18,0.616803,-0.495099,0.483753,0.374718,-8.798323,2.875052,-6.86997,5.60031,0.517932,1.466749,41.991443,18.417816,6.093282,4.63583E+18,0.701761,0.261562,0.57153,-0.335365,0
-10.773176,-0.625002,2.888306,0.416635,-0.827064,-0.229643,43.961654,-13.434295,7.96398,4.63583E+18,0.75554,-0.058053,0.634679,0.151565,-10.094693,-1.664472,0.322844,0.063394,0.56168,-0.02829,43.720162,-11.197271,1.198221,4.63583E+18,0.615799,-0.495887,0.485282,0.373349,-8.599008,3.053333,-5.931847,5.091913,0.594992,1.49811,42.021397,18.267821,5.377902,4.63583E+18,0.696716,0.280739,0.564383,-0.342409,0
-10.295227,-0.371443,3.380985,0.365094,-0.858449,-0.395425,44.034899,-13.269078,7.771924,4.63583E+18,0.758129,-0.057298,0.632134,0.149548,-9.735726,-2.194814,0.344412,0.107435,0.533889,-0.003859,43.761995,-11.215512,1.637424,4.63583E+18,0.6149,-0.496466,0.486856,0.372008,-9.1,3.366616,-4.452345,4.365759,0.604896,1.525247,42.009192,17.999662,4.84916,4.63583E+18,0.692233,0.297764,0.558022,-0.347508,0
-9.765728,-0.201355,3.340455,0.385938,-0.766182,-0.511851,44.117884,-12.939982,7.657891,4.63583E+18,0.760539,-0.056839,0.629854,0.147083,-9.371884,-2.388749,0.460779,0.136679,0.507436,0.02982,43.800163,-11.386405,1.96359,4.63583E+18,0.61406,-0.496859,0.488474,0.370748,-9.350682,4.009357,-3.139949,3.53425,0.581899,1.534621,42.231682,17.473631,4.312199,4.63583E+18,0.688627,0.312283,0.552607,-0.350567,0
-9.118344,-0.3642,2.59155,0.364364,-0.692863,-0.601039,44.437726,-12.625403,7.434942,4.63583E+18,0.762794,-0.056726,0.627762,0.144372,-9.193731,-2.389796,0.550633,0.149995,0.482143,0.065317,43.71237,-11.510025,2.04409,4.63583E+18,0.613242,-0.497103,0.490119,0.369602,-9.253598,3.954311,-2.056679,2.716897,0.560666,1.506028,42.549059,16.915445,3.811531,4.63583E+18,0.685942,0.324292,0.548241,-0.35178,0
-8.473001,-0.636043,2.059801,0.284029,-0.680771,-0.675545,44.498443,-12.381228,7.133901,4.63583E+18,0.765029,-0.057069,0.625631,0.14163,-9.047498,-2.491353,0.561541,0.158541,0.460894,0.109066,43.68874,-11.635998,2.099417,4.63583E+18,0.612414,-0.497202,0.491811,0.368594,-9.326049,3.428189,-1.332032,2.047579,0.521218,1.461641,42.805581,16.595645,3.535381,4.63583E+18,0.684089,0.334183,0.544725,-0.351595,0
-8.188853,-0.999273,1.974822,0.227394,-0.605564,-0.714105,44.257856,-12.130629,6.934441,4.63583E+18,0.767065,-0.057736,0.623688,0.138892,-8.919713,-2.672909,0.676348,0.184814,0.449463,0.154314,43.774192,-11.754174,2.357859,4.63583E+18,0.611592,-0.497121,0.493604,0.367669,-9.383976,2.33823,-0.429738,1.709126,0.530182,1.454492,43.054893,16.311572,3.618151,4.63583E+18,0.682606,0.343073,0.541683,-0.350615,0
-8.124131,-1.583062,1.900663,0.223948,-0.521194,-0.700481,44.419303,-11.722084,6.632981,4.63583E+18,0.768861,-0.058425,0.622007,0.136184,-8.920749,-2.325463,0.89735,0.207674,0.442237,0.191468,43.765107,-11.704579,2.634961,4.63583E+18,0.610772,-0.496892,0.495489,0.366806,-9.205002,0.957344,0.152491,1.813444,0.60937,1.508659,43.250417,15.945557,3.674428,4.63583E+18,0.680807,0.352464,0.538583,-0.34957,0
-7.970045,-1.801432,1.812251,0.217655,-0.489621,-0.666337,44.642475,-11.487166,6.433301,4.63583E+18,0.770545,-0.059063,0.620423,0.133593,-9.103288,-1.66162,1.149518,0.193773,0.430262,0.227303,43.632411,-11.539149,2.614243,4.63583E+18,0.60989,-0.496604,0.497393,0.366085,-8.948668,-0.050209,-0.070309,2.183151,0.720556,1.569883,43.421305,15.450685,3.674428,4.63583E+18,0.678225,0.363162,0.535107,-0.348978,0
-7.942218,-1.98732,1.957813,0.297047,-0.413611,-0.633629,44.648492,-11.481149,6.425433,4.63583E+18,0.772024,-0.059402,0.619129,0.130881,-9.249051,-1.463318,1.242565,0.160545,0.416966,0.254762,43.556015,-11.55727,2.580943,4.63583E+18,0.608923,-0.49632,0.499267,0.36553,-8.866094,-0.536259,-0.372609,2.606883,0.813412,1.606726,43.540071,14.852758,3.683117,4.63583E+18,0.674744,0.375218,0.531138,-0.349034,0
-8.140282,-2.245951,2.067876,0.412312,-0.279242,-0.611039,44.809937,-11.313244,6.21747,4.63583E+18,0.773164,-0.059384,0.618329,0.12791,-9.285672,-1.474506,1.166731,0.127546,0.406511,0.27801,43.562766,-11.815936,2.894637,4.63583E+18,0.60787,-0.496054,0.501109,0.365122,-8.784378,-0.374127,-0.126677,3.051465,0.921816,1.640888,43.57691,14.282312,3.695324,4.63583E+18,0.670244,0.388684,0.526667,-0.349741,0
-8.412493,-2.556867,1.86844,0.524516,-0.152225,-0.584419,45.030352,-10.909986,6.012942,4.63583E+18,0.775272,-0.052384,0.618594,0.11641,-9.28179,-1.452681,1.143332,0.091369,0.395604,0.304235,43.608726,-12.010508,3.268149,4.63583E+18,0.606723,-0.495805,0.50292,0.364877,-8.544207,-0.233813,0.052125,3.470114,1.013004,1.6658,43.702057,13.793839,3.63803,4.63583E+18,0.664737,0.40341,0.52167,-0.351065,0
-8.783773,-2.698296,1.567396,0.610714,-0.083176,-0.560335,44.956646,-10.498156,6.195593,4.63583E+18,0.775875,-0.051698,0.618522,0.113034,-9.305917,-1.452681,1.065208,0.055394,0.380424,0.332708,43.600969,-12.143203,3.454405,4.63583E+18,0.605487,-0.495563,0.504694,0.36481,-8.372848,-0.011217,0.003739,3.855957,1.108324,1.683055,43.916408,13.382063,3.404875,4.63583E+18,0.658199,0.41926,0.516184,-0.352916,0
-9.281468,-2.706375,1.36889,0.68868,-0.054827,-0.548988,44.877167,-10.174555,6.35593,4.63583E+18,0.776406,-0.050742,0.618573,0.109486,-9.419642,-1.513415,0.880828,0.034094,0.361565,0.364975,43.527732,-12.354575,3.55751,4.63583E+18,0.604195,-0.495275,0.506452,0.364907,-8.276844,0.203558,-0.484855,4.068347,1.158862,1.643584,44.157024,13.000133,3.250913,4.63583E+18,0.650898,0.435537,0.510416,-0.355126,0
-9.702766,-2.601838,1.08812,0.765371,-0.123459,-0.547679,44.954078,-10.00411,6.257068,4.63583E+18,0.777117,-0.049503,0.618428,0.105759,-9.545888,-1.650276,0.699004,0.022935,0.343632,0.401518,43.353261,-12.234315,3.648422,4.63583E+18,0.60286,-0.494909,0.50822,0.365154,-8.634439,0.51697,1.048646,4.120114,1.13176,1.588475,44.296918,12.560907,3.161945,4.63583E+18,0.643246,0.451642,0.504414,-0.35752,0
-9.966284,-2.318318,0.816521,0.808803,-0.254294,-0.539921,45.121312,-9.844956,6.432843,4.63583E+18,0.778158,-0.048043,0.617871,0.10197,-9.608517,-1.734742,0.521342,0.016977,0.32938,0.439383,43.137387,-11.778746,3.679887,4.63583E+18,0.601482,-0.494453,0.510018,0.365538,-8.164007,1.86454,2.214651,4.021527,1.089925,1.530065,44.385877,12.149215,3.076507,4.63583E+18,0.635556,0.467138,0.498377,-0.359819,0
-10.089581,-1.973486,0.789958,0.84302,-0.400277,-0.524969,45.197749,-9.671329,6.410124,4.63583E+18,0.77956,-0.046371,0.616846,0.098168,-9.578944,-1.833385,0.405726,0.026651,0.315382,0.467908,43.203972,-11.924814,3.843133,4.63583E+18,0.600106,-0.493888,0.511851,0.365999,-7.728029,1.6735,2.561174,3.786152,1.023359,1.404596,44.532112,11.758605,3.051851,4.63583E+18,0.628071,0.481501,0.492601,-0.361979,0
-9.924029,-1.865904,1.033782,0.878149,-0.589984,-0.510455,45.356444,-9.430381,6.124003,4.63583E+18,0.781433,-0.044468,0.615209,0.094359,-9.512456,-1.782914,0.317709,0.050007,0.303382,0.481004,43.243113,-12.543454,4.033588,4.63583E+18,0.598782,-0.493216,0.513713,0.366466,-7.610621,1.530591,2.963276,3.334446,0.924108,1.224804,44.642226,11.367968,3.051851,4.63583E+18,0.621256,0.494035,0.487473,-0.363787,0
-9.57994,-1.814791,1.578998,0.910673,-0.70957,-0.50729,45.506002,-9.265288,6.010482,4.63583E+18,0.783596,-0.042402,0.61318,0.090496,-9.525629,-1.522716,0.322532,0.092057,0.298491,0.489183,42.853773,-12.670644,4.070527,4.63583E+18,0.597538,-0.492411,0.515641,0.366872,-7.888232,2.490011,4.099244,2.490924,0.710625,0.988035,44.614789,11.029464,3.129999,4.63583E+18,0.616139,0.50349,0.483468,-0.364869,0
-9.177188,-1.704495,2.01473,0.956638,-0.714696,-0.504996,45.41739,-8.936219,5.803004,4.63583E+18,0.785757,-0.040177,0.611135,0.086521,-9.713556,-1.128547,0.588843,0.138859,0.295062,0.490533,42.773774,-12.696339,4.179749,4.63583E+18,0.596391,-0.491478,0.51763,0.367186,-7.678112,2.491857,5.980598,1.511797,0.504421,0.69477,44.602326,10.833641,3.231179,4.63583E+18,0.612989,0.509481,0.480992,-0.365131,0
-8.776159,-1.583783,2.347455,1.033395,-0.629075,-0.497434,45.25875,-8.618371,5.595477,4.63583E+18,0.787686,-0.037709,0.609381,0.08236,-9.994327,-0.78738,0.91748,0.155837,0.28736,0.486373,43.251789,-13.2643,4.441243,4.63583E+18,0.595299,-0.490497,0.519615,0.367467,-7.144769,1.10219,6.875004,0.378221,0.252466,0.324536,44.718728,10.626372,3.189915,4.63583E+18,0.612168,0.511437,0.48037,-0.364592,0
-8.430761,-1.498777,2.443758,1.166052,-0.483392,-0.459208,45.426574,-8.297845,5.395217,4.63583E+18,0.789228,-0.034757,0.608139,0.077961,-10.099701,-0.683615,0.976922,0.147799,0.283059,0.480217,43.20911,-13.730103,4.469852,4.63583E+18,0.594206,-0.48954,0.52156,0.367757,-6.687457,-0.461005,9.113177,-0.78351,-0.027056,-0.111666,44.825319,10.507313,3.092264,4.63583E+18,0.613715,0.509129,0.481725,-0.363433,0
-8.310517,-1.421454,2.508876,1.414946,-0.326388,-0.399478,45.817563,-8.215583,5.387098,4.63583E+18,0.79036,-0.030885,0.607481,0.073103,-10.029358,-0.616168,0.826593,0.135572,0.276567,0.467542,42.688067,-13.806573,4.382458,4.63583E+18,0.593118,-0.488628,0.523441,0.368053,-6.0033,-2.72289,11.666298,-1.520779,-0.145864,-0.49618,44.849998,10.703191,3.263728,4.63583E+18,0.616464,0.50397,0.484695,-0.362017,0
-8.234547,-1.238343,2.658889,1.687101,-0.140207,-0.342513,45.89348,-8.2065,5.473404,4.63583E+18,0.791,-0.026026,0.607499,0.067717,-9.924962,-0.521078,0.717676,0.112612,0.268359,0.460962,42.557226,-13.900986,4.59826,4.63583E+18,0.592008,-0.487772,0.52525,0.368398,-6.919893,-4.369647,13.178515,-1.153113,-0.048122,-0.603788,44.789239,10.904188,3.475032,4.63583E+18,0.618058,0.499668,0.487571,-0.361401,0
-8.089422,-1.064315,2.252361,1.809319,0.081529,-0.305133,45.725753,-7.955995,5.276777,4.63583E+18,0.79112,-0.019912,0.60828,0.061052,-9.734081,-0.670492,0.628342,0.081147,0.258883,0.463211,42.493294,-13.936989,4.766347,4.63583E+18,0.590849,-0.486971,0.526989,0.368836,-8.505174,-2.071771,12.498057,0.055879,0.072293,-0.520578,44.712469,11.002119,3.536619,4.63583E+18,0.617004,0.498821,0.488755,-0.362769,0
-7.990883,-1.12987,1.447689,1.776328,0.291573,-0.296471,45.640766,-7.550046,5.37625,4.63583E+18,0.790567,-0.014726,0.609677,0.055507,-9.551923,-0.952919,0.533241,0.060795,0.248425,0.467598,42.343598,-14.086513,4.65962,4.63583E+18,0.589661,-0.486192,0.528676,0.369348,-10.409762,2.491804,11.087151,0.844362,0.024315,-0.439679,44.621864,11.188202,3.40127,4.63583E+18,0.614525,0.500089,0.488451,-0.365631,0
-8.190241,-1.310253,1.001007,1.7243,0.486913,-0.312649,45.570236,-7.38232,5.83692,4.63583E+18,0.789471,-0.009796,0.611668,0.050027,-9.544613,-0.994539,0.432999,0.044321,0.236927,0.477664,42.911653,-14.77387,4.760039,4.63583E+18,0.588447,-0.485412,0.530327,0.369944,-11.476203,4.218805,10.829017,1.155011,-0.054559,-0.387437,44.532894,11.420122,3.205968,4.63583E+18,0.611625,0.502128,0.487353,-0.369147,0
-8.501342,-1.410175,1.015489,1.821514,0.533832,-0.331164,45.567521,-7.287808,6.208149,4.63583E+18,0.78821,-0.00463,0.613795,0.04427,-9.623315,-0.818461,0.297424,0.012213,0.224813,0.48328,43.768595,-15.527697,5.130142,4.63583E+18,0.589767,-0.480936,0.535292,0.366522,-10.889227,1.872507,10.411695,1.500169,-0.07674,-0.367777,44.508194,11.435097,3.088762,4.63583E+18,0.608058,0.505035,0.485609,-0.373349,0
-8.96242,-1.24117,1.406037,1.970486,0.410281,-0.30269,45.502838,-6.961432,6.390769,4.63583E+18,0.787213,0.001221,0.615502,0.038098,-9.602059,-0.726986,0.23869,-0.030033,0.220038,0.489299,43.98098,-15.83142,5.411465,4.63583E+18,0.588428,-0.480262,0.536806,0.367342,-10.354653,1.378748,8.855096,1.81475,-0.046082,-0.373659,44.542906,11.578811,2.716924,4.63583E+18,0.603727,0.508748,0.483441,-0.378119,0
-9.349041,-0.789921,1.787695,2.019433,0.242042,-0.255844,45.664713,-6.719962,6.569363,4.63583E+18,0.786576,0.00731,0.616619,0.032041,-9.484157,-0.806683,0.29814,-0.067441,0.214724,0.498686,43.77505,-15.96411,5.446088,4.63583E+18,0.587009,-0.479648,0.538266,0.368278,-10.925981,3.062281,5.445858,1.894444,0.013208,-0.327698,44.548344,11.92357,2.367482,4.63583E+18,0.599142,0.512816,0.481169,-0.382785,0
-9.633419,-0.029457,1.930574,2.00871,0.14622,-0.213592,45.893972,-6.545901,6.936963,4.63583E+18,0.786118,0.013455,0.617374,0.026183,-9.383621,-0.988208,0.287815,-0.105278,0.213378,0.503801,43.625387,-16.135014,5.40788,4.63583E+18,0.585505,-0.479111,0.53967,0.369314,-13.589125,2.777136,3.286908,1.736658,0.007748,-0.31446,44.484073,12.097241,2.352203,4.63583E+18,0.594892,0.516477,0.479078,-0.387091,0
-10.016303,0.824963,1.987044,2.022723,0.114258,-0.185616,45.73799,-6.286877,7.018807,4.63583E+18,0.785681,0.019721,0.617981,0.020378,-9.357619,-1.329394,0.109184,-0.097925,0.226985,0.514681,43.50491,-16.258669,5.461865,4.63583E+18,0.583966,-0.47855,0.541137,0.37033,-13.990758,2.798849,0.998064,1.32879,0.083656,-0.352164,44.407302,12.174013,2.380444,4.63583E+18,0.59128,0.519151,0.477893,-0.390497,0
-10.532093,1.677679,2.251043,1.981359,0.082934,-0.209227,45.664683,-5.963575,7.013345,4.63583E+18,0.785277,0.025971,0.618433,0.014372,-9.538514,-1.444955,0.148446,-0.032035,0.241965,0.525867,43.386707,-16.344116,5.505539,4.63583E+18,0.582505,-0.477823,0.542761,0.371193,-13.948635,0.515988,-3.906931,0.6665,0.115527,-0.421798,44.316704,12.472856,2.241613,4.63583E+18,0.588912,0.520095,0.478004,-0.392679,0
-11.442608,2.487753,2.705456,1.859288,0.01258,-0.267226,45.899837,-5.804449,7.177953,4.63583E+18,0.785012,0.031497,0.618618,0.00871,-10.038091,-0.866623,0.511475,0.019623,0.252056,0.529914,43.402469,-16.517287,5.451559,4.63583E+18,0.581112,-0.476977,0.544491,0.37193,-13.609866,-1.551893,-6.432547,-0.010628,0.135548,-0.449663,44.166996,12.689943,2.185125,4.63583E+18,0.58792,0.519351,0.479328,-0.393533,0
-12.198324,3.401113,2.896872,1.617666,-0.110087,-0.418092,45.8909,-5.630883,7.170357,4.63583E+18,0.785056,0.035953,0.618373,0.003026,-10.455651,-0.222285,0.701283,0.013744,0.26403,0.520834,43.493376,-16.808646,5.522574,4.63583E+18,0.57969,-0.476182,0.546218,0.372634,-13.032606,-0.436907,-5.326314,-0.593716,0.1108,-0.428294,44.074178,12.732322,2.323932,4.63583E+18,0.58827,0.517178,0.4815,-0.393221,0
-12.253303,3.921714,2.649663,1.399211,-0.228979,-0.572195,45.655689,-5.386707,6.977152,4.63583E+18,0.785403,0.039224,0.617736,-0.002524,-10.464959,-0.077099,0.500186,-0.044159,0.279686,0.492051,43.396679,-17.050529,5.716597,4.63583E+18,0.57816,-0.475612,0.547834,0.373365,-12.606371,0.698432,-2.116811,-0.915022,0.062287,-0.394426,44.108566,12.897135,2.441164,4.63583E+18,0.589457,0.5142,0.483999,-0.39228,0
-11.488485,3.996857,2.017465,1.222849,-0.35448,-0.617643,45.661516,-5.145697,7.149504,4.63583E+18,0.78607,0.041767,0.616676,-0.007747,-10.314293,0.045293,0.125933,-0.083765,0.289103,0.458798,43.152531,-17.133733,5.852485,4.63583E+18,0.576581,-0.475223,0.549345,0.374082,-11.433485,1.042131,0.641584,-0.900109,0.039718,-0.354933,44.181807,13.02498,2.604679,4.63583E+18,0.590711,0.511293,0.486327,-0.391312,0
-10.193756,3.79888,1.797026,1.044125,-0.431882,-0.56544,45.817065,-4.983892,7.025799,4.63583E+18,0.786942,0.04396,0.615333,-0.012487,-10.139549,0.110196,-0.123028,-0.085817,0.285224,0.441286,43.043304,-17.2741,5.950138,4.63583E+18,0.575033,-0.474869,0.550805,0.374768,-10.287521,0.942516,1.209157,-0.748922,0.015822,-0.309477,44.150958,13.101764,2.791339,4.63583E+18,0.591757,0.508805,0.488247,-0.390584,0
-8.890101,3.514232,2.20121,0.884763,-0.347417,-0.487321,45.884503,-4.733489,6.554929,4.63583E+18,0.787611,0.045761,0.614251,-0.016454,-9.9118,-0.330151,-0.176366,-0.119203,0.284464,0.420826,43.050049,-17.477767,6.047792,4.63583E+18,0.573449,-0.474637,0.552168,0.375481,-9.303996,0.55802,0.405123,-0.528431,-0.005425,-0.253378,44.077723,13.174999,2.844325,4.63583E+18,0.592465,0.506937,0.489632,-0.390207,0
-7.99242,2.803078,2.629059,0.74937,-0.089903,-0.376716,45.807985,-4.324693,6.549423,4.63583E+18,0.78764,0.047421,0.613993,-0.019665,-9.728363,-0.269339,-0.16416,-0.166287,0.288512,0.389852,42.873428,-17.554245,6.091494,4.63583E+18,0.57181,-0.474593,0.553403,0.376218,-8.8478,0.123686,-0.596223,-0.297341,-0.020548,-0.196596,44.047845,13.308959,2.774937,4.63583E+18,0.592804,0.505728,0.490483,-0.39019,0
-7.589705,2.007017,2.739095,0.651352,0.222491,-0.250806,45.96399,-4.092597,6.714072,4.63583E+18,0.786891,0.049108,0.614736,-0.022151,-9.668263,0.286119,-0.185669,-0.176865,0.272947,0.373038,42.72591,-17.648649,6.091494,4.63583E+18,0.570209,-0.474587,0.554547,0.37697,-8.993945,0.043365,-1.182485,-0.121751,-0.046575,-0.153956,44.096347,13.302861,2.616572,4.63583E+18,0.592895,0.504998,0.490894,-0.390481,0
-7.846767,1.153652,2.529342,0.615597,0.430782,-0.129917,46.040536,-4.177604,6.72476,4.63583E+18,0.785618,0.051006,0.616135,-0.024105,-9.715466,0.178111,-0.19404,-0.150029,0.247169,0.360027,42.820316,-17.812811,6.152182,4.63583E+18,0.568739,-0.474505,0.555644,0.377678,-9.40319,0.225814,-1.12407,0.005048,-0.066167,-0.116572,44.16959,13.22962,2.424795,4.63583E+18,0.592819,0.504626,0.490972,-0.390979,0
-8.442701,0.652705,2.260335,0.567514,0.49375,-0.061462,45.881842,-4.247731,7.024861,4.63583E+18,0.784192,0.052927,0.617723,-0.025695,-9.780688,-0.315998,-0.250543,-0.07769,0.226508,0.349061,42.856356,-17.931048,6.255306,4.63583E+18,0.567476,-0.474241,0.556782,0.378232,-9.733426,0.613821,-0.997808,0.09536,-0.071257,-0.082984,44.13877,13.373168,2.437608,4.63583E+18,0.592618,0.504537,0.490819,-0.39159,0
-8.971775,0.15115,1.972052,0.547105,0.438718,-0.019751,45.734702,-4.223984,7.498009,4.63583E+18,0.782908,0.054883,0.619119,-0.027107,-9.802545,-0.526196,-0.311927,0.023045,0.202563,0.337709,42.776373,-18.016493,6.245081,4.63583E+18,0.566484,-0.473727,0.557997,0.378573,-9.866778,1.004782,-1.176026,0.135256,-0.08674,-0.066115,44.056858,13.605101,2.595961,4.63583E+18,0.592392,0.504556,0.490528,-0.392272,0
-9.282064,-0.047054,1.490859,0.524461,0.283177,-0.006273,45.88763,-3.900599,7.561489,4.63583E+18,0.782025,0.056785,0.620002,-0.028457,-9.721645,-0.388809,-0.236492,0.131369,0.180102,0.31649,42.697668,-18.189582,6.255294,4.63583E+18,0.565789,-0.472972,0.559285,0.378657,-9.809957,1.214926,-1.24002,0.139029,-0.102792,-0.064538,43.980077,13.672292,2.718375,4.63583E+18,0.592192,0.504562,0.490187,-0.392991,0
-9.398815,0.008405,1.213841,0.52566,0.111241,-0.033105,45.88188,-3.753866,7.377253,4.63583E+18,0.781577,0.058604,0.620327,-0.029939,-9.656056,-0.194404,-0.123712,0.229367,0.157224,0.288383,42.624424,-18.393281,6.514754,4.63583E+18,0.565385,-0.47201,0.560619,0.378487,-9.58739,1.344062,-1.258958,0.111239,-0.11516,-0.073502,44.071568,13.507562,2.607946,4.63583E+18,0.592061,0.50446,0.489881,-0.393701,0
-9.366467,0.24561,1.365164,0.558268,-0.031295,-0.092387,45.728931,-3.918576,7.483138,4.63583E+18,0.781478,0.060355,0.620195,-0.03173,-9.716724,0.054463,0.042625,0.28639,0.132292,0.25564,42.497258,-18.469801,6.736843,4.63583E+18,0.565205,-0.470945,0.561921,0.378152,-9.440211,1.561497,-1.182874,0.067028,-0.129943,-0.087527,44.169572,13.440351,2.421304,4.63583E+18,0.592029,0.504196,0.48964,-0.394386,0
-9.120996,0.623599,1.64858,0.577263,-0.157324,-0.165394,45.734664,-3.909757,7.475642,4.63583E+18,0.781685,0.061962,0.619665,-0.033838,-9.799624,0.429953,0.133008,0.277037,0.112333,0.210845,42.333104,-18.476541,6.667265,4.63583E+18,0.56512,-0.469977,0.56307,0.377773,-9.463919,1.549107,-0.792087,0.049615,-0.136104,-0.100963,44.069441,13.544373,2.298888,4.63583E+18,0.592024,0.503852,0.48944,-0.395081,0
-8.843313,0.990701,2.001711,0.588923,-0.251208,-0.219445,45.884544,-3.668256,7.278699,4.63583E+18,0.782116,0.063456,0.618837,-0.036178,-9.853921,0.677772,-0.032951,0.243269,0.091114,0.159207,42.262032,-18.569631,6.640453,4.63583E+18,0.565099,-0.469177,0.564012,0.377395,-9.485152,1.427037,-0.334941,0.05641,-0.130655,-0.113022,43.967888,13.647516,2.270577,4.63583E+18,0.591973,0.503509,0.489268,-0.395807,0
-8.65461,1.379974,2.324241,0.56843,-0.254125,-0.262089,45.805254,-3.500448,7.36414,4.63583E+18,0.782547,0.064774,0.618008,-0.038606,-9.87579,0.718965,-0.219351,0.224712,0.064189,0.113725,42.39682,-18.735057,6.851403,4.63583E+18,0.565177,-0.468482,0.564773,0.377003,-9.563165,1.565006,0.052517,0.074985,-0.131212,-0.117187,43.998661,13.611615,2.201232,4.63583E+18,0.591876,0.503203,0.489073,-0.396582,0
-8.650313,1.730913,2.453249,0.514223,-0.191673,-0.302487,45.890267,-3.414997,7.450032,4.63583E+18,0.782821,0.065781,0.617403,-0.040959,-9.815148,0.519367,-0.167494,0.193619,0.043017,0.068534,42.553344,-18.764443,6.928731,4.63583E+18,0.565315,-0.467931,0.565348,0.376618,-9.612353,1.479785,0.262701,0.122131,-0.121075,-0.112946,44.132568,13.595507,2.172918,4.63583E+18,0.591666,0.503037,0.488816,-0.397421,0
-8.86399,1.994201,2.438844,0.466802,-0.117872,-0.337351,45.960873,-3.323832,7.54022,4.63583E+18,0.782907,0.066557,0.617052,-0.043284,-9.759185,0.406651,-0.024809,0.1583,0.03219,0.029311,42.591629,-18.67899,6.831071,4.63583E+18,0.56547,-0.467541,0.565763,0.376247,-9.567434,1.216726,0.175186,0.176017,-0.099745,-0.108054,44.117925,13.703047,2.172918,4.63583E+18,0.591307,0.50305,0.488512,-0.398312,0
-9.240622,2.114071,2.366484,0.407831,-0.100181,-0.360957,45.954741,-3.08278,7.427301,4.63583E+18,0.782955,0.067084,0.616772,-0.045528,-9.753716,0.439467,0.010939,0.129828,0.021765,-0.000964,42.591629,-18.640705,6.84122,4.63583E+18,0.565642,-0.467272,0.566049,0.375891,-9.684872,1.35198,-0.129288,0.182856,-0.084586,-0.10454,43.980461,13.797542,2.242259,4.63583E+18,0.590908,0.503112,0.488227,-0.399175,0
-9.561889,2.172045,2.319407,0.343102,-0.123945,-0.357981,45.79259,-2.924102,7.231569,4.63583E+18,0.783057,0.067679,0.616394,-0.047955,-9.807614,0.25756,0,0.105817,0.00718,-0.023318,42.544469,-18.593543,6.932137,4.63583E+18,0.565838,-0.467086,0.566222,0.375565,-9.698177,1.553132,-0.327267,0.144568,-0.069047,-0.106643,43.821787,13.818781,2.270577,4.63583E+18,0.590553,0.503101,0.488047,-0.399933,0
-9.649072,2.145011,2.322462,0.289733,-0.154157,-0.331467,45.866269,-2.764969,7.027972,4.63583E+18,0.783271,0.067925,0.615944,-0.049865,-9.858111,-0.200012,-0.026946,0.103096,-0.003537,-0.035102,42.459024,-18.602408,6.916535,4.63583E+18,0.566074,-0.466918,0.566342,0.375239,-9.567837,1.590506,-0.392214,0.084069,-0.051959,-0.107883,43.836396,13.879429,2.270577,4.63583E+18,0.590288,0.502967,0.488013,-0.400535,0
-9.448077,2.044295,2.407914,0.23705,-0.162128,-0.280653,45.94561,-2.591446,6.936861,4.63583E+18,0.783527,0.068129,0.615462,-0.051477,-9.823172,-0.411264,-0.109445,0.1014,-0.007588,-0.049061,42.467873,-18.640705,6.879503,4.63583E+18,0.566336,-0.466781,0.566422,0.374893,-9.643066,1.560971,-0.394181,0.007543,-0.044724,-0.107125,43.800554,13.904232,2.201267,4.63583E+18,0.590169,0.502658,0.488124,-0.400963,0
-9.097119,1.861184,2.494239,0.175212,-0.124054,-0.213054,45.863213,-2.359085,7.019257,4.63583E+18,0.78372,0.068272,0.615102,-0.052647,-9.790338,-0.135992,-0.185634,0.113222,-0.019152,-0.064751,42.553319,-18.640705,6.93885,4.63583E+18,0.566675,-0.466634,0.566463,0.374503,-9.805293,1.333774,-0.252034,-0.059227,-0.036972,-0.103025,43.71511,13.89557,2.112279,4.63583E+18,0.59018,0.502207,0.488356,-0.401228,0
-8.83685,1.678511,2.603669,0.116196,-0.038793,-0.137216,45.866268,-2.4441,7.022749,4.63583E+18,0.783716,0.068557,0.614998,-0.053549,-9.689322,-0.013041,-0.099776,0.122985,-0.030718,-0.072266,42.632036,-18.593564,6.982635,4.63583E+18,0.567072,-0.466461,0.566477,0.374094,-9.816725,0.933315,-0.152007,-0.096613,-0.035697,-0.083283,43.742271,14.004634,2.018168,4.63583E+18,0.5903,0.501706,0.488613,-0.401366,0
-8.805018,1.505887,2.697836,0.050208,0.039709,-0.061538,45.94562,-2.514725,7.116916,4.63583E+18,0.783556,0.068717,0.615157,-0.053856,-9.694763,-0.281985,0.176332,0.10667,-0.033113,-0.078416,42.577339,-18.602388,6.928766,4.63583E+18,0.567453,-0.466339,0.566448,0.373714,-9.767892,0.502474,-0.31621,-0.094824,-0.027979,-0.060678,43.824183,14.059384,2.05045,4.63583E+18,0.590437,0.501269,0.488838,-0.401435,0
-8.906135,1.286613,2.695668,-0.009222,0.073968,0.010057,45.857576,-2.512123,7.109978,4.63583E+18,0.783331,0.068997,0.615406,-0.053923,-9.712059,-0.296817,0.316134,0.077281,-0.0284,-0.083426,42.50618,-18.593574,6.878242,4.63583E+18,0.567773,-0.466305,0.566374,0.373383,-9.848993,0.681586,-0.5119,-0.087003,-0.024567,-0.035528,43.848991,13.950327,2.144552,4.63583E+18,0.590593,0.500908,0.489007,-0.401451,0
-9.102755,1.082556,2.635065,-0.058509,0.080572,0.081856,45.707119,-2.444516,6.918562,4.63583E+18,0.783125,0.069222,0.615677,-0.053527,-9.648065,-0.130506,0.264788,0.039566,-0.019854,-0.092631,42.546576,-18.508122,6.926631,4.63583E+18,0.568015,-0.466393,0.566244,0.3731,-9.862014,0.693099,-0.492254,-0.097577,-0.019263,-0.023225,43.797028,13.904232,2.112292,4.63583E+18,0.59078,0.500556,0.489181,-0.401403,0
-9.334694,0.97269,2.591005,-0.111119,0.062951,0.130346,45.783833,-2.54124,6.840048,4.63583E+18,0.782991,0.069396,0.615887,-0.052841,-9.719159,-0.178444,0.279065,0.006637,-0.014844,-0.100516,42.491905,-18.476533,7.024284,4.63583E+18,0.568196,-0.466582,0.566062,0.372864,-9.756106,0.889494,-0.325309,-0.087386,-0.014817,-0.012269,43.706462,14.008161,1.948894,4.63583E+18,0.590955,0.500259,0.489326,-0.401339,0
-9.561421,0.862836,2.671693,-0.14213,0.029587,0.160865,45.951691,-2.929777,6.94947,4.63583E+18,0.782958,0.069537,0.615987,-0.051982,-9.736486,-0.223954,0.202958,-0.009464,-0.006229,-0.103241,42.286098,-18.434888,7.014235,4.63583E+18,0.568331,-0.466828,0.565871,0.372642,-9.725753,1.335189,-0.303202,-0.097849,-0.016159,-0.010061,43.62613,14.050721,1.892148,4.63583E+18,0.591158,0.499939,0.489481,-0.401251,0
-9.642552,0.752105,2.628049,-0.173078,-0.039616,0.179024,46.028068,-2.921134,7.043239,4.63583E+18,0.783114,0.06961,0.615861,-0.051005,-9.685947,-0.288303,0.103135,-0.022242,-0.001178,-0.105267,42.216968,-18.261928,6.862724,4.63583E+18,0.568417,-0.467141,0.565647,0.372459,-9.625389,1.390503,-0.386667,-0.116802,-0.012544,-0.019774,43.786688,13.834238,2.030696,4.63583E+18,0.591376,0.499559,0.489697,-0.40114,0
-9.602041,0.62301,2.72614,-0.174335,-0.101011,0.196728,45.863645,-2.688653,7.038378,4.63583E+18,0.783435,0.069671,0.615535,-0.049933,-9.761238,-0.428052,0.138043,-0.042865,0.000219,-0.104569,42.384435,-18.05818,6.775109,4.63583E+18,0.568458,-0.467502,0.565396,0.372324,-9.522197,1.381,-0.345777,-0.119496,-0.006893,-0.027288,43.800585,13.910063,2.087466,4.63583E+18,0.591575,0.499166,0.489947,-0.401029,0
-9.455568,0.637369,2.837287,-0.180442,-0.117195,0.201315,45.884038,-2.773665,7.223337,4.63583E+18,0.783798,0.06972,0.615154,-0.048834,-9.85388,-0.320047,0.069954,-0.056352,0.006258,-0.105377,42.58146,-18.021884,6.882788,4.63583E+18,0.568605,-0.467687,0.565317,0.371986,-9.618576,1.486885,-0.369342,-0.139777,-0.012917,-0.042477,43.083088,14.739404,2.087466,4.63583E+18,0.591802,0.498683,0.490248,-0.400927,0
-9.312088,0.707597,2.98336,-0.1777,-0.106645,0.184572,46.122161,-2.844757,7.118753,4.63583E+18,0.78413,0.069737,0.614811,-0.047794,-9.86233,-0.162921,-0.066047,-0.07877,0.008436,-0.110348,42.612287,-18.148968,6.970428,4.63583E+18,0.568584,-0.468134,0.565039,0.37188,-9.711553,1.551899,-0.477215,-0.181805,-0.032689,-0.063218,42.21908,15.588514,2.096124,4.63583E+18,0.590949,0.499451,0.489157,-0.402558,0
-9.253212,0.69453,3.112457,-0.15825,-0.040327,0.147732,46.19023,-2.853517,6.846483,4.63583E+18,0.784255,0.070034,0.614657,-0.047283,-9.898479,-0.328176,-0.096408,-0.121561,0.006888,-0.117934,42.532317,-18.225653,6.862761,4.63583E+18,0.568493,-0.468699,0.564674,0.371861,-9.737958,1.31147,-0.512711,-0.212137,-0.053915,-0.080793,42.10247,15.75664,2.168936,4.63583E+18,0.591303,0.498695,0.489508,-0.402549,0
-9.255365,0.658769,3.09422,-0.132652,0.05636,0.096423,46.110954,-2.77668,7.13946,4.63583E+18,0.784137,0.070005,0.614863,-0.046599,-9.950283,-0.348247,-0.112366,-0.139011,0.004054,-0.123535,42.541069,-18.225653,6.828937,4.63583E+18,0.568384,-0.469314,0.564263,0.371876,-9.758821,1.018083,-0.521368,-0.217455,-0.069663,-0.095299,42.48978,15.466982,2.25793,4.63583E+18,0.591675,0.497871,0.489858,-0.402597,0
-9.318986,0.641394,2.914555,-0.10816,0.107996,0.044649,45.872409,-2.935806,7.412627,4.63583E+18,0.78387,0.069935,0.615247,-0.046131,-9.961241,-0.318162,-0.154467,-0.12859,-0.000807,-0.125562,42.619794,-18.178554,6.872768,4.63583E+18,0.568311,-0.469899,0.563854,0.371869,-9.765923,1.009229,-0.472974,-0.194108,-0.073702,-0.100853,42.290614,15.400201,2.222183,4.63583E+18,0.591996,0.497086,0.49017,-0.402715,0
-9.451964,0.484434,2.829542,-0.085694,0.110937,0.008562,45.792975,-3.10068,7.153109,4.63583E+18,0.783581,0.069846,0.615647,-0.045837,-9.907419,-0.46589,-0.130537,-0.10812,-0.002027,-0.121332,42.69976,-18.140202,6.765125,4.63583E+18,0.568273,-0.470425,0.56348,0.371828,-9.809207,0.87315,-0.40839,-0.159793,-0.082034,-0.098444,41.823205,15.469891,2.275244,4.63583E+18,0.592265,0.496378,0.490398,-0.402915,0
-9.544478,0.37843,2.754168,-0.062235,0.107339,-0.021193,45.880984,-3.097686,7.148175,4.63583E+18,0.783289,0.069756,0.616039,-0.045701,-9.829946,-0.530399,-0.023662,-0.069057,0.001286,-0.108667,42.738117,-18.140202,6.67745,4.63583E+18,0.568284,-0.470835,0.563198,0.371721,-9.723083,0.623905,-0.260791,-0.095006,-0.081665,-0.094929,42.36348,15.118971,2.229292,4.63583E+18,0.592405,0.495839,0.49051,-0.403237,0
-9.496505,0.378857,2.620742,-0.039691,0.121207,-0.046454,46.031552,-3.012234,7.336222,4.63583E+18,0.782949,0.069679,0.61648,-0.045702,-9.795818,-0.524918,0.150982,-0.020511,0.004382,-0.092056,42.738117,-18.005661,6.731266,4.63583E+18,0.568359,-0.471093,0.563032,0.37153,-9.637194,0.705129,-0.259458,-0.024922,-0.073295,-0.087938,43.601201,14.490233,2.102124,4.63583E+18,0.592438,0.495447,0.490566,-0.403603,0
-9.472517,0.391065,2.514725,-0.014729,0.103913,-0.060884,45.960445,-2.932771,7.318025,4.63583E+18,0.782644,0.069642,0.616863,-0.045818,-9.756706,-0.531645,0.331589,0.018725,0.011815,-0.06967,42.684309,-17.801886,6.876002,4.63583E+18,0.568463,-0.471211,0.562992,0.37128,-9.688673,0.985439,-0.31539,0.008291,-0.073527,-0.09151,43.943552,14.182356,2.071706,4.63583E+18,0.592396,0.495129,0.490573,-0.404045,0
-9.457661,0.401526,2.515164,-0.008661,0.051869,-0.060423,45.948666,-3.024018,7.134739,4.63583E+18,0.782428,0.070174,0.617012,-0.04667,-9.742752,-0.537126,0.416295,0.050767,0.021798,-0.048853,42.694264,-17.819307,6.857336,4.63583E+18,0.568574,-0.471221,0.563066,0.370986,-9.751709,1.195406,-0.303638,0.017672,-0.077042,-0.095511,43.697236,14.188096,2.014681,4.63583E+18,0.592335,0.494821,0.490563,-0.404523,0
-9.376039,0.366975,2.526932,-0.012408,0.01246,-0.046288,45.938879,-3.24959,6.964242,4.63583E+18,0.782356,0.07021,0.617087,-0.046827,-9.74699,-0.550577,0.487789,0.093404,0.03152,-0.0293,42.69104,-17.848975,6.775109,4.63583E+18,0.568715,-0.471101,0.563265,0.370621,-9.679388,1.158621,-0.292978,0.019984,-0.077975,-0.103705,43.656765,14.261338,1.989807,4.63583E+18,0.592257,0.4945,0.490565,-0.405027,0
-9.391244,0.38068,2.517181,-0.023219,0.041359,-0.01752,45.795221,-3.084927,7.066381,4.63583E+18,0.782218,0.070293,0.61725,-0.046857,-9.707884,-0.601889,0.584199,0.139376,0.036905,0.001368,42.55852,-17.676107,6.822182,4.63583E+18,0.568868,-0.470835,0.563584,0.370238,-9.591922,1.053845,-0.310287,0.022567,-0.07646,-0.110601,43.790597,14.291316,2.050388,4.63583E+18,0.592159,0.494175,0.49058,-0.40555,0
-9.455293,0.415052,2.365231,-0.035183,0.068443,0.010189,45.890452,-2.849585,7.226783,4.63583E+18,0.782023,0.070367,0.617501,-0.046698,-9.727539,-0.668406,0.602405,0.156321,0.045622,0.023454,42.528831,-17.700936,6.86056,4.63583E+18,0.569,-0.470491,0.563993,0.369851,-9.570604,1.181173,-0.24817,0.025771,-0.07281,-0.116698,43.724298,14.346786,2.075258,4.63583E+18,0.592035,0.493851,0.490611,-0.406087,0
-9.562146,0.414302,2.323906,-0.033984,0.052292,0.036561,46.114318,-2.935027,7.221533,4.63583E+18,0.781874,0.07051,0.617691,-0.046461,-9.893681,-0.500823,0.498542,0.170767,0.054693,0.030125,42.661352,-17.992153,6.813492,4.63583E+18,0.569282,-0.469875,0.564654,0.36919,-9.570604,1.323023,-0.07265,0.022918,-0.075351,-0.120079,43.565614,14.420026,1.945479,4.63583E+18,0.591917,0.493508,0.490648,-0.406631,0
-9.620931,0.406588,2.392651,-0.032417,0.035052,0.057005,46.013904,-3.009988,7.141331,4.63583E+18,0.781756,0.070931,0.617793,-0.046449,-10.01131,-0.328361,0.333133,0.192546,0.057788,0.034398,42.643992,-18.052798,6.929745,4.63583E+18,0.569456,-0.469409,0.565191,0.368692,-9.5533,1.21659,-0.116031,0.017578,-0.073878,-0.122215,43.562652,14.553834,1.753716,4.63583E+18,0.591802,0.493151,0.490702,-0.407165,0
-9.640099,0.460881,2.392651,-0.054344,0.033619,0.063349,45.705267,-2.929777,7.14733,4.63583E+18,0.781666,0.071073,0.617919,-0.046077,-10.049169,-0.33756,0.269801,0.21092,0.069336,0.023376,42.520156,-17.847052,7.264281,4.63583E+18,0.569662,-0.468934,0.565768,0.368093,-9.520237,0.986685,-0.28846,0.020564,-0.07112,-0.116024,43.692891,14.660611,1.688178,4.63583E+18,0.591686,0.492819,0.490745,-0.407684,0
-9.577571,0.414303,2.386662,-0.051226,0.05899,0.069475,45.731696,-2.935017,7.244979,4.63583E+18,0.781511,0.071246,0.618124,-0.045685,-10.097998,-0.044773,0.327829,0.221803,0.081504,0.001053,42.569158,-17.777693,7.441031,4.63583E+18,0.569896,-0.468501,0.566349,0.367388,-9.535519,0.82905,-0.341807,0.015619,-0.065199,-0.107168,43.739124,14.624953,1.753826,4.63583E+18,0.591582,0.492503,0.490794,-0.408158,0
-9.5026,0.402844,2.299483,-0.033853,0.07865,0.086978,45.965364,-3.01972,7.336649,4.63583E+18,0.781303,0.071525,0.618385,-0.045276,-10.005666,0.194082,0.393109,0.222067,0.097323,-0.01972,42.687512,-17.904707,7.338967,4.63583E+18,0.570122,-0.468144,0.566923,0.366606,-9.615393,0.750229,-0.2207,0.002978,-0.055452,-0.100137,43.635319,14.539501,1.920689,4.63583E+18,0.591495,0.492187,0.490874,-0.408568,0
-9.587295,0.40658,2.370478,-0.029363,0.070738,0.093016,46.029635,-3.08399,7.336649,4.63583E+18,0.781115,0.071833,0.618617,-0.04486,-9.872084,-0.038688,0.354561,0.231104,0.113176,-0.032369,42.685584,-17.934457,7.304967,4.63583E+18,0.570345,-0.467822,0.567521,0.365744,-9.799539,0.715145,-0.093058,-0.009393,-0.049312,-0.092215,43.532092,14.627046,1.977599,4.63583E+18,0.591434,0.491868,0.490974,-0.408921,0
-9.65456,0.468372,2.407104,-0.037778,0.039104,0.076993,45.955634,-3.024958,7.342637,4.63583E+18,0.781008,0.072066,0.618752,-0.044484,-9.7182,-0.381022,0.258142,0.231621,0.122789,-0.039365,42.645948,-17.761646,7.449662,4.63583E+18,0.570559,-0.467526,0.568131,0.364843,-9.898182,0.846431,-0.095637,-0.026442,-0.044282,-0.084426,43.619637,14.78575,1.908399,4.63583E+18,0.591411,0.491532,0.4911,-0.409208,0
-9.627913,0.543837,2.438498,-0.043533,-0.003002,0.061039,45.876169,-3.18884,7.44102,4.63583E+18,0.781008,0.072232,0.618757,-0.044157,-9.653028,-0.499273,0.186139,0.2195,0.134752,-0.043314,42.687492,-17.739251,7.63947,4.63583E+18,0.570727,-0.467282,0.568744,0.363934,-9.886463,0.842802,-0.05797,-0.035072,-0.035914,-0.077706,43.717777,14.780098,1.810744,4.63583E+18,0.591399,0.491202,0.491248,-0.409443,0
-9.562387,0.656704,2.402363,-0.039325,-0.0509,0.04641,45.886883,-3.412844,7.538199,4.63583E+18,0.781127,0.072366,0.618608,-0.043904,-9.620007,-0.501733,0.071359,0.218813,0.13982,-0.038503,42.72591,-17.904657,7.734005,4.63583E+18,0.570874,-0.467037,0.569376,0.363029,-9.901734,0.861136,-0.071214,-0.043127,-0.027816,-0.076595,43.687238,14.646327,1.721745,4.63583E+18,0.591388,0.490869,0.491427,-0.409642,0
-9.422901,0.814637,2.556567,-0.036839,-0.076866,0.036928,45.875423,-3.317708,7.43384,4.63583E+18,0.781311,0.072478,0.618378,-0.043695,-9.55045,-0.526147,-0.094055,0.221587,0.134744,-0.027714,42.766221,-17.793394,7.578256,4.63583E+18,0.571019,-0.466755,0.570018,0.362157,-9.86052,1.259472,-0.293019,-0.084525,-0.032446,-0.082961,43.605341,14.651946,1.62764,4.63583E+18,0.591461,0.490414,0.491679,-0.409781,0
-9.206152,0.957396,2.633817,-0.045776,-0.057533,0.029908,45.875423,-3.093692,7.239736,4.63583E+18,0.781446,0.072547,0.618214,-0.04348,-9.51383,-0.530408,-0.278383,0.215229,0.121978,-0.019492,42.705113,-17.505349,7.547278,4.63583E+18,0.571168,-0.466449,0.570634,0.361343,-9.718095,1.381467,-0.343837,-0.139754,-0.038276,-0.092262,43.580429,14.846259,1.659706,4.63583E+18,0.591642,0.489793,0.49203,-0.409841,0
-9.039732,1.036885,2.588714,-0.060402,-0.019305,0.030038,45.880633,-3.184345,7.257152,4.63583E+18,0.781487,0.072576,0.618178,-0.043215,-9.470493,-0.531635,-0.41324,0.202785,0.109002,-0.016503,42.540934,-17.489585,7.837847,4.63583E+18,0.571324,-0.466139,0.571211,0.360586,-9.599083,1.116449,-0.29501,-0.174866,-0.034225,-0.100362,43.580429,14.805029,1.693269,4.63583E+18,0.591871,0.489076,0.492467,-0.40984,0
-8.946536,1.025422,2.605396,-0.06943,0.03171,0.032175,45.960873,-3.33961,7.342892,4.63583E+18,0.781399,0.072592,0.618308,-0.042905,-9.535848,-0.516975,-0.478541,0.182434,0.097626,-0.019549,42.556875,-17.613471,8.014773,4.63583E+18,0.571472,-0.465865,0.571725,0.359889,-9.63113,0.987275,-0.237538,-0.18568,-0.036584,-0.105568,43.580429,14.646346,1.766001,4.63583E+18,0.592118,0.488318,0.492927,-0.409833,0
-8.92882,1.02691,2.688605,-0.068583,0.077922,0.034181,45.960873,-3.264585,7.251197,4.63583E+18,0.781192,0.072623,0.618588,-0.042577,-9.681102,-0.386332,-0.527367,0.153274,0.078932,-0.025369,42.809584,-17.557881,7.85908,4.63583E+18,0.571613,-0.46565,0.572135,0.359289,-9.69064,1.019823,-0.237025,-0.193735,-0.046019,-0.110597,43.640953,14.712454,1.92418,4.63583E+18,0.592392,0.487514,0.493388,-0.409841,0
-9.013521,1.046865,2.730744,-0.054634,0.110929,0.034441,45.955673,-3.354485,7.263825,4.63583E+18,0.780819,0.073822,0.618841,-0.04368,-9.761653,-0.272832,-0.529187,0.125345,0.06131,-0.035411,42.957851,-17.528009,7.673564,4.63583E+18,0.571755,-0.465505,0.572438,0.358771,-9.67895,0.968469,-0.252793,-0.186705,-0.046109,-0.113668,43.665882,14.871137,1.977599,4.63583E+18,0.592645,0.48672,0.493843,-0.40987,0
-9.086028,0.998775,2.665981,-0.040329,0.125103,0.038844,45.875423,-3.488644,7.463188,4.63583E+18,0.780483,0.073967,0.619268,-0.043394,-9.764699,-0.323509,-0.452273,0.107241,0.04908,-0.045183,42.783254,-17.613461,7.737072,4.63583E+18,0.571905,-0.465406,0.572666,0.358295,-9.650974,0.784366,-0.308223,-0.159205,-0.048644,-0.11051,43.657238,14.917447,1.908442,4.63583E+18,0.592853,0.485997,0.494238,-0.409952,0
-9.150758,0.960679,2.548382,-0.035798,0.12698,0.044992,45.875423,-3.248999,7.531968,4.63583E+18,0.780141,0.074143,0.619697,-0.043099,-9.787288,-0.432146,-0.382701,0.093249,0.037919,-0.049242,42.546456,-17.604904,7.871947,4.63583E+18,0.572064,-0.465329,0.572841,0.357861,-9.704361,0.780749,-0.398757,-0.126848,-0.056254,-0.109707,43.653675,14.917447,1.810783,4.63583E+18,0.593011,0.485342,0.494557,-0.410114,0
-9.272091,0.897417,2.505483,-0.026669,0.12426,0.046934,45.875423,-3.098852,7.531968,4.63583E+18,0.779804,0.074353,0.620116,-0.042821,-9.814753,-0.442519,-0.278942,0.072421,0.034288,-0.052553,42.469555,-17.519456,8.017819,4.63583E+18,0.572198,-0.465301,0.572973,0.357472,-9.755237,0.814334,-0.418613,-0.112957,-0.062531,-0.106237,43.532634,15.081715,1.713115,4.63583E+18,0.59316,0.484718,0.49483,-0.410308,0
-9.378256,0.797521,2.556545,-0.009029,0.112379,0.04619,45.880621,-3.274228,7.53271,4.63583E+18,0.779492,0.074617,0.620492,-0.042595,-9.767755,-0.448621,-0.21424,0.054422,0.037011,-0.059175,42.556837,-17.527999,8.159427,4.63583E+18,0.572303,-0.465332,0.573073,0.357103,-9.783215,0.766019,-0.389113,-0.105792,-0.067872,-0.100896,43.430894,15.201264,1.753791,4.63583E+18,0.593314,0.484114,0.495067,-0.410513,0
-9.422635,0.666228,2.636799,0.000324,0.098302,0.050332,45.956433,-3.508704,7.538996,4.63583E+18,0.779213,0.07492,0.62082,-0.042384,-9.66217,-0.502941,-0.260012,0.040911,0.043152,-0.06537,42.587975,-17.660436,8.203375,4.63583E+18,0.572375,-0.465421,0.573155,0.356739,-9.773045,0.571729,-0.326553,-0.089236,-0.06943,-0.090259,43.418173,15.058356,1.85145,4.63583E+18,0.593455,0.48357,0.495251,-0.410728,0
-9.395994,0.582991,2.636799,0.005924,0.082053,0.052599,45.882442,-3.583788,7.452794,4.63583E+18,0.77894,0.07575,0.621032,-0.042821,-9.600514,-0.531631,-0.245991,0.023609,0.049935,-0.067881,42.508021,-17.737356,8.095977,4.63583E+18,0.572401,-0.465569,0.573221,0.356401,-9.757278,0.414053,-0.31383,-0.071212,-0.073212,-0.076686,43.473603,14.930175,1.87994,4.63583E+18,0.593591,0.483093,0.495367,-0.410954,0
-9.337184,0.537126,2.636799,0.015148,0.079172,0.056935,45.796999,-3.488731,7.360324,4.63583E+18,0.778704,0.076168,0.621286,-0.0427,-9.608444,-0.530413,-0.173964,0.004969,0.051752,-0.063663,42.556817,-17.596396,7.900658,4.63583E+18,0.572377,-0.465757,0.573268,0.356117,-9.771004,0.413008,-0.282814,-0.047315,-0.072501,-0.059019,43.434465,15.01762,1.810783,4.63583E+18,0.593707,0.482712,0.495408,-0.411184,0
-9.310557,0.542295,2.635322,0.017577,0.08189,0.061888,45.726324,-3.254208,7.365841,4.63583E+18,0.77846,0.07661,0.621546,-0.042572,-9.599299,-0.53163,-0.146489,-0.023171,0.04716,-0.052769,42.715504,-17.38704,7.812738,4.63583E+18,0.572293,-0.46598,0.573282,0.355936,-9.769485,0.513706,-0.268563,-0.028932,-0.071566,-0.043574,43.357658,15.003423,1.721768,4.63583E+18,0.59381,0.482411,0.495389,-0.411411,0
-9.250253,0.622578,2.606466,0.008675,0.092994,0.061273,45.880602,-3.188721,7.630367,4.63583E+18,0.778193,0.076967,0.621851,-0.042349,-9.596233,-0.537126,-0.193465,-0.05244,0.040858,-0.042888,42.739972,-17.316809,7.866426,4.63583E+18,0.572155,-0.466238,0.573258,0.355859,-9.783212,0.592556,-0.268563,-0.023811,-0.075348,-0.031957,43.440016,15.038996,1.627672,4.63583E+18,0.59393,0.48214,0.495329,-0.411627,0
-9.202163,0.628495,2.510287,0.011199,0.093673,0.067229,45.956435,-3.432865,7.648491,4.63583E+18,0.777925,0.077348,0.622155,-0.042112,-9.600516,-0.523704,-0.252073,-0.063608,0.037279,-0.035998,42.614255,-17.369282,7.964085,4.63583E+18,0.571994,-0.466499,0.573224,0.35583,-9.747119,0.653588,-0.233988,-0.023499,-0.075394,-0.022033,43.595138,15.176302,1.728824,4.63583E+18,0.594067,0.481891,0.495248,-0.41182,0
-9.171445,0.725395,2.445165,0.019291,0.089172,0.065838,45.883209,-3.662221,7.763492,4.63583E+18,0.777665,0.077751,0.622444,-0.041902,-9.641984,-0.512711,-0.20147,-0.068198,0.033969,-0.032526,42.542801,-17.407757,8.061731,4.63583E+18,0.57183,-0.466755,0.573184,0.355824,-9.712014,0.654121,-0.159231,-0.026524,-0.072502,-0.013933,43.537748,15.274491,1.851426,4.63583E+18,0.594217,0.481656,0.495164,-0.411979,0
-9.233965,0.80938,2.501041,0.019907,0.097783,0.059752,45.813646,-3.657053,7.940375,4.63583E+18,0.777381,0.078142,0.622762,-0.04171,-9.714014,-0.472458,-0.072692,-0.083893,0.035567,-0.036154,42.630015,-17.313833,8.159386,4.63583E+18,0.571638,-0.467055,0.57312,0.355841,-9.748096,0.776625,-0.194776,-0.042139,-0.076103,-0.006456,43.434483,15.183529,1.810803,4.63583E+18,0.594419,0.481391,0.495082,-0.412095,0
-9.316459,0.864516,2.472209,0.013177,0.107137,0.058168,45.807334,-3.576769,7.837153,4.63583E+18,0.777075,0.078509,0.623112,-0.041502,-9.761636,-0.385791,-0.052464,-0.112783,0.039627,-0.044805,42.748463,-17.28382,8.203375,4.63583E+18,0.571395,-0.46745,0.573005,0.355897,-9.774564,0.86467,-0.141958,-0.051847,-0.076462,-0.003516,43.461376,15.08533,1.652655,4.63583E+18,0.594645,0.481109,0.495011,-0.412183,0
-9.354541,0.827168,2.373104,0.002329,0.111899,0.048814,45.883227,-3.576769,7.854767,4.63583E+18,0.776758,0.078816,0.623482,-0.041296,-9.758004,-0.314973,-0.112286,-0.140505,0.038242,-0.059701,42.874161,-17.362557,8.149706,4.63583E+18,0.571122,-0.467946,0.572816,0.355988,-9.769488,0.697457,-0.032091,-0.04887,-0.069789,-0.00018,43.49141,15.063935,1.659662,4.63583E+18,0.594858,0.480853,0.494945,-0.412256,0
-9.415578,0.781274,2.253232,0.00579,0.106085,0.04328,45.809247,-3.571632,8.14114,4.63583E+18,0.776453,0.07912,0.623835,-0.041118,-9.781756,-0.35335,-0.094033,-0.153544,0.034556,-0.063666,42.992601,-17.348594,8.15938,4.63583E+18,0.57084,-0.468476,0.57259,0.356109,-9.765923,0.631218,-0.025922,-0.045486,-0.065781,0.00258,43.374007,15.176264,1.693262,4.63583E+18,0.595059,0.480617,0.494877,-0.41232,0
-9.476615,0.782008,2.172184,0.01224,0.076241,0.034864,45.723794,-3.491317,8.296361,4.63583E+18,0.776223,0.079417,0.624092,-0.040994,-9.814753,-0.48334,-0.101285,-0.15771,0.032526,-0.057468,42.937184,-17.222894,8.203375,4.63583E+18,0.570547,-0.468994,0.572366,0.356255,-9.843685,0.686627,-0.071183,-0.04335,-0.065913,0.006985,43.384556,15.222631,1.627707,4.63583E+18,0.595264,0.480397,0.494798,-0.412377,0
-9.536918,0.797884,2.162912,0.003012,0.047786,0.028647,45.638345,-3.491317,8.026601,4.63583E+18,0.776068,0.079662,0.624261,-0.040875,-9.774509,-0.522504,-0.140989,-0.151525,0.034979,-0.058478,42.772998,-17.245302,8.149717,4.63583E+18,0.570261,-0.469505,0.572155,0.356379,-9.858507,0.682105,-0.016321,-0.040458,-0.061688,0.010814,43.409527,15.222631,1.59917,4.63583E+18,0.59546,0.480199,0.494716,-0.412422,0
-9.582811,0.869656,2.207587,-0.001154,0.026127,0.025187,45.563157,-3.496445,7.940672,4.63583E+18,0.77597,0.07988,0.624362,-0.040763,-9.754921,-0.493797,-0.173315,-0.138226,0.036212,-0.063232,42.708202,-17.456436,8.052064,4.63583E+18,0.570005,-0.469999,0.571954,0.356461,-9.851375,0.662768,0.012207,-0.03423,-0.057548,0.015529,43.400887,15.27447,1.59917,4.63583E+18,0.595643,0.480034,0.494625,-0.412459,0
-9.583544,0.912626,2.37556,-0.02038,0.016642,0.018159,45.648609,-3.581163,8.04419,4.63583E+18,0.775902,0.080016,0.624438,-0.040626,-9.759216,-0.508416,-0.202025,-0.114259,0.036423,-0.067504,42.80089,-17.425617,8.061709,4.63583E+18,0.569802,-0.470446,0.57178,0.356475,-9.834097,0.762865,0.003569,-0.034312,-0.0551,0.023893,43.39732,15.295877,1.53006,4.63583E+18,0.595835,0.479891,0.494524,-0.41247,0
-9.590633,0.866726,2.485924,-0.038389,0.009805,0.019374,45.729663,-3.655131,8.239487,4.63583E+18,0.775859,0.080095,0.624494,-0.04044,-9.780538,-0.524918,-0.220937,-0.09523,0.036212,-0.070603,42.865695,-17.175984,8.206302,4.63583E+18,0.569645,-0.470849,0.571631,0.356432,-9.740572,0.788411,0,-0.042808,-0.052964,0.031239,43.39732,15.356348,1.501511,4.63583E+18,0.596052,0.479746,0.494428,-0.41244,0
-9.518112,0.865993,2.407545,-0.03809,0.014676,0.039415,45.740406,-3.735465,8.417249,4.63583E+18,0.775805,0.080228,0.624559,-0.040188,-9.769019,-0.518213,-0.252056,-0.096554,0.038182,-0.072739,42.819962,-17.206757,8.241891,4.63583E+18,0.569484,-0.471262,0.571482,0.356382,-9.713524,0.746723,-0.069102,-0.045175,-0.052339,0.033868,43.39732,15.320864,1.570613,4.63583E+18,0.596276,0.479602,0.494333,-0.412398,0
-9.461468,0.858173,2.249598,-0.049263,0.042195,0.054667,45.728931,-3.736196,8.302788,4.63583E+18,0.775687,0.08037,0.62471,-0.039849,-9.687867,-0.519416,-0.268563,-0.102166,0.035896,-0.073116,42.740013,-17.322306,8.096094,4.63583E+18,0.569318,-0.471689,0.571314,0.356353,-9.760279,0.879279,-0.158121,-0.053931,-0.052339,0.034181,43.405957,15.131767,1.530071,4.63583E+18,0.596518,0.479438,0.494252,-0.412336,0
-9.475138,0.918479,2.120652,-0.051783,0.011974,0.058128,45.728931,-3.742556,7.941172,4.63583E+18,0.775648,0.080508,0.624763,-0.039502,-9.650552,-0.531622,-0.28197,-0.117101,0.025006,-0.068528,42.748421,-17.228457,7.900801,4.63583E+18,0.569139,-0.472127,0.571104,0.356394,-9.769493,1.026343,-0.183111,-0.07733,-0.056118,0.032669,43.521811,14.960288,1.501511,4.63583E+18,0.596811,0.479207,0.494205,-0.412237,0
-9.502271,0.963655,2.272962,-0.061795,-0.071426,0.066306,45.723824,-3.657114,7.855198,4.63583E+18,0.775831,0.080621,0.624544,-0.03913,-9.676163,-0.530424,-0.319786,-0.146944,0.018054,-0.065157,42.786949,-17.198316,7.919972,4.63583E+18,0.568914,-0.472616,0.570841,0.356527,-9.714105,0.941136,-0.148566,-0.08923,-0.059947,0.034311,43.620041,15.029719,1.561965,4.63583E+18,0.597138,0.478943,0.494166,-0.412116,0
-9.372876,0.947792,2.506903,-0.095551,-0.116947,0.085215,45.639097,-3.571653,7.952135,4.63583E+18,0.776146,0.080666,0.624178,-0.038625,-9.685976,-0.518216,-0.328403,-0.162945,0.012399,-0.065743,42.740034,-17.236853,8.115291,4.63583E+18,0.568675,-0.473131,0.570542,0.356704,-9.701314,0.804782,-0.168825,-0.091548,-0.063151,0.039783,43.5292,15.179773,1.457425,4.63583E+18,0.597485,0.47868,0.494113,-0.411983,0
-9.134608,0.873836,2.569209,-0.138889,-0.070502,0.09827,45.584798,-3.50151,8.032472,4.63583E+18,0.776357,0.080613,0.623963,-0.037949,-9.646964,-0.546218,-0.324094,-0.150527,0.007959,-0.060948,42.647885,-17.055917,8.196674,4.63583E+18,0.568467,-0.473594,0.570263,0.356867,-9.782609,0.743159,-0.252198,-0.100928,-0.067111,0.046947,43.310052,15.162181,1.3434,4.63583E+18,0.597871,0.478401,0.494052,-0.41182,0
-8.999041,0.789113,2.465167,-0.174824,-0.000656,0.097887,45.823849,-3.676783,8.039024,4.63583E+18,0.776399,0.080454,0.623981,-0.037157,-9.673039,-0.587149,-0.249192,-0.128201,0.003959,-0.050162,42.73785,-16.860349,8.083957,4.63583E+18,0.568296,-0.473972,0.570029,0.357011,-9.857932,0.63745,-0.28077,-0.111479,-0.071384,0.05518,43.299073,15.03355,1.387486,4.63583E+18,0.598301,0.478106,0.493981,-0.411622,0
-9.043671,0.715869,2.453688,-0.203712,0.038757,0.091797,45.963616,-3.910737,8.148162,4.63583E+18,0.776345,0.080192,0.624131,-0.036297,-9.777399,-0.531156,-0.089302,-0.119151,0.001068,-0.046621,42.948495,-16.955816,7.948945,4.63583E+18,0.568142,-0.474319,0.569805,0.357152,-9.82398,0.416831,-0.082169,-0.088603,-0.06659,0.068258,43.384518,14.930247,1.545581,4.63583E+18,0.598697,0.477904,0.493858,-0.411429,0
-9.209468,0.646266,2.452962,-0.215003,0.02397,0.091365,45.809298,-3.98034,8.223285,4.63583E+18,0.776334,0.07989,0.624235,-0.035413,-9.867159,-0.368891,-0.045707,-0.13722,0.000482,-0.05217,42.937298,-17.112849,7.910398,4.63583E+18,0.567962,-0.474722,0.569541,0.357324,-9.776642,0.255463,0,-0.040955,-0.064089,0.083211,43.409527,14.905239,1.530095,4.63583E+18,0.599018,0.477856,0.49363,-0.411292,0
-9.290561,0.638418,2.448747,-0.202122,-0.0191,0.101423,45.738378,-4.001267,7.948328,4.63583E+18,0.776431,0.079649,0.624194,-0.034545,-9.900204,-0.327665,-0.133537,-0.162814,-0.002345,-0.061405,42.726207,-17.104507,7.856804,4.63583E+18,0.567752,-0.475203,0.569214,0.357542,-9.843623,0.496001,-0.0518,-0.017326,-0.067111,0.097409,43.513127,14.913873,1.363377,4.63583E+18,0.599322,0.477892,0.493326,-0.411173,0
-9.303494,0.700908,2.564281,-0.189062,-0.01531,0.118259,45.888357,-4.150517,7.792828,4.63583E+18,0.776399,0.081589,0.623886,-0.036259,-9.860009,-0.460011,-0.163013,-0.176075,-0.004859,-0.070328,42.662938,-17.019055,7.759144,4.63583E+18,0.567503,-0.475782,0.5688,0.357824,-9.918954,0.601737,-0.09051,-0.015397,-0.071383,0.105251,43.616446,14.969244,1.375256,4.63583E+18,0.599644,0.477941,0.492992,-0.411046,0
-9.332996,0.78854,2.572129,-0.188871,0.014153,0.130187,45.880219,-4.145431,8.074324,4.63583E+18,0.776411,0.081471,0.62394,-0.035321,-9.806865,-0.496935,-0.153187,-0.168313,-0.008271,-0.076633,42.828766,-16.933609,7.822253,4.63583E+18,0.567398,-0.476175,0.568526,0.357904,-9.876396,0.44277,-0.07176,-0.003936,-0.0749,0.112102,43.641468,15.102919,1.403851,4.63583E+18,0.599962,0.478027,0.492616,-0.410932,0
-9.446495,0.908434,2.506007,-0.185794,0.03366,0.127161,45.56515,-4.060706,8.321529,4.63583E+18,0.77637,0.081357,0.624057,-0.034394,-9.736756,-0.49737,-0.085021,-0.139814,-0.011268,-0.079629,42.933437,-16.895046,7.963979,4.63583E+18,0.567285,-0.476624,0.568179,0.358036,-9.90316,0.421584,-0.121453,0.010886,-0.076594,0.121089,43.641468,14.985401,1.265758,4.63583E+18,0.600268,0.478167,0.492193,-0.410829,0
-9.618104,0.9917,2.365336,-0.185424,0.003977,0.109311,45.49421,-4.001973,7.862173,4.63583E+18,0.776404,0.081195,0.624083,-0.033536,-9.726167,-0.524918,0.082749,-0.097533,-0.008233,-0.082455,42.846367,-16.901744,7.954475,4.63583E+18,0.567254,-0.476984,0.567896,0.358055,-10.028179,0.603437,-0.215529,0.02175,-0.083703,0.125415,43.693246,14.805257,1.079083,4.63583E+18,0.600575,0.47833,0.491725,-0.410751,0
-9.796863,1.040529,2.328832,-0.197501,-0.072802,0.079213,45.644207,-4.176501,7.696583,4.63583E+18,0.776636,0.080904,0.623872,-0.032769,-9.773806,-0.538312,0.124025,-0.046539,-0.004169,-0.084384,42.821619,-16.900557,7.803246,4.63583E+18,0.567316,-0.477236,0.567693,0.357943,-10.131518,0.705927,-0.356338,0.034384,-0.092561,0.124531,43.766491,14.81916,1.025422,4.63583E+18,0.600872,0.478508,0.491215,-0.410719,0
-9.895138,1.091525,2.491853,-0.232628,-0.145855,0.046357,45.650623,-4.399731,7.983642,4.63583E+18,0.777066,0.080405,0.62344,-0.032043,-9.823819,-0.529244,0.085452,0.002178,-0.002619,-0.081454,42.95394,-16.94192,7.715079,4.63583E+18,0.567465,-0.477371,0.56757,0.357721,-10.078899,0.720237,-0.359699,0.049024,-0.09733,0.12466,43.684409,14.7838,1.025422,4.63583E+18,0.60115,0.478715,0.490669,-0.410725,0
-9.805346,1.170464,2.716556,-0.28416,-0.189885,0.01891,45.574578,-4.47071,7.966275,4.63583E+18,0.777622,0.079661,0.62288,-0.031285,-9.958515,-0.526103,0.038578,0.032392,-0.000964,-0.083144,42.890476,-16.980497,7.768649,4.63583E+18,0.567674,-0.477439,0.567493,0.35742,-9.994922,0.832408,-0.290036,0.058692,-0.106575,0.127238,43.529295,14.698351,1.09445,4.63583E+18,0.601431,0.478936,0.490077,-0.410763,0
-9.643056,1.147496,2.824243,-0.356723,-0.201052,0.014518,45.653593,-4.321421,7.701498,4.63583E+18,0.778229,0.078669,0.622294,-0.030358,-10.106952,-0.409912,-0.167387,0.034731,-0.005859,-0.089449,42.774742,-16.980497,7.812738,4.63583E+18,0.567909,-0.477509,0.567397,0.357107,-9.878534,0.887562,-0.234049,0.065414,-0.112284,0.130443,43.54317,14.733699,1.192109,4.63583E+18,0.601715,0.479171,0.489452,-0.410817,0
-9.423323,1.143163,2.893155,-0.428478,-0.167365,0.026021,45.823773,-4.321421,7.873775,4.63583E+18,0.778771,0.077479,0.62182,-0.029196,-10.049443,-0.271711,-0.352049,0.035766,-0.015954,-0.096547,42.908638,-16.886771,7.705621,4.63583E+18,0.568181,-0.477579,0.567262,0.356796,-9.796029,0.796238,-0.167968,0.082391,-0.116998,0.136667,43.671752,14.758751,1.15172,4.63583E+18,0.601986,0.479452,0.488774,-0.410899,0
-9.207924,1.068474,2.885933,-0.502932,-0.106728,0.051157,45.968025,-4.326476,7.851389,4.63583E+18,0.779181,0.076119,0.621541,-0.02774,-9.880903,-0.411518,-0.410721,0.055235,-0.032597,-0.104506,43.01889,-16.675699,7.7714,4.63583E+18,0.568543,-0.477594,0.567102,0.356451,-9.821265,0.696469,-0.086099,0.106773,-0.11479,0.146408,43.775101,14.655226,0.985048,4.63583E+18,0.602219,0.479819,0.488041,-0.411002,0
-9.074426,0.972267,2.768197,-0.570147,-0.034925,0.085586,45.878259,-4.416965,7.4903,4.63583E+18,0.779427,0.074638,0.621489,-0.025976,-9.821446,-0.535945,-0.300073,0.068465,-0.05034,-0.107883,43.01889,-16.612305,7.951742,4.63583E+18,0.568982,-0.477555,0.566917,0.356098,-9.89093,0.636899,-0.173189,0.118066,-0.120772,0.15558,43.791536,14.551872,0.867373,4.63583E+18,0.602457,0.480222,0.487254,-0.411116,0
-9.15201,0.901904,2.71864,-0.601436,0.00383,0.124675,45.733986,-4.587164,7.421448,4.63583E+18,0.779582,0.073161,0.62155,-0.023991,-9.813573,-0.491452,-0.208705,0.051274,-0.05954,-0.111397,43.112596,-16.784765,7.841902,4.63583E+18,0.569412,-0.477554,0.566675,0.355798,-9.783021,0.519065,-0.288742,0.141521,-0.12315,0.164879,43.736199,14.578566,0.902693,4.63583E+18,0.602668,0.480698,0.486402,-0.411259,0
-9.297761,0.885419,2.657611,-0.623057,-0.006105,0.172732,45.814384,-4.740797,7.605933,4.63583E+18,0.779769,0.071737,0.621561,-0.021797,-9.708838,-0.504041,-0.360293,0.040417,-0.071323,-0.114292,43.229954,-16.895046,7.715079,4.63583E+18,0.56985,-0.477572,0.566379,0.355543,-9.591291,0.096562,-0.377772,0.193629,-0.102459,0.172982,43.71471,14.548301,0.936388,4.63583E+18,0.602746,0.481356,0.485496,-0.411445,0
-9.433466,0.993115,2.600177,-0.682992,-0.054416,0.202132,45.804314,-4.805401,7.611665,4.63583E+18,0.780097,0.070189,0.621407,-0.019366,-9.564716,-0.751287,-0.382393,0.081272,-0.084313,-0.110778,43.21619,-16.848199,7.8757,4.63583E+18,0.570398,-0.47746,0.566124,0.355221,-9.827253,0.447874,-0.497726,0.203946,-0.093242,0.172912,43.662958,14.414677,0.80196,4.63583E+18,0.602784,0.482056,0.484595,-0.411633,0
-9.587127,1.072114,2.595861,-0.745008,-0.090169,0.20546,45.639166,-4.750858,7.514726,4.63583E+18,0.780529,0.068444,0.621135,-0.016775,-9.556411,-0.947838,-0.057586,0.141432,-0.086314,-0.104955,43.184277,-16.856438,7.900986,4.63583E+18,0.571061,-0.477188,0.565964,0.354774,-10.578627,1.271544,-0.226641,0.145722,-0.114814,0.163671,43.693214,14.264618,0.546286,4.63583E+18,0.602965,0.482553,0.483757,-0.411769,0
-9.655337,1.235824,2.523337,-0.810608,-0.133459,0.192452,45.579585,-5.00507,7.429994,4.63583E+18,0.781082,0.066449,0.620723,-0.014068,-9.534792,-0.884082,0.213408,0.187228,-0.082042,-0.101371,43.142949,-16.941889,7.71236,4.63583E+18,0.571798,-0.476808,0.565886,0.354223,-10.736684,1.43106,0.161065,0.076806,-0.132206,0.151921,43.826826,14.221624,0.463881,4.63583E+18,0.603299,0.482824,0.483018,-0.411831,0
-9.645997,1.277479,2.480939,-0.917022,-0.165879,0.158595,45.738244,-5.395672,7.349602,4.63583E+18,0.781737,0.064017,0.620213,-0.011205,-9.511917,-0.690766,0.241799,0.227918,-0.079526,-0.098649,43.151178,-16.886823,7.569408,4.63583E+18,0.572603,-0.476331,0.565876,0.35358,-10.754054,0.951813,0.173697,0.039569,-0.1349,0.148473,43.925153,14.27337,0.52425,4.63583E+18,0.603707,0.482989,0.482342,-0.411831,0
-9.684052,1.202802,2.734429,-1.015798,-0.153186,0.112853,45.878318,-5.381345,7.159299,4.63583E+18,0.782371,0.061145,0.619749,-0.008232,-9.801598,-0.438766,0.266566,0.224497,-0.083141,-0.104812,43.270077,-16.675787,7.573284,4.63583E+18,0.573419,-0.475869,0.565841,0.352935,-10.67566,0.432765,0.07392,0.041853,-0.108178,0.143945,43.894914,14.24313,0.557956,4.63583E+18,0.604049,0.483197,0.481739,-0.411793,0
-9.742224,1.106576,2.926196,-1.08956,-0.144761,0.070942,45.723918,-5.156538,7.050865,4.63583E+18,0.782986,0.057923,0.619315,-0.005204,-10.042349,-0.203655,0.050949,0.161661,-0.088276,-0.123381,43.336281,-16.424948,7.61742,4.63583E+18,0.574151,-0.475591,0.565665,0.352402,-10.580912,0.241242,-0.218473,0.067056,-0.079094,0.1481,43.873409,14.057794,0.492559,4.63583E+18,0.604288,0.483526,0.481156,-0.411737,0
-9.752286,1.039774,2.869455,-1.181723,-0.172217,0.043294,45.653491,-5.251274,6.971142,4.63583E+18,0.783677,0.054327,0.618785,-0.002034,-10.045521,-0.236969,-0.386143,0.10156,-0.099675,-0.141713,43.195799,-16.222126,7.61073,4.63583E+18,0.574819,-0.47548,0.565339,0.351986,-10.455932,0.254224,-0.441695,0.08112,-0.05044,0.165699,43.933766,13.929325,0.3949,4.63583E+18,0.604471,0.483975,0.480587,-0.411606,0
-9.721437,1.076396,2.877373,-1.279362,-0.192834,0.035437,45.80938,-5.486128,6.976915,4.63583E+18,0.784424,0.050391,0.618173,0.001356,-10.027797,-0.44883,-0.607193,0.079906,-0.12193,-0.150814,43.126749,-16.103572,7.658724,4.63583E+18,0.575511,-0.475406,0.564912,0.351639,-10.309455,0.25132,-0.384836,0.090859,-0.01978,0.194604,44.010589,13.912854,0.366222,4.63583E+18,0.604622,0.484559,0.480019,-0.41136,0
-9.586442,1.113733,2.812047,-1.384728,-0.183726,0.039579,45.719639,-5.57158,6.874253,4.63583E+18,0.785146,0.04612,0.61757,0.005034,-10.049047,-0.530434,-0.500942,0.063921,-0.144059,-0.163285,43.299222,-16.064943,7.809946,4.63583E+18,0.576244,-0.475364,0.564387,0.35134,-9.999169,0.106209,-0.186625,0.118136,0.017984,0.222875,43.980376,13.907818,0.366222,4.63583E+18,0.60469,0.485332,0.479441,-0.411021,0
-9.439969,1.151856,2.684202,-1.501642,-0.16557,0.059303,45.565242,-5.661302,6.69687,4.63583E+18,0.785816,0.041515,0.616998,0.009079,-9.830124,-0.545,-0.357167,0.043553,-0.163874,-0.166115,43.496548,-15.971227,7.791086,4.63583E+18,0.576988,-0.475347,0.563778,0.351119,-9.879376,0.19539,-0.268635,0.1493,0.06838,0.253351,44.010587,13.800778,0.305874,4.63583E+18,0.604646,0.486331,0.478876,-0.410564,0
-9.298474,1.015434,2.661927,-1.625305,-0.145726,0.086451,45.489777,-5.815718,6.616413,4.63583E+18,0.786424,0.036572,0.616455,0.013535,-9.404068,-0.641861,-0.182346,0.045102,-0.180654,-0.161876,43.528061,-15.940893,7.595778,4.63583E+18,0.577766,-0.475293,0.563137,0.350941,-10.151635,0.627023,-0.407181,0.108304,0.110029,0.276341,44.032104,13.645682,0.211809,4.63583E+18,0.60464,0.487344,0.478437,-0.409883,0
-9.239577,0.849525,2.666288,-1.727597,-0.1011,0.10248,45.57951,-5.896176,6.604999,4.63583E+18,0.786895,0.031331,0.616019,0.018311,-9.45755,-0.661176,0.186617,0.033598,-0.191026,-0.164701,43.448124,-16.026345,7.407153,4.63583E+18,0.578548,-0.475261,0.562445,0.350805,-10.171609,1.298459,-0.379128,-0.056469,0.147099,0.275957,44.032104,13.547329,0.183111,4.63583E+18,0.604893,0.488003,0.478374,-0.408798,0
