Accelerometer-X,Accelerometer-Y,Accelerometer-Z,Gyroscope-X,Gyroscope-Y,Gyroscope-Z,Magnetometer-X,Magnetometer-Y,Magnetometer-Z,Barometer-pressure,Orientation-S,Orientation-X,Orientation-Y,Orientation-Z,Accelerometer-X,Accelerometer-Y,Accelerometer-Z,Gyroscope-X,Gyroscope-Y,Gyroscope-Z,Magnetometer-X,Magnetometer-Y,Magnetometer-Z,Barometer-pressure,Orientation-S,Orientation-X,Orientation-Y,Orientation-Z,Accelerometer-X,Accelerometer-Y,Accelerometer-Z,Gyroscope-X,Gyroscope-Y,Gyroscope-Z,Magnetometer-X,Magnetometer-Y,Magnetometer-Z,Barometer-pressure,Orientation-S,Orientation-X,Orientation-Y,Orientation-Z,jump
-12.299469,1.301807,2.289034,0.427651,-0.56341,0.05932,44.326478,-5.835045,13.974404,4.63583E+18,-0.742724,0.069574,-0.659712,-0.091106,-10.359807,0.447395,-0.748301,0.050408,-0.339332,0.069295,41.315271,-20.013353,10.742515,4.63583E+18,-0.624174,0.280613,-0.662537,-0.304479,-14.904307,0.140501,-1.320066,-0.136161,0.158931,-0.363998,39.065062,24.151245,2.673421,4.63583E+18,-0.450837,-0.490213,-0.523908,0.530997,0
-12.816824,2.234358,1.87785,0.429412,-0.809653,-0.041081,44.607309,-5.889185,13.470826,4.63583E+18,-0.745069,0.068104,-0.657359,-0.09007,-10.589756,0.66611,-0.826213,0.034389,-0.336722,0.055582,41.32206,-20.098785,10.742515,4.63583E+18,-0.625077,0.279953,-0.661766,-0.30491,-13.798831,-4.225162,-1.24546,-0.328946,0.113029,-0.381428,38.906385,24.224481,2.680078,4.63583E+18,-0.450409,-0.488994,-0.525634,0.530778,0
-13.16334,3.20605,2.539437,0.524368,-0.944115,-0.130824,44.771432,-5.755326,12.997653,4.63583E+18,-0.747835,0.066496,-0.654592,-0.08849,-10.709346,0.402748,-0.459359,0.039994,-0.322704,0.052509,41.243416,-20.105593,10.56276,4.63583E+18,-0.625951,0.279305,-0.661033,-0.305301,-12.398318,-3.491064,0.046344,-0.063365,0.136186,-0.268444,38.758507,24.303549,2.777737,4.63583E+18,-0.449638,-0.488571,-0.526583,0.530881,0
-12.458456,3.721379,3.309664,0.548015,-0.762234,-0.202874,44.844678,-5.498759,12.915327,4.63583E+18,-0.750125,0.065069,-0.652369,-0.086561,-10.66192,0.389666,-0.292427,0.055337,-0.289068,0.060204,41.090539,-20.184246,10.277532,4.63583E+18,-0.626739,0.278638,-0.660416,-0.30563,-10.571928,-2.290287,-0.514088,0.164471,0.292526,-0.302213,38.764331,24.457253,2.887876,4.63583E+18,-0.447983,-0.488845,-0.527389,0.531227,0
-11.259934,3.304361,3.296421,0.497219,-0.354229,-0.24991,44.886623,-5.444396,12.969479,4.63583E+18,-0.751301,0.064076,-0.651383,-0.084511,-10.376193,0.300759,-0.145953,0.080205,-0.243993,0.073664,41.077911,-20.112401,10.085697,4.63583E+18,-0.627414,0.277926,-0.659963,-0.305873,-9.269245,-1.849786,-0.823533,0.148669,0.330624,-0.29831,38.843956,24.53688,3.14951,4.63583E+18,-0.446285,-0.48918,-0.528292,0.531451,0
-10.474611,2.118745,2.766853,0.467227,-0.089947,-0.268406,44.850111,-5.420307,12.887797,4.63583E+18,-0.75175,0.063343,-0.651201,-0.082442,-10.071045,0.158178,0.191485,0.049811,-0.194136,0.095412,41.223944,-19.948327,10.071108,4.63583E+18,-0.627888,0.277296,-0.659626,-0.306199,-9.651903,-1.283691,-0.197885,0.139412,0.281962,-0.259437,38.833158,24.53605,3.142865,4.63583E+18,-0.444796,-0.489475,-0.529043,0.531681,0
-10.040164,1.151744,2.074292,0.467558,-0.139975,-0.251076,44.837677,-5.186832,12.680285,4.63583E+18,-0.752325,0.062541,-0.650865,-0.080434,-9.631064,0.090323,0.635362,-0.050309,-0.142951,0.134552,41.326473,-20.159353,9.981242,4.63583E+18,-0.628055,0.276886,-0.659339,-0.306843,-9.574259,-1.488722,0.222059,0.177843,0.31352,-0.273831,38.680278,24.530486,3.058494,4.63583E+18,-0.443127,-0.489877,-0.529795,0.531956,0
-9.543677,0.480684,1.891685,0.472848,-0.301813,-0.18796,44.881408,-5.005035,12.524911,4.63583E+18,-0.753316,0.061491,-0.650037,-0.078645,-9.437754,-0.06058,1.210601,-0.261227,-0.095611,0.193817,41.3455,-20.560767,9.984682,4.63583E+18,-0.627772,0.276926,-0.658975,-0.308167,-9.299766,-1.628135,-0.468852,0.194964,0.347818,-0.293741,38.595461,24.625023,3.162753,4.63583E+18,-0.441301,-0.490341,-0.530611,0.532233,0
-8.943413,0.006993,2.233474,0.489512,-0.371871,-0.110871,44.910917,-4.937246,12.429035,4.63583E+18,-0.75447,0.060167,-0.649009,-0.077082,-9.278101,0.050306,1.437072,-0.408515,-0.065325,0.260591,41.267853,-20.526498,9.895801,4.63583E+18,-0.627148,0.277205,-0.658576,-0.310033,-9.448739,-1.370748,-1.233364,0.13055,0.310939,-0.293668,38.35711,24.834825,3.332413,4.63583E+18,-0.439686,-0.490603,-0.531499,0.532441,0
-8.676032,0.046918,2.366716,0.490436,-0.39163,-0.056068,44.954653,-4.773356,12.319181,4.63583E+18,-0.755654,0.058691,-0.647929,-0.0757,-9.063248,-0.141134,2.092891,-0.385385,-0.082676,0.297418,41.182401,-20.284779,9.786911,4.63583E+18,-0.626549,0.277299,-0.658201,-0.311952,-9.616123,-1.615101,-1.560686,0.155786,0.28487,-0.293831,38.214137,24.908896,3.16089,4.63583E+18,-0.438076,-0.490851,-0.532282,0.532757,0
-8.58729,0.281872,2.08993,0.500614,-0.478616,-0.030976,45.015418,-4.711921,12.136351,4.63583E+18,-0.757064,0.057076,-0.646579,-0.074378,-8.787356,-0.349636,2.092344,-0.442346,-0.063745,0.343392,41.02956,-20.578778,9.699508,4.63583E+18,-0.625768,0.27744,-0.657851,-0.314123,-9.572257,-1.995404,-1.335832,0.256355,0.310414,-0.310197,38.283244,24.993511,3.181733,4.63583E+18,-0.436165,-0.491301,-0.53292,0.533272,0
-8.428593,0.768113,1.685167,0.52002,-0.620511,-0.040098,45.174115,-4.797373,11.897279,4.63583E+18,-0.758856,0.055373,-0.644781,-0.072999,-8.529077,-0.31007,2.098696,-0.452467,-0.044265,0.379576,40.882112,-20.987931,9.692678,4.63583E+18,-0.624872,0.277531,-0.657577,-0.316392,-9.604108,-1.902702,-0.890128,0.253174,0.317786,-0.31487,38.283883,25.072539,3.632209,4.63583E+18,-0.434232,-0.491749,-0.533586,0.533771,0
-8.363717,1.298516,1.562275,0.515951,-0.732342,-0.077423,45.228566,-4.742094,11.662045,4.63583E+18,-0.760949,0.05375,-0.642611,-0.071541,-8.407487,-0.844239,2.144595,-0.316306,-0.01816,0.419738,40.870388,-21.245755,9.614066,4.63583E+18,-0.624005,0.277191,-0.657594,-0.31836,-9.734257,-1.884071,-0.698942,0.206032,0.293636,-0.295644,38.130146,25.236192,3.71004,4.63583E+18,-0.43249,-0.492099,-0.534271,0.534177,0
-8.310085,1.659798,1.628933,0.47847,-0.818323,-0.120665,45.111841,-4.466672,11.40377,4.63583E+18,-0.763268,0.052322,-0.640139,-0.070048,-8.33132,-0.801309,2.036214,-0.230732,0.013454,0.4672,40.881617,-21.343899,9.517395,4.63583E+18,-0.623085,0.276539,-0.657858,-0.32018,-9.795122,-1.931905,-0.572098,0.158129,0.262476,-0.277574,38.055425,25.468107,3.533713,4.63583E+18,-0.430955,-0.492331,-0.534968,0.534507,0
-8.201592,1.926578,1.743331,0.418965,-0.864815,-0.158147,45.052177,-4.284799,11.208452,4.63583E+18,-0.765696,0.051168,-0.637484,-0.068603,-8.123306,-0.535187,1.768135,-0.207606,0.039606,0.508393,40.882595,-21.42936,9.509567,4.63583E+18,-0.622061,0.275747,-0.658265,-0.322011,-9.682781,-1.793499,-0.553457,0.123833,0.257626,-0.275654,38.118773,25.689324,3.638959,4.63583E+18,-0.429503,-0.492494,-0.535726,0.534765,0
-8.116573,2.155209,1.968818,0.360211,-0.805211,-0.201686,45.193157,-4.284799,10.971465,4.63583E+18,-0.767954,0.050334,-0.634983,-0.067161,-7.847419,-0.546402,1.161684,-0.19043,0.071137,0.536209,40.803982,-21.582194,9.689252,4.63583E+18,-0.62093,0.274876,-0.658805,-0.32383,-9.547014,-1.628695,-0.607896,0.045166,0.243942,-0.276795,38.02986,25.751849,3.999243,4.63583E+18,-0.42824,-0.492482,-0.536637,0.534877,0
-7.926332,2.438931,1.953337,0.318504,-0.745477,-0.223972,45.393817,-4.253539,10.636833,4.63583E+18,-0.770039,0.049732,-0.632646,-0.065774,-7.678987,-0.526878,0.639315,-0.193974,0.107104,0.551118,40.662412,-21.830676,9.536472,4.63583E+18,-0.619672,0.27402,-0.659446,-0.325654,-9.550987,-1.887492,-0.572925,-0.008965,0.219678,-0.276842,37.744469,25.682872,4.095101,4.63583E+18,-0.427141,-0.492318,-0.537623,0.534916,0
-7.896258,2.781209,1.925198,0.282993,-0.681046,-0.254142,45.484783,-4.143813,10.329542,4.63583E+18,-0.771946,0.049338,-0.630493,-0.064366,-7.632567,-0.446327,0.092932,-0.230751,0.143421,0.554197,40.504699,-21.929844,9.431956,4.63583E+18,-0.618264,0.273298,-0.660131,-0.327543,-9.44606,-2.162357,-0.560717,0.002233,0.21441,-0.248002,37.733082,25.830866,4.004028,4.63583E+18,-0.426094,-0.492226,-0.538515,0.534938,0
-8.089451,3.007751,1.906304,0.230974,-0.60024,-0.292161,45.583753,-3.948679,10.087373,4.63583E+18,-0.773634,0.049229,-0.628573,-0.062953,-7.899083,-0.304738,-0.3329,-0.289921,0.167949,0.556334,40.188819,-21.936705,9.592526,4.63583E+18,-0.616714,0.272754,-0.660797,-0.329571,-9.416024,-2.171954,-0.550156,0.034985,0.210137,-0.220386,37.723203,25.820164,3.998266,4.63583E+18,-0.425051,-0.492243,-0.539269,0.534993,0
-8.316476,3.18775,1.739189,0.170132,-0.569637,-0.324184,45.784409,-3.741026,9.787457,4.63583E+18,-0.775232,0.049402,-0.626724,-0.061581,-8.349193,-0.31543,-0.714228,-0.344905,0.181623,0.551594,40.083774,-22.172451,9.697034,4.63583E+18,-0.615066,0.272381,-0.661411,-0.331719,-9.471302,-1.987341,-0.573868,0.06146,0.205146,-0.20949,37.580019,25.682031,3.912002,4.63583E+18,-0.423988,-0.49232,-0.539931,0.535098,0
-8.464592,3.175891,1.68769,0.102066,-0.554885,-0.361414,45.870215,-3.618771,9.536121,4.63583E+18,-0.77678,0.049896,-0.624893,-0.060264,-8.678394,-0.261256,-1.306013,-0.333566,0.195424,0.544288,40.02077,-22.574785,9.536477,4.63583E+18,-0.613398,0.272016,-0.662063,-0.3338,-9.459214,-1.952363,-0.77095,0.072306,0.18976,-0.195604,37.499621,25.829343,3.82667,4.63583E+18,-0.422967,-0.492412,-0.540513,0.535233,0
-8.616457,3.050408,1.848349,0.028554,-0.527868,-0.383009,45.863213,-3.540323,9.424115,4.63583E+18,-0.778244,0.050679,-0.623122,-0.059048,-9.366292,0.799016,-1.197839,-0.25262,0.181803,0.538775,40.027096,-22.832658,9.443183,4.63583E+18,-0.611862,0.271439,-0.662782,-0.335656,-9.617087,-1.950016,-1.158297,0.119777,0.170051,-0.183372,37.642702,25.972424,3.912943,4.63583E+18,-0.421921,-0.49257,-0.540929,0.535494,0
-8.814793,2.752996,1.992839,-0.057483,-0.488275,-0.375565,45.930878,-3.491317,9.424115,4.63583E+18,-0.779579,0.051731,-0.621456,-0.058071,-10.030247,2.608513,-0.679008,-0.156298,0.167749,0.540311,39.949502,-22.930832,9.52612,4.63583E+18,-0.610469,0.27059,-0.663598,-0.337264,-9.759458,-2.071977,-1.487761,0.227246,0.171676,-0.194053,37.568644,25.914775,4.004028,4.63583E+18,-0.420625,-0.492896,-0.541128,0.536011,0
-9.236313,2.247261,2.158731,-0.14038,-0.444853,-0.348611,46.089584,-3.355972,9.252331,4.63583E+18,-0.780773,0.052993,-0.619913,-0.057386,-10.262905,3.387441,-0.410296,-0.079723,0.164667,0.544411,40.021195,-23.173424,9.623778,4.63583E+18,-0.60916,0.269529,-0.664514,-0.338672,-9.84573,-2.010842,-1.629229,0.251069,0.150376,-0.205452,37.478272,26.083314,3.997465,4.63583E+18,-0.419302,-0.49319,-0.541259,0.536645,0
-9.782219,1.625259,2.299825,-0.19495,-0.420303,-0.304677,46.14417,-3.106258,8.896347,4.63583E+18,-0.781874,0.054343,-0.618441,-0.057004,-10.525571,2.769022,-0.132475,0.00094,0.177263,0.513327,39.893384,-23.418556,9.631641,4.63583E+18,-0.607948,0.268367,-0.665537,-0.339763,-9.936006,-1.796129,-1.538133,0.225907,0.116922,-0.228035,37.319575,26.362249,3.907189,4.63583E+18,-0.418055,-0.493312,-0.541433,0.537329,0
-10.286275,0.913504,2.451695,-0.201931,-0.398296,-0.249486,46.095154,-3.015229,8.686661,4.63583E+18,-0.782902,0.05556,-0.617051,-0.05679,-10.861405,2.092848,0.271672,0.042825,0.189182,0.465407,39.657153,-23.595318,9.553089,4.63583E+18,-0.606767,0.267338,-0.666557,-0.340684,-9.917249,-1.822179,-1.52503,0.284454,0.109166,-0.26834,37.171543,26.282539,3.925128,4.63583E+18,-0.416614,-0.493427,-0.541544,0.538231,0
-10.715552,0.361955,2.566775,-0.16629,-0.39914,-0.185078,46.05872,-3.082893,8.55256,4.63583E+18,-0.783921,0.056512,-0.615677,-0.056716,-11.169575,2.195756,0.451082,0.012542,0.202896,0.421178,39.412983,-23.687679,9.624749,4.63583E+18,-0.605589,0.2665,-0.667527,-0.341536,-9.827855,-1.848079,-1.304326,0.379772,0.110436,-0.31911,37.176457,26.308744,4.015417,4.63583E+18,-0.414859,-0.493594,-0.541546,0.53943,0
-10.977663,-0.056652,2.740873,-0.103782,-0.409713,-0.120855,45.973278,-3.210351,8.369467,4.63583E+18,-0.784963,0.05709,-0.614296,-0.056692,-11.171746,2.49008,0.38533,-0.034572,0.217763,0.372479,39.168859,-23.773121,9.90096,4.63583E+18,-0.604417,0.265872,-0.668437,-0.34232,-10.01089,-1.570661,-0.762516,0.39782,0.084156,-0.361614,37.239057,26.678089,3.991746,4.63583E+18,-0.413028,-0.493635,-0.541546,0.540796,0
-10.974863,-0.384823,2.891352,-0.027652,-0.395444,-0.051292,45.887832,-3.191742,8.222791,4.63583E+18,-0.785968,0.057252,-0.612994,-0.056706,-10.91168,2.40251,0.569195,-0.088529,0.215043,0.334145,39.070592,-23.858571,10.104162,4.63583E+18,-0.603246,0.265482,-0.669219,-0.343159,-10.014103,-1.539876,-0.672225,0.324765,0.049626,-0.384247,37.147892,26.741515,3.808656,4.63583E+18,-0.411372,-0.493418,-0.541696,0.542104,0
-10.77793,-0.504104,2.775275,0.040311,-0.398911,0.015884,45.906443,-2.996611,8.119921,4.63583E+18,-0.786981,0.056997,-0.611713,-0.056739,-10.48503,2.022342,0.709392,-0.176389,0.209788,0.28105,39.22079,-23.944024,9.850621,4.63583E+18,-0.602067,0.265453,-0.669802,-0.344115,-9.899386,-1.914164,-0.690154,0.24658,0.024772,-0.378472,36.988434,26.688707,3.643528,4.63583E+18,-0.409945,-0.493023,-0.541965,0.543275,0
-10.462777,-0.273201,2.558559,0.086132,-0.459736,0.06568,46.065124,-2.825319,7.932032,4.63583E+18,-0.788146,0.056449,-0.610253,-0.056832,-9.933349,1.989807,0.428478,-0.232815,0.211321,0.239339,39.234592,-24.029476,9.82696,4.63583E+18,-0.600832,0.265774,-0.670224,-0.345203,-9.879823,-2.05493,-0.783726,0.180284,-0.003996,-0.351769,36.977808,26.920647,3.723258,4.63583E+18,-0.408778,-0.492507,-0.542279,0.544308,0
-9.988772,0.244426,2.455713,0.107112,-0.507945,0.091526,46.156193,-2.783288,7.602691,4.63583E+18,-0.789429,0.055759,-0.608643,-0.056973,-9.641153,2.113228,0.032579,-0.244001,0.217384,0.203662,39.156054,-24.036377,10.006482,4.63583E+18,-0.599664,0.26614,-0.670639,-0.346143,-9.757763,-2.115145,-0.821976,0.112855,-0.03155,-0.324854,36.819127,27.137058,3.717546,4.63583E+18,-0.407871,-0.491874,-0.542642,0.545198,0
-9.524454,0.802573,2.377049,0.09712,-0.509545,0.098725,46.119788,-2.887299,7.349075,4.63583E+18,-0.790708,0.055088,-0.607024,-0.05717,-9.473591,2.056776,-0.291686,-0.238716,0.213976,0.160565,39.149143,-24.036377,10.112027,4.63583E+18,-0.598573,0.266607,-0.671005,-0.346964,-9.637321,-2.16479,-0.879749,0.043497,-0.055832,-0.294946,36.675936,27.131346,3.624751,4.63583E+18,-0.407229,-0.491134,-0.543059,0.545929,0
-9.106226,1.303294,2.55365,0.060247,-0.452271,0.094332,46.07074,-3.131447,7.346832,4.63583E+18,-0.79183,0.054569,-0.605581,-0.057439,-9.303659,1.983524,-0.407152,-0.209726,0.205776,0.12462,39.238903,-24.260775,10.119937,4.63583E+18,-0.597587,0.26709,-0.67135,-0.347623,-9.54211,-2.232354,-0.896036,-0.022936,-0.076341,-0.265181,36.744286,27.057316,3.449015,4.63583E+18,-0.406836,-0.490302,-0.543531,0.546501,0
-8.737553,1.708146,2.79911,0.00793,-0.3166,0.082583,46.138339,-3.271584,7.326695,4.63583E+18,-0.792599,0.05428,-0.604569,-0.057765,-9.32349,1.820538,-0.51602,-0.160102,0.19625,0.089375,39.100958,-24.516117,10.220906,4.63583E+18,-0.596733,0.267534,-0.671704,-0.348065,-9.477007,-2.385331,-0.968457,-0.062026,-0.099267,-0.236984,36.738584,27.141945,3.546663,4.63583E+18,-0.406639,-0.489414,-0.543994,0.546982,0
-8.65482,1.945948,2.563117,-0.035031,-0.227179,0.070834,46.265829,-3.203996,7.209376,4.63583E+18,-0.793135,0.054182,-0.603838,-0.058138,-9.360112,1.683292,-0.681978,-0.118648,0.190563,0.067869,39.009577,-24.37982,10.308334,4.63583E+18,-0.595972,0.267927,-0.672079,-0.348343,-9.363893,-2.440656,-1.01972,-0.096564,-0.11472,-0.203018,36.653945,27.215189,3.637806,4.63583E+18,-0.406624,-0.488508,-0.54444,0.547358,0
-8.719474,1.965625,2.261991,-0.060052,-0.257123,0.067728,46.314888,-3.180468,7.285543,4.63583E+18,-0.79374,0.054175,-0.603001,-0.05858,-9.430382,1.616328,-0.684605,-0.089841,0.177371,0.042669,38.924133,-24.220153,10.315256,4.63583E+18,-0.595316,0.268299,-0.672434,-0.348493,-9.3761,-2.251855,-0.942413,-0.149257,-0.136724,-0.172826,36.590473,27.289247,3.631292,4.63583E+18,-0.406834,-0.487532,-0.544907,0.547608,0
-8.698919,1.823005,2.301524,-0.082502,-0.278849,0.078546,46.351272,-3.307967,7.319722,4.63583E+18,-0.79439,0.054216,-0.602087,-0.059128,-9.481191,1.532858,-0.593878,-0.087588,0.161522,0.019978,38.849898,-24.431623,10.225519,4.63583E+18,-0.594739,0.268706,-0.672728,-0.348598,-9.385058,-2.182623,-0.982273,-0.172265,-0.152316,-0.153532,36.648282,27.368186,3.533654,4.63583E+18,-0.40717,-0.486523,-0.54536,0.547804,0
-8.658434,1.566888,2.434232,-0.10248,-0.249141,0.09698,46.462712,-3.393419,7.011868,4.63583E+18,-0.794955,0.054289,-0.60127,-0.059786,-9.473935,1.54836,-0.619607,-0.096422,0.157278,-0.00049,38.832739,-24.451429,10.307334,4.63583E+18,-0.594194,0.269186,-0.672974,-0.348681,-9.349248,-2.498426,-1.053928,-0.129039,-0.162,-0.132527,36.488775,27.362472,3.436807,4.63583E+18,-0.407488,-0.485613,-0.545655,0.548081,0
-8.75223,1.272098,2.453927,-0.123091,-0.215078,0.122002,46.47926,-3.411302,6.696906,4.63583E+18,-0.795422,0.054374,-0.600565,-0.060569,-9.450514,1.673714,-0.633793,-0.08935,0.156036,-0.014894,38.91026,-24.305624,10.404982,4.63583E+18,-0.59368,0.269686,-0.673212,-0.34871,-9.328891,-2.606704,-0.929421,-0.0945,-0.172114,-0.101977,36.334912,27.442242,3.357036,4.63583E+18,-0.407829,-0.484808,-0.545792,0.548405,0
-8.959505,0.944569,2.337297,-0.133973,-0.210657,0.149456,46.351754,-3.332864,6.640827,4.63583E+18,-0.795868,0.054424,-0.599878,-0.061464,-9.504608,1.538818,-0.46655,-0.073936,0.162819,-0.025836,38.984497,-24.281517,10.412915,4.63583E+18,-0.593181,0.270189,-0.673476,-0.34866,-9.364698,-2.523692,-0.775603,-0.070432,-0.17425,-0.077696,36.425216,27.442242,3.356226,4.63583E+18,-0.40818,-0.484093,-0.54582,0.548747,0
-9.189861,0.642294,2.251358,-0.134132,-0.217195,0.169814,46.302681,-3.283792,6.599258,4.63583E+18,-0.796325,0.05442,-0.599173,-0.062427,-9.62171,1.312854,-0.339531,-0.050065,0.170295,-0.033572,38.923161,-24.437526,10.233487,4.63583E+18,-0.592698,0.270665,-0.673784,-0.348517,-9.389923,-2.473242,-0.698252,-0.053838,-0.176599,-0.057047,36.562848,27.447102,3.344829,4.63583E+18,-0.408551,-0.483448,-0.545765,0.549095,0
-9.38517,0.412433,2.299934,-0.139883,-0.189332,0.180018,46.302681,-3.356529,6.506799,4.63583E+18,-0.796708,0.054397,-0.598562,-0.063405,-9.687712,1.181843,-0.295957,-0.018629,0.171885,-0.037124,38.995702,-24.294431,10.127883,4.63583E+18,-0.592298,0.270987,-0.674174,-0.348195,-9.428165,-2.398378,-0.730824,-0.045784,-0.18201,-0.031979,36.404154,27.520348,3.345639,4.63583E+18,-0.408975,-0.48286,-0.545631,0.549429,0
-9.533727,0.129851,2.366419,-0.147563,-0.165722,0.199813,46.235142,-3.522234,6.421349,4.63583E+18,-0.797024,0.054357,-0.598032,-0.064463,-9.692678,1.194336,-0.225701,0.014393,0.180802,-0.033461,38.924164,-24.213249,10.299343,4.63583E+18,-0.591824,0.271381,-0.674575,-0.347914,-9.482726,-2.299921,-0.703177,-0.05988,-0.188489,-0.015032,36.260841,27.573367,3.350567,4.63583E+18,-0.40948,-0.482272,-0.545484,0.549716,0
-9.634767,-0.034806,2.385639,-0.136789,-0.155403,0.21122,46.143986,-3.582218,6.3307,4.63583E+18,-0.797312,0.054267,-0.597539,-0.065545,-9.771176,1.20754,-0.298232,0.072039,0.186491,-0.050775,38.917202,-24.285779,10.494681,4.63583E+18,-0.591458,0.271627,-0.67508,-0.347365,-9.447722,-2.197333,-0.63155,-0.075272,-0.195896,-0.000078,36.339744,27.356791,3.265037,4.63583E+18,-0.410067,-0.481675,-0.545329,0.549956,0
-9.741249,-0.100777,2.40304,-0.116633,-0.147677,0.205539,46.175153,-3.540147,6.233048,4.63583E+18,-0.797587,0.054114,-0.597076,-0.06654,-9.811773,1.556172,-0.316399,0.094569,0.190851,-0.056264,38.838702,-24.438517,10.600288,4.63583E+18,-0.591112,0.27184,-0.675622,-0.346735,-9.435515,-2.203801,-0.585955,-0.068779,-0.202517,0.015018,36.48793,27.372962,3.33836,4.63583E+18,-0.41069,-0.481107,-0.545117,0.550198,0
-9.753979,-0.139739,2.489783,-0.094544,-0.151541,0.208879,46.253587,-3.571312,6.218499,4.63583E+18,-0.797873,0.053888,-0.596606,-0.067505,-9.803542,1.687854,-0.272552,0.066707,0.191198,-0.06544,38.75328,-24.384169,10.686705,4.63583E+18,-0.590746,0.272146,-0.676113,-0.34616,-9.42573,-2.299028,-0.582727,-0.091278,-0.211635,0.031894,36.497616,27.596096,3.228604,4.63583E+18,-0.411417,-0.480517,-0.544907,0.550378,0
-9.689298,-0.087268,2.603557,-0.063427,-0.135288,0.21438,46.198766,-3.722502,6.201865,4.63583E+18,-0.798122,0.053555,-0.596198,-0.068414,-9.847389,1.416551,-0.324618,0.042507,0.191198,-0.087807,38.667821,-24.221229,10.783374,4.63583E+18,-0.590385,0.272575,-0.676543,-0.345598,-9.449337,-2.360065,-0.537933,-0.114142,-0.21363,0.046204,36.634418,27.522044,2.953484,4.63583E+18,-0.412227,-0.479916,-0.544717,0.550485,0
-9.631874,-0.036855,2.645386,-0.020141,-0.108399,0.222292,46.058533,-3.937327,6.067312,4.63583E+18,-0.798313,0.053051,-0.595895,-0.069217,-9.851375,1.414064,-0.31839,0.022934,0.182371,-0.085801,38.739317,-24.207281,10.791345,4.63583E+18,-0.590023,0.273034,-0.676925,-0.345105,-9.463159,-2.414644,-0.550948,-0.127675,-0.213912,0.066711,36.618275,27.447085,2.778345,4.63583E+18,-0.413112,-0.479336,-0.544516,0.550525,0
-9.567219,0.048591,2.704607,0.024939,-0.062933,0.219192,46.162485,-4.064826,6.054633,4.63583E+18,-0.798401,0.052418,-0.595755,-0.069888,-9.885,1.270349,-0.328601,0.00371,0.16099,-0.094278,38.7463,-24.442658,10.881012,4.63583E+18,-0.589711,0.273533,-0.677217,-0.344671,-9.501396,-2.382865,-0.572941,-0.13629,-0.21762,0.090351,36.386235,27.510645,2.893053,4.63583E+18,-0.414075,-0.478787,-0.54428,0.550513,0
-9.650142,0.082066,2.741468,0.048183,0.020044,0.201901,46.339065,-4.077511,6.145283,4.63583E+18,-0.798293,0.051775,-0.595893,-0.070425,-9.831948,1.201314,-0.34081,0.001155,0.151307,-0.105854,38.7463,-24.463636,11.068358,4.63583E+18,-0.58944,0.274056,-0.677468,-0.344225,-9.551145,-2.424317,-0.559123,-0.14555,-0.213207,0.116125,36.339706,27.426933,3.058418,4.63583E+18,-0.415106,-0.478289,-0.544021,0.550425,0
-9.556444,0.087025,2.479774,0.070552,-0.007113,0.216254,46.320564,-4.096012,6.242942,4.63583E+18,-0.798251,0.051022,-0.59595,-0.070969,-9.79333,1.46536,-0.554793,0.027551,0.157475,-0.116623,38.735087,-24.228231,11.162791,4.63583E+18,-0.589196,0.274554,-0.677759,-0.343672,-9.444502,-2.532573,-0.523307,-0.150387,-0.206516,0.14432,36.503239,27.215942,2.971355,4.63583E+18,-0.416195,-0.477861,-0.543728,0.550263,0
-9.350155,0.148062,2.437758,0.099888,-0.046369,0.220026,46.161866,-4.291092,6.309415,4.63583E+18,-0.79831,0.050156,-0.595884,-0.071471,-9.846373,1.65741,-0.52892,0.061288,0.150241,-0.128283,38.81254,-23.983139,11.080117,4.63583E+18,-0.589028,0.274991,-0.678067,-0.343002,-9.387493,-2.620441,-0.491642,-0.16546,-0.195482,0.1785,36.724702,27.31106,2.874379,4.63583E+18,-0.417367,-0.47751,-0.54342,0.549986,0
-9.414198,0.177913,2.802744,0.11261,0.029695,0.200294,46.138309,-4.467671,6.281854,4.63583E+18,-0.798187,0.049322,-0.596071,-0.071862,-9.716892,1.537932,-0.41285,0.069972,0.14856,-0.141994,38.741093,-23.884686,11.072115,4.63583E+18,-0.588894,0.275443,-0.678367,-0.342277,-9.394731,-2.766629,-0.350941,-0.209498,-0.179884,0.213099,36.803569,27.512414,2.954192,4.63583E+18,-0.41867,-0.477194,-0.54317,0.549516,0
-9.172132,0.155314,2.705095,0.116861,-0.019782,0.221655,46.296989,-4.480365,6.184205,4.63583E+18,-0.798182,0.048398,-0.596098,-0.072314,-9.559179,1.357803,-0.380428,0.066575,0.137685,-0.148035,38.734089,-24.034595,11.251446,4.63583E+18,-0.588794,0.275904,-0.678628,-0.341558,-9.49736,-3.23884,-0.135086,-0.207623,-0.170481,0.255167,36.952613,27.275647,2.948562,4.63583E+18,-0.420043,-0.476998,-0.542847,0.548957,0
-9.10075,0.212202,2.804848,0.093588,0.015932,0.206652,46.356965,-4.431287,6.164479,4.63583E+18,-0.798089,0.047591,-0.596235,-0.072755,-9.534983,1.3204,-0.37843,0.095643,0.133781,-0.154356,38.958228,-24.115825,11.357089,4.63583E+18,-0.588748,0.276306,-0.678913,-0.340745,-9.506206,-3.452428,-0.168201,-0.153238,-0.165409,0.318046,36.959191,26.974485,2.875173,4.63583E+18,-0.421439,-0.47705,-0.542282,0.5484,0
-9.25659,0.229072,2.911322,0.035996,0.091903,0.185292,46.247349,-4.467655,6.301889,4.63583E+18,-0.797801,0.047052,-0.596602,-0.073253,-9.410706,1.396847,-0.333602,0.112979,0.144305,-0.157823,39.04548,-23.897693,11.365092,4.63583E+18,-0.588696,0.27669,-0.679244,-0.339863,-9.647697,-3.277675,-0.474483,-0.159309,-0.179224,0.378011,36.896393,26.74642,2.966399,4.63583E+18,-0.423015,-0.477193,-0.541587,0.547749,0
-9.158129,0.182604,2.765885,-0.004934,0.018561,0.201606,46.187365,-4.584281,6.421094,4.63583E+18,-0.797682,0.046583,-0.596716,-0.073918,-9.466942,1.269369,-0.318393,0.093699,0.133501,-0.157105,38.894589,-23.653545,11.44354,4.63583E+18,-0.588651,0.277104,-0.679521,-0.339049,-9.874184,-3.732726,-0.438026,-0.139242,-0.193236,0.426414,36.98104,26.741603,2.954357,4.63583E+18,-0.424691,-0.477447,-0.540723,0.547084,0
-9.137113,0.296354,2.888741,-0.055476,0.033272,0.170926,46.265798,-4.748161,6.343174,4.63583E+18,-0.797524,0.046378,-0.596855,-0.074623,-9.495356,1.078075,-0.283776,0.063427,0.136372,-0.147213,38.891786,-23.779204,11.450544,4.63583E+18,-0.588548,0.277568,-0.679774,-0.338342,-9.856191,-4.039848,-0.25378,-0.03136,-0.226389,0.49632,37.049469,26.657925,2.776866,4.63583E+18,-0.426384,-0.477971,-0.539412,0.546603,0
-9.310874,0.384916,2.819937,-0.12038,0.026759,0.152789,46.278529,-4.913862,6.160072,4.63583E+18,-0.797375,0.046426,-0.59695,-0.075423,-9.51977,1.07325,-0.28077,0.018724,0.145547,-0.141434,39.038457,-23.792229,11.461749,4.63583E+18,-0.588359,0.278137,-0.679992,-0.337764,-9.944652,-3.990781,-0.404259,0.07588,-0.287806,0.585787,37.059886,26.431619,2.679218,4.63583E+18,-0.428203,-0.478745,-0.537567,0.546322,0
-9.383312,0.502055,2.563016,-0.193937,-0.093112,0.149865,46.193083,-4.937523,6.054872,4.63583E+18,-0.79751,0.046692,-0.596621,-0.076425,-9.577801,1.085457,-0.314386,0.000247,0.141434,-0.137074,39.197152,-23.556916,11.451546,4.63583E+18,-0.588153,0.278734,-0.680178,-0.337255,-10.238619,-3.395397,-0.582938,0.170574,-0.306257,0.639367,37.223389,26.284329,2.581559,4.63583E+18,-0.429993,-0.479761,-0.535362,0.546189,0
-9.556306,0.485193,2.656021,-0.277825,-0.118488,0.130833,46.180337,-4.846339,6.091225,4.63583E+18,-0.797696,0.047279,-0.596177,-0.077581,-9.683636,1.13127,-0.351001,-0.014791,0.142956,-0.129861,39.053342,-23.547076,11.450544,4.63583E+18,-0.587915,0.279349,-0.680356,-0.336803,-10.348862,-2.545739,-0.346993,0.212825,-0.252429,0.664371,37.45613,26.126436,2.477491,4.63583E+18,-0.431631,-0.481027,-0.533102,0.545994,0
-9.5727,0.446207,2.529576,-0.359471,-0.199297,0.160581,46.29694,-4.950191,6.103975,4.63583E+18,-0.798054,0.048041,-0.595442,-0.079061,-9.7935,1.056871,-0.600469,-0.027785,0.148033,-0.130226,38.97206,-23.54808,11.540164,4.63583E+18,-0.587648,0.280003,-0.680526,-0.336381,-10.126546,-2.458697,-0.068445,0.232068,-0.196189,0.680952,37.689053,25.974364,2.289393,4.63583E+18,-0.43314,-0.482487,-0.530862,0.545694,0
-9.4317,0.374091,2.446103,-0.421304,-0.218016,0.180198,46.351795,-5.126825,5.935476,4.63583E+18,-0.798437,0.048956,-0.594625,-0.080764,-9.914583,1.105856,-0.947488,-0.001391,0.143571,-0.128353,39.033254,-23.391229,11.548203,4.63583E+18,-0.587421,0.280581,-0.680724,-0.335894,-10.046693,-2.328034,-0.0016,0.235431,-0.189519,0.703769,37.763099,25.742424,2.20954,4.63583E+18,-0.434675,-0.484014,-0.528575,0.545341,0
-9.186318,0.219733,2.76934,-0.399665,-0.125194,0.175387,46.235207,-5.144797,5.732579,4.63583E+18,-0.798594,0.049822,-0.594123,-0.082354,-10.047847,1.290115,-1.088618,0.045178,0.13431,-0.129158,39.106489,-23.377178,11.637824,4.63583E+18,-0.587276,0.281034,-0.680964,-0.335284,-10.027499,-1.924771,-0.030013,0.225888,-0.163953,0.698904,37.853346,25.516083,2.196744,4.63583E+18,-0.436157,-0.485566,-0.52636,0.544919,0
-9.038384,0.105533,3.084822,-0.38048,-0.005631,0.171013,46.180321,-5.13384,5.842552,4.63583E+18,-0.798459,0.050676,-0.594023,-0.083855,-10.0589,1.070941,-1.121071,0.065798,0.118815,-0.123365,39.045306,-23.534011,11.735482,4.63583E+18,-0.58719,0.281399,-0.681201,-0.334647,-9.757707,-1.857353,-0.101883,0.217902,-0.140856,0.656372,38.012027,25.368813,2.002245,4.63583E+18,-0.437505,-0.487059,-0.524287,0.544505,0
-9.286588,-0.303196,2.832566,-0.382496,0.073677,0.18474,46.265774,-5.279762,6.1138,4.63583E+18,-0.79812,0.051528,-0.594187,-0.085387,-9.980493,0.758608,-1.201489,0.081015,0.110636,-0.112056,39.117685,-23.469673,11.653913,4.63583E+18,-0.587183,0.281572,-0.681497,-0.333909,-9.817149,-1.667505,0.040161,0.219789,-0.13844,0.631595,38.176317,25.206119,1.836701,4.63583E+18,-0.438783,-0.488502,-0.52226,0.544132,0
-9.707069,-0.68332,2.339515,-0.348959,0.059357,0.183345,46.314888,-5.492742,6.057583,4.63583E+18,-0.797815,0.052318,-0.594308,-0.086904,-9.861439,0.833253,-1.219734,0.094008,0.102179,-0.097366,39.046321,-23.305815,11.72427,4.63583E+18,-0.587136,0.28178,-0.681758,-0.333283,-9.830505,-1.002812,0.439467,0.245478,-0.130203,0.602128,38.420545,24.98551,1.922984,4.63583E+18,-0.439921,-0.489943,-0.520246,0.543847,0
-9.841587,-0.924454,2.268157,-0.304149,0.037359,0.168927,46.247425,-5.518338,5.890986,4.63583E+18,-0.797583,0.052939,-0.594373,-0.0882,-9.80657,0.887115,-1.22074,0.087224,0.097554,-0.082412,39.028075,-23.291725,11.91053,4.63583E+18,-0.587077,0.281945,-0.68202,-0.33271,-9.505135,0.041856,0.434659,0.224711,-0.095886,0.547535,38.659057,24.758404,2.007811,4.63583E+18,-0.440901,-0.491302,-0.518449,0.543543,0
-9.615141,-1.215252,2.468658,-0.245295,0.071625,0.167245,46.119869,-5.420087,5.925481,4.63583E+18,-0.797277,0.053396,-0.59457,-0.089359,-9.880942,0.835142,-1.097544,0.109059,0.089362,-0.075299,39.027069,-23.291725,11.926633,4.63583E+18,-0.587058,0.282026,-0.6823,-0.332102,-9.075284,0.482312,0.350997,0.181775,-0.06013,0.475548,38.806534,24.605317,1.898132,4.63583E+18,-0.441726,-0.492505,-0.51696,0.543203,0
-9.4763,-1.231426,2.58797,-0.184526,0.170708,0.161638,46.07074,-5.523834,5.950503,4.63583E+18,-0.79674,0.053697,-0.595117,-0.090321,-9.820816,0.796513,-0.851325,0.164972,0.084737,-0.058115,39.172627,-23.146167,11.837058,4.63583E+18,-0.587054,0.281994,-0.682632,-0.331451,-8.792724,0.770291,0.113449,0.134092,-0.033199,0.396943,38.795929,24.51685,1.623774,4.63583E+18,-0.442411,-0.493509,-0.515788,0.542848,0
-9.455861,-1.165201,2.453098,-0.130211,0.244046,0.148981,46.075927,-5.731671,5.991381,4.63583E+18,-0.796038,0.053868,-0.595925,-0.091076,-9.72518,0.659122,-0.751727,0.200206,0.081445,-0.041916,39.264142,-23.054653,12.008119,4.63583E+18,-0.587087,0.281807,-0.683032,-0.330728,-8.654459,1.155285,-0.206307,0.059576,-0.018807,0.308595,38.802536,24.226096,1.464679,4.63583E+18,-0.443018,-0.494218,-0.514992,0.542464,0
-9.353014,-1.117894,2.229078,-0.082837,0.242869,0.134641,46.114072,-5.822931,6.223011,4.63583E+18,-0.795353,0.053924,-0.596742,-0.091677,-9.717093,0.602206,-0.531916,0.138288,0.066484,-0.015117,39.19284,-23.125954,12.113865,4.63583E+18,-0.587082,0.281613,-0.683366,-0.330211,-8.457541,1.434875,-0.549924,-0.041898,-0.013028,0.209747,38.72929,24.151043,1.64859,4.63583E+18,-0.443597,-0.49454,-0.514638,0.542033,0
-9.243153,-1.11606,2.172918,-0.055145,0.24936,0.123318,46.156193,-5.822931,6.384472,4.63583E+18,-0.794659,0.053932,-0.597587,-0.092187,-9.829045,0.642944,-0.400758,0.063879,0.045565,-0.000083,39.040227,-23.211396,12.121951,4.63583E+18,-0.58703,0.281528,-0.683564,-0.329967,-8.240208,1.337427,-0.74844,-0.141482,-0.016162,0.118517,38.660047,24.219488,1.818314,4.63583E+18,-0.444182,-0.494474,-0.514692,0.541563,0
-9.128108,-1.169754,2.121059,-0.03504,0.236599,0.119179,46.125077,-5.859233,6.425959,4.63583E+18,-0.794005,0.053857,-0.598397,-0.092607,-9.827972,0.814919,-0.547369,0.040048,0.038896,0.014782,38.948702,-23.218481,12.200317,4.63583E+18,-0.586947,0.281451,-0.683731,-0.329834,-8.0659,1.088056,-0.983778,-0.213968,-0.018368,0.036348,38.664608,24.214698,1.635792,4.63583E+18,-0.444735,-0.494093,-0.515073,0.541093,0
-9.042335,-1.253691,2.087145,-0.015303,0.220681,0.116296,46.051832,-5.939499,6.487317,4.63583E+18,-0.793394,0.053731,-0.59916,-0.092989,-9.726204,1.121177,-0.774248,0.002209,0.039433,0.027777,39.087152,-23.061749,12.207403,4.63583E+18,-0.586801,0.281429,-0.683862,-0.329841,-8.029045,1.118058,-1.087257,-0.285024,-0.021503,-0.04476,38.898376,24.156622,1.654153,4.63583E+18,-0.445258,-0.493399,-0.515776,0.540628,0
-9.026456,-1.302519,2.167407,0.004159,0.193534,0.110048,45.973407,-5.914219,6.447671,4.63583E+18,-0.792855,0.053552,-0.599838,-0.093316,-9.739483,1.136301,-0.759896,-0.029476,0.026787,0.02786,39.100311,-22.890846,12.207403,4.63583E+18,-0.586654,0.281468,-0.683918,-0.329953,-8.167297,1.198426,-1.084322,-0.36357,-0.023987,-0.124862,38.967877,24.309721,1.922938,4.63583E+18,-0.445766,-0.49238,-0.516815,0.540146,0
-9.028295,-1.29432,2.27693,0.031795,0.152541,0.103025,45.991641,-5.822931,6.384472,4.63583E+18,-0.79243,0.053263,-0.600391,-0.093533,-9.707922,0.989752,-0.644908,-0.027147,0.01486,0.035608,38.876409,-23.033405,12.117842,4.63583E+18,-0.586532,0.281462,-0.683958,-0.330091,-8.367396,0.827132,-0.858213,-0.431091,-0.031813,-0.203579,38.813963,24.378185,2.007846,4.63583E+18,-0.44625,-0.491047,-0.51815,0.539679,0
-9.031636,-1.162237,2.383783,0.059081,0.132803,0.100245,46.150317,-5.859208,6.46739,4.63583E+18,-0.792061,0.052883,-0.600889,-0.093677,-9.6713,0.864641,-0.713151,-0.018867,0.008988,0.040235,38.788994,-23.204309,12.031378,4.63583E+18,-0.586431,0.281415,-0.684001,-0.330224,-8.651897,0.041621,-0.551977,-0.438264,-0.044212,-0.261002,38.744449,24.378185,1.922938,4.63583E+18,-0.446646,-0.489547,-0.519595,0.539326,0
-9.06123,-0.956569,2.363406,0.088695,0.094758,0.099661,46.143195,-5.975743,6.662695,4.63583E+18,-0.79179,0.052413,-0.601271,-0.093781,-9.612294,0.97765,-0.765012,-0.027953,-0.009085,0.043528,38.928439,-23.061768,12.013099,4.63583E+18,-0.586409,0.281265,-0.684027,-0.330335,-9.163808,-0.617829,-0.404693,-0.410841,-0.050552,-0.299107,38.892788,24.388544,2.026174,4.63583E+18,-0.446911,-0.487999,-0.521041,0.539114,0
-9.144486,-0.71611,2.281292,0.107399,0.005187,0.098562,45.942344,-6.10335,6.738838,4.63583E+18,-0.791751,0.051829,-0.601366,-0.093827,-9.57365,1.167877,-0.713105,-0.039613,-0.026351,0.037918,39.24381,-23.047577,12.112815,4.63583E+18,-0.586358,0.281288,-0.683926,-0.330616,-9.665051,-1.118798,-0.238855,-0.386672,-0.055196,-0.33138,38.877674,24.546426,2.203696,4.63583E+18,-0.447062,-0.486413,-0.522488,0.539022,0
-9.301329,-0.406114,2.380866,0.102021,-0.094108,0.099046,45.98571,-6.183617,6.611944,4.63583E+18,-0.791959,0.051222,-0.601131,-0.093909,-9.581798,1.352021,-0.752804,-0.051363,-0.035607,0.023673,39.192861,-23.204287,12.301048,4.63583E+18,-0.586368,0.281305,-0.683796,-0.330853,-10.162648,-1.77298,0.040844,-0.334544,-0.048811,-0.350631,38.660847,24.69371,2.294992,4.63583E+18,-0.447049,-0.484894,-0.523866,0.539063,0
-9.415243,-0.05544,2.796685,0.068419,-0.103986,0.094935,46.235748,-6.194692,6.501365,4.63583E+18,-0.792186,0.050733,-0.600849,-0.094064,-9.683531,1.411993,-0.846387,-0.065069,-0.04513,0.009701,38.894801,-23.296817,12.138214,4.63583E+18,-0.586408,0.281383,-0.683606,-0.331106,-10.425122,-1.988216,0.467581,-0.237879,-0.027448,-0.354208,38.671186,24.847633,2.300559,4.63583E+18,-0.446784,-0.483594,-0.525072,0.539278,0
-9.457049,0.289727,3.159522,0.017306,0.010681,0.081886,46.259736,-6.116261,6.613513,4.63583E+18,-0.792119,0.050495,-0.600922,-0.094287,-9.804599,1.404867,-0.820942,-0.10246,-0.057682,-0.005165,38.722874,-23.371086,11.942878,4.63583E+18,-0.586461,0.281577,-0.683317,-0.331445,-10.410038,-1.96698,0.681532,-0.118886,-0.005046,-0.348077,38.808427,24.93228,2.380444,4.63583E+18,-0.446242,-0.482578,-0.526039,0.539694,0
-9.604313,0.614483,3.051785,-0.026418,0.117893,0.057028,46.069963,-6.170697,6.821737,4.63583E+18,-0.791784,0.05051,-0.601326,-0.09452,-9.926675,1.336698,-0.728358,-0.145899,-0.0705,-0.015223,38.855176,-23.377178,11.926633,4.63583E+18,-0.586513,0.281889,-0.682924,-0.331897,-10.174159,-1.983466,0.438835,-0.011653,0.031989,-0.345802,38.628824,25.005517,2.381236,4.63583E+18,-0.445408,-0.481849,-0.526827,0.540265,0
-9.843614,0.810502,2.690424,-0.048941,0.126104,0.035766,45.931279,-6.311227,6.807284,4.63583E+18,-0.79143,0.050662,-0.601743,-0.094745,-9.903257,1.229901,-0.686668,-0.164227,-0.079399,-0.022876,38.935509,-23.231714,11.837117,4.63583E+18,-0.586579,0.282254,-0.682475,-0.332393,-9.89941,-1.885002,-0.118301,0.051063,0.061397,-0.342085,38.327574,25.07877,2.399002,4.63583E+18,-0.444391,-0.481309,-0.527521,0.540907,0
-9.892063,0.830471,2.61313,-0.057648,0.11261,0.020068,45.960507,-6.243898,6.696685,4.63583E+18,-0.791115,0.050875,-0.602109,-0.094941,-9.821879,1.187173,-0.650047,-0.161647,-0.082069,-0.028395,39.087076,-23.061831,11.73946,4.63583E+18,-0.586614,0.282725,-0.681975,-0.332958,-9.887204,-1.791791,-0.421392,0.045085,0.052298,-0.346843,38.099304,25.152006,2.49031,4.63583E+18,-0.443394,-0.480726,-0.528219,0.541562,0
-9.783676,0.693223,2.808819,-0.065578,0.163883,0.005535,45.973448,-6.183608,6.731093,4.63583E+18,-0.790676,0.051157,-0.602639,-0.09508,-9.792374,1.128172,-0.613425,-0.146604,-0.092038,-0.034714,39.189826,-23.271362,11.742504,4.63583E+18,-0.586747,0.283072,-0.681501,-0.333398,-9.880545,-1.942243,-0.518259,-0.002163,0.034861,-0.358176,38.093757,25.235553,2.48397,4.63583E+18,-0.442503,-0.47999,-0.529014,0.542167,0
-9.7674,0.501248,2.846547,-0.069592,0.20735,-0.004531,45.862109,-6.329348,6.875352,4.63583E+18,-0.790131,0.051495,-0.603308,-0.095187,-9.700834,1.100705,-0.677498,-0.133521,-0.093908,-0.035249,39.276288,-23.515484,11.833025,4.63583E+18,-0.586907,0.283377,-0.681044,-0.333793,-9.965675,-2.152144,-0.59737,-0.065892,0.013123,-0.362685,38.013063,25.457191,2.386312,4.63583E+18,-0.441776,-0.479076,-0.52992,0.542683,0
-9.776655,0.38731,2.715974,-0.06519,0.192755,-0.0134,45.80883,-6.366365,7.031088,4.63583E+18,-0.789627,0.051835,-0.603928,-0.095257,-9.692678,1.031531,-0.773128,-0.115806,-0.095955,-0.035249,39.205099,-23.535873,11.841181,4.63583E+18,-0.587093,0.283635,-0.680605,-0.33414,-10.208553,-2.381235,-0.578045,-0.090615,0.002413,-0.354655,37.996901,25.535964,2.294992,4.63583E+18,-0.44114,-0.47811,-0.530844,0.543149,0
-9.705272,0.386928,2.624592,-0.064961,0.148838,-0.020261,45.887242,-6.153305,7.11653,4.63583E+18,-0.789235,0.052174,-0.604402,-0.095312,-9.73743,0.902355,-0.736522,-0.093734,-0.105923,-0.036228,39.119655,-23.468746,11.919496,4.63583E+18,-0.587334,0.283828,-0.680172,-0.334434,-10.244727,-2.396606,-0.466254,-0.070558,0.005994,-0.338079,37.933148,25.694659,2.30132,4.63583E+18,-0.440492,-0.477224,-0.531696,0.543621,0
-9.599117,0.440933,2.650473,-0.072309,0.113616,-0.02955,45.936459,-6.091106,7.207156,4.63583E+18,-0.788935,0.052542,-0.604755,-0.095358,-9.741508,0.857577,-0.676505,-0.070324,-0.111709,-0.037296,39.190834,-23.462629,11.758816,4.63583E+18,-0.58762,0.283959,-0.679756,-0.334666,-10.09194,-2.449741,-0.499714,-0.038379,0,-0.31386,37.996121,25.853336,2.391862,4.63583E+18,-0.439848,-0.476436,-0.532415,0.54413,0
-9.470003,0.476089,2.70116,-0.080659,0.098918,-0.039941,45.869156,-6.176564,7.185748,4.63583E+18,-0.788666,0.053007,-0.605049,-0.095458,-9.741508,0.94401,-0.637848,-0.038997,-0.115092,-0.035428,39.276278,-23.384325,11.385555,4.63583E+18,-0.587904,0.284099,-0.679337,-0.334901,-9.853336,-2.383193,-0.482779,-0.004547,0.000414,-0.294636,37.90122,26.00098,2.374927,4.63583E+18,-0.439178,-0.475752,-0.533019,0.544678,0
-9.368645,0.491616,2.737779,-0.094091,0.096261,-0.049844,45.808818,-6.189544,7.038887,4.63583E+18,-0.788407,0.053516,-0.60533,-0.095528,-9.685569,1.119993,-0.567659,-0.003034,-0.112423,-0.03427,39.283424,-23.298863,11.263384,4.63583E+18,-0.588235,0.284119,-0.678989,-0.335006,-9.703309,-2.234341,-0.398116,0.022914,0.006202,-0.275547,37.663765,25.988773,2.29578,4.63583E+18,-0.438483,-0.475174,-0.533532,0.545239,0
-9.295411,0.471317,2.722654,-0.105549,0.105676,-0.054348,45.918271,-6.140324,7.018854,4.63583E+18,-0.788128,0.054057,-0.605637,-0.095583,-9.624545,1.056993,-0.438504,0.018595,-0.11607,-0.037117,39.205127,-23.21343,11.255226,4.63583E+18,-0.588607,0.284089,-0.678659,-0.335047,-9.672604,-2.055184,-0.32724,0.029151,0.003204,-0.258527,37.37709,25.982861,2.318999,4.63583E+18,-0.437821,-0.474638,-0.533992,0.545788,0
-9.232515,0.384007,2.652725,-0.107918,0.117008,-0.052177,46.009705,-6.073059,7.104306,4.63583E+18,-0.787818,0.054604,-0.605981,-0.095648,-9.619433,1.005103,-0.348974,0.025188,-0.110557,-0.038364,39.119686,-23.206274,11.344694,4.63583E+18,-0.589004,0.28399,-0.678377,-0.335005,-9.554463,-1.94255,-0.292978,0.017057,0.003686,-0.242712,37.535785,26.068312,2.495817,4.63583E+18,-0.437217,-0.474115,-0.534447,0.54628,0
-9.199209,0.341807,2.567682,-0.098631,0.121153,-0.052955,45.978662,-5.976454,7.194927,4.63583E+18,-0.787499,0.055125,-0.606342,-0.095686,-9.652988,0.978638,-0.408916,0.04423,-0.105126,-0.042368,39.269107,-23.284567,11.531841,4.63583E+18,-0.589414,0.283863,-0.67813,-0.334892,-9.495787,-1.966178,-0.288258,-0.000102,0.010819,-0.229825,37.674028,26.148258,2.563963,4.63583E+18,-0.43666,-0.473606,-0.534929,0.546696,0
-9.202522,0.279727,2.386843,-0.079639,0.097777,-0.046907,45.972673,-6.041847,7.333971,4.63583E+18,-0.787239,0.055577,-0.606632,-0.095726,-9.723157,1.077244,-0.448602,0.082137,-0.108593,-0.048597,39.428809,-23.291725,11.72714,4.63583E+18,-0.589887,0.283655,-0.67792,-0.334661,-9.47059,-1.977599,-0.219733,-0.017777,0.013024,-0.215529,37.504358,26.142762,2.381658,4.63583E+18,-0.436165,-0.473101,-0.535427,0.547041,0
-9.21659,0.184971,2.308245,-0.062568,0.042975,-0.037258,45.985696,-6.171365,7.493078,4.63583E+18,-0.787119,0.055909,-0.606754,-0.095743,-9.639833,1.421961,-0.40694,0.104044,-0.10308,-0.057942,39.375021,-23.37001,11.654055,4.63583E+18,-0.590383,0.283428,-0.677743,-0.334338,-9.437894,-1.97917,-0.221304,-0.028321,0.016022,-0.195234,37.201454,26.067517,2.220962,4.63583E+18,-0.43573,-0.472628,-0.535913,0.54732,0
-9.154517,0.155385,2.490933,-0.058332,0.029112,-0.031918,45.869214,-6.213568,7.515001,4.63583E+18,-0.787034,0.056208,-0.606833,-0.09577,-9.575731,1.352042,-0.38048,0.077372,-0.102542,-0.070489,39.134051,-23.298903,11.377493,4.63583E+18,-0.590863,0.283302,-0.677514,-0.334059,-9.466234,-2.005155,-0.243363,-0.037004,0.016366,-0.175145,37.297114,26.151755,2.233096,4.63583E+18,-0.435357,-0.472185,-0.53638,0.547542,0
-9.090789,0.15497,2.629764,-0.051145,0.071636,-0.027935,45.845,-6.285978,7.463895,4.63583E+18,-0.786838,0.056507,-0.607054,-0.095804,-9.626514,1.119176,-0.333702,0.022914,-0.101564,-0.066674,39.190793,-23.213452,11.173974,4.63583E+18,-0.591271,0.2833,-0.677217,-0.333942,-9.54776,-2.053199,-0.232726,-0.047411,0.0215,-0.158261,37.520063,26.38491,2.588324,4.63583E+18,-0.435032,-0.471772,-0.536847,0.547699,0
-9.191336,0.224486,2.574736,-0.043089,0.090287,-0.026251,46.008864,-6.348269,7.507134,4.63583E+18,-0.786596,0.056783,-0.60734,-0.095819,-9.676363,0.942138,-0.34078,-0.005321,-0.104409,-0.06329,39.421583,-23.206274,11.079303,4.63583E+18,-0.591616,0.28342,-0.67685,-0.333973,-9.571388,-2.089033,-0.243364,-0.052859,0.024048,-0.143897,37.419728,26.447957,2.759324,4.63583E+18,-0.434743,-0.471387,-0.537302,0.547813,0
-9.326039,0.322147,2.495482,-0.033602,0.068924,-0.028351,46.071157,-6.159373,7.509834,4.63583E+18,-0.786412,0.057018,-0.607559,-0.0958,-9.65811,0.894221,-0.375349,-0.001607,-0.105657,-0.054216,39.598645,-23.206274,11.161559,4.63583E+18,-0.591984,0.283447,-0.676519,-0.333969,-9.582028,-2.107962,-0.233508,-0.044931,0.032387,-0.122808,37.121931,26.372693,2.569943,4.63583E+18,-0.434469,-0.471082,-0.537713,0.54789,0
-9.385628,0.404286,2.543888,-0.030813,0.062947,-0.036569,46.016741,-5.96942,7.363776,4.63583E+18,-0.786247,0.057261,-0.607758,-0.095746,-9.689594,0.801707,-0.37843,0.012626,-0.101834,-0.048517,39.37826,-23.206274,11.426894,4.63583E+18,-0.592354,0.283419,-0.676228,-0.333926,-9.570604,-2.046925,-0.25949,-0.047302,0.037111,-0.106061,37.110504,26.451422,2.313468,4.63583E+18,-0.434226,-0.470822,-0.538104,0.547922,0
-9.415212,0.46532,2.615689,-0.02933,0.072923,-0.044536,45.97868,-6.078004,7.256368,4.63583E+18,-0.786062,0.057514,-0.607989,-0.095648,-9.692678,0.75994,-0.38961,0.039321,-0.096583,-0.041219,39.356667,-23.049749,11.361102,4.63583E+18,-0.592731,0.283312,-0.675995,-0.333819,-9.568258,-1.996064,-0.305185,-0.067978,0.033181,-0.09397,37.111287,26.599932,2.416591,4.63583E+18,-0.434061,-0.470542,-0.538512,0.547893,0
-9.420815,0.516011,2.626461,-0.026992,0.07658,-0.049712,45.905443,-6.189591,7.346112,4.63583E+18,-0.78587,0.057775,-0.608231,-0.095528,-9.670317,0.801581,-0.390637,0.07492,-0.095155,-0.031785,39.423751,-22.878843,11.084553,4.63583E+18,-0.593121,0.283116,-0.675816,-0.333655,-9.533982,-2.095275,-0.306747,-0.077565,0.034591,-0.076813,37.132867,26.595246,2.581722,4.63583E+18,-0.43395,-0.470286,-0.53891,0.547809,0
-9.410037,0.526789,2.571038,-0.032006,0.081304,-0.051146,45.863213,-6.104145,7.494902,4.63583E+18,-0.78566,0.058088,-0.608484,-0.095453,-9.668263,0.828044,-0.379459,0.104382,-0.094087,-0.02413,39.429913,-22.864466,11.059907,4.63583E+18,-0.593513,0.282865,-0.675674,-0.333459,-9.533982,-2.214233,-0.335857,-0.069992,0.040726,-0.058379,37.28141,26.516519,2.49031,4.63583E+18,-0.433852,-0.470099,-0.539266,0.547696,0
-9.439618,0.512711,2.473383,-0.039934,0.075792,-0.045806,45.961399,-6.018698,7.502833,4.63583E+18,-0.78546,0.058412,-0.608716,-0.095418,-9.657086,0.785393,-0.344897,0.126375,-0.090085,-0.015675,39.284605,-23.099194,11.328169,4.63583E+18,-0.593938,0.28248,-0.675608,-0.333163,-9.537886,-2.280442,-0.431944,-0.046247,0.042521,-0.03595,37.276725,26.378141,2.502803,4.63583E+18,-0.433755,-0.470009,-0.539527,0.547593,0
-9.47107,0.507545,2.437731,-0.048027,0.055952,-0.040918,46.095154,-6.005584,7.446516,4.63583E+18,-0.785309,0.058731,-0.608883,-0.09541,-9.689593,0.848347,-0.31945,0.130134,-0.079943,-0.006151,39.349467,-23.042569,11.174023,4.63583E+18,-0.594325,0.282072,-0.675583,-0.332868,-9.592677,-2.243039,-0.497381,-0.034907,0.03959,-0.013793,37.212849,26.536837,2.684848,4.63583E+18,-0.433693,-0.469983,-0.539714,0.547481,0
-9.469656,0.516,2.486557,-0.056407,0.045766,-0.037097,45.997011,-6.018714,7.529162,4.63583E+18,-0.78518,0.059058,-0.609014,-0.095431,-9.737383,0.865695,-0.328569,0.147917,-0.072197,-0.001429,39.423726,-22.878901,10.978745,4.63583E+18,-0.594666,0.281696,-0.675574,-0.332594,-9.556058,-2.197333,-0.446218,-0.029976,0.040794,0.004568,37.280631,26.679927,2.661731,4.63583E+18,-0.43366,-0.47001,-0.539855,0.547344,0
-9.44853,0.526794,2.494061,-0.062405,0.047903,-0.032989,45.827052,-5.933258,7.677997,4.63583E+18,-0.785042,0.059399,-0.60915,-0.095485,-9.786218,0.922613,-0.351955,0.192574,-0.066676,0.001866,39.429913,-22.797401,11.141087,4.63583E+18,-0.595078,0.281129,-0.675678,-0.332127,-9.524112,-2.192657,-0.365443,-0.030772,0.043999,0.025727,37.255175,26.5898,2.496545,4.63583E+18,-0.43367,-0.470091,-0.539962,0.547161,0
-9.469193,0.50238,2.440067,-0.061665,0.044615,-0.027648,45.741603,-5.852975,7.685961,4.63583E+18,-0.784913,0.059699,-0.60928,-0.095526,-9.745627,1.184846,-0.354015,0.222946,-0.059379,0.004092,39.653464,-22.791222,11.425828,4.63583E+18,-0.595501,0.28049,-0.675843,-0.331571,-9.559955,-2.125647,-0.353235,-0.026681,0.047476,0.043681,37.045572,26.431103,2.612909,4.63583E+18,-0.433705,-0.470227,-0.540032,0.546948,0
-9.49736,0.472804,2.430678,-0.059816,0.03032,-0.02276,45.69231,-5.774576,7.588316,4.63583E+18,-0.784819,0.059981,-0.609364,-0.095589,-9.719156,1.264414,-0.320486,0.217556,-0.058748,-0.002573,39.752295,-22.936513,11.361135,4.63583E+18,-0.595925,0.279884,-0.675994,-0.331013,-9.582032,-2.147724,-0.3496,-0.009863,0.054748,0.058771,37.00324,26.287994,2.977827,4.63583E+18,-0.433725,-0.470444,-0.540046,0.546731,0
-9.492196,0.425854,2.465895,-0.059816,0.012901,-0.018487,45.759441,-5.792403,7.531968,4.63583E+18,-0.784767,0.060243,-0.609392,-0.095667,-9.672389,1.157809,-0.306216,0.147403,-0.051903,-0.004182,39.468934,-23.028151,11.084659,4.63583E+18,-0.596207,0.279553,-0.676028,-0.330717,-9.569826,-2.130072,-0.469327,0.002545,0.058612,0.075519,37.224261,26.378103,2.953953,4.63583E+18,-0.43375,-0.47073,-0.540007,0.546504,0
-9.474826,0.38031,2.445242,-0.061623,0.00608,-0.01557,45.923293,-5.920112,7.655887,4.63583E+18,-0.784731,0.060502,-0.609398,-0.095763,-9.657088,0.968679,-0.327537,0.024625,-0.058116,-0.004273,39.44212,-23.03537,10.970498,4.63583E+18,-0.5964,0.279443,-0.675907,-0.330708,-9.558396,-2.03397,-0.546222,0.008817,0.05668,0.087269,37.276743,26.526688,2.77108,4.63583E+18,-0.433794,-0.471049,-0.539926,0.546274,0
-9.460737,0.340407,2.396414,-0.060475,0.002672,-0.014051,46.021912,-6.000399,7.907555,4.63583E+18,-0.784704,0.060747,-0.609394,-0.095855,-9.644881,1.097449,-0.351949,-0.04087,-0.064615,-0.00525,39.65444,-22.878923,11.051646,4.63583E+18,-0.596511,0.279542,-0.675658,-0.330934,-9.554515,-1.966168,-0.495069,0.012886,0.05802,0.098745,37.208941,26.516595,2.777291,4.63583E+18,-0.433853,-0.471404,-0.539816,0.54603,0
-9.455574,0.310348,2.38889,-0.051026,-0.009859,-0.01327,45.990931,-6.114951,7.901508,4.63583E+18,-0.784705,0.06099,-0.609349,-0.095976,-9.621502,1.122047,-0.354015,-0.051796,-0.064179,-0.009251,39.674061,-22.864466,11.059907,4.63583E+18,-0.596614,0.279679,-0.67539,-0.33118,-9.49891,-1.976824,-0.414277,0.013682,0.062682,0.10595,37.225021,26.37264,2.86874,4.63583E+18,-0.433916,-0.471788,-0.539698,0.545765,0
-9.396912,0.33804,2.468684,-0.043959,-0.002924,-0.016144,45.912532,-6.182597,7.620771,4.63583E+18,-0.784693,0.061212,-0.60933,-0.096057,-9.664159,0.944182,-0.331652,-0.040599,-0.062132,-0.009613,39.595791,-22.786198,11.059907,4.63583E+18,-0.596756,0.279728,-0.675168,-0.331335,-9.521774,-1.963842,-0.404394,0.010749,0.057612,0.108748,37.298267,26.44201,2.856341,4.63583E+18,-0.434002,-0.47216,-0.539572,0.545498,0
-9.305812,0.386866,2.518496,-0.042726,0.027599,-0.021936,45.858052,-6.037104,7.453562,4.63583E+18,-0.784607,0.061447,-0.609411,-0.096095,-9.634726,0.871866,-0.340779,-0.014089,-0.060974,-0.008635,39.666864,-22.779015,11.059907,4.63583E+18,-0.596923,0.279711,-0.674987,-0.331417,-9.522549,-1.940977,-0.427259,0.011682,0.056883,0.105408,37.366863,26.44337,2.674196,4.63583E+18,-0.434081,-0.472525,-0.539449,0.545241,0
-9.293111,0.425375,2.428371,-0.039564,0.033571,-0.028345,45.923269,-5.891014,7.523941,4.63583E+18,-0.784512,0.061677,-0.609512,-0.096085,-9.631641,0.810824,-0.330627,0.012707,-0.061863,-0.008545,39.517537,-22.711933,11.149351,4.63583E+18,-0.597125,0.279626,-0.67484,-0.331425,-9.534756,-1.943298,-0.428806,0.010614,0.060343,0.100474,37.367637,26.289332,2.697231,4.63583E+18,-0.434143,-0.472885,-0.539345,0.544984,0
-9.303926,0.41366,2.33866,-0.028475,0.006868,-0.032948,46.058039,-5.956226,7.670917,4.63583E+18,-0.784488,0.061871,-0.609529,-0.096039,-9.676363,0.794508,-0.3296,0.031585,-0.056083,-0.000719,39.35781,-22.784033,11.23583,4.63583E+18,-0.597321,0.279479,-0.674743,-0.331392,-9.545416,-1.975279,-0.453994,0.010155,0.05261,0.101068,37.374429,26.21471,2.881116,4.63583E+18,-0.434224,-0.473228,-0.539226,0.544739,0
-9.294994,0.362949,2.352255,-0.018775,-0.012157,-0.036438,46.035119,-5.946509,7.763407,4.63583E+18,-0.784518,0.062035,-0.609487,-0.095962,-9.714005,0.827015,-0.351955,0.050718,-0.055544,-0.001956,39.500951,-22.791222,11.164774,4.63583E+18,-0.597539,0.27929,-0.674673,-0.331302,-9.535529,-1.940977,-0.486749,0.018294,0.056747,0.09493,37.310465,26.294746,3.064058,4.63583E+18,-0.434266,-0.473581,-0.539108,0.544516,0
-9.317524,0.310841,2.406249,-0.019062,-0.015284,-0.044489,45.900331,-5.731423,7.77145,4.63583E+18,-0.784559,0.062215,-0.609433,-0.095855,-9.683556,0.908356,-0.354015,0.055274,-0.056522,-0.00018,39.593615,-22.858295,11.246998,4.63583E+18,-0.597763,0.279082,-0.674608,-0.331205,-9.559168,-1.940205,-0.462337,0.02016,0.05841,0.092659,37.389107,26.290114,3.057882,4.63583E+18,-0.434295,-0.473936,-0.538993,0.544297,0
-9.338663,0.299522,2.405362,-0.017586,-0.0074,-0.044047,45.923243,-5.712057,7.678961,4.63583E+18,-0.78458,0.062392,-0.609406,-0.095743,-9.658113,0.937913,-0.354015,0.037937,-0.055634,0.003913,39.66789,-22.864466,11.255226,4.63583E+18,-0.597959,0.278907,-0.674526,-0.331165,-9.56906,-1.929542,-0.441011,0.017888,0.05334,0.088656,37.542398,26.221502,2.965627,4.63583E+18,-0.434331,-0.474266,-0.538882,0.544091,0
-9.379928,0.326333,2.345713,-0.012983,-0.000903,-0.032375,46.088966,-5.841672,7.629627,4.63583E+18,-0.784579,0.062535,-0.609403,-0.095667,-9.633701,0.973503,-0.342837,0.01969,-0.054566,0.007207,39.752306,-22.786223,11.076383,4.63583E+18,-0.598126,0.27877,-0.674426,-0.331184,-9.547733,-1.941749,-0.467741,0.013886,0.052339,0.088724,37.606376,26.226134,2.960367,4.63583E+18,-0.434377,-0.474586,-0.538779,0.543877,0
-9.462117,0.320661,2.367725,-0.016715,-0.004845,-0.032165,46.113544,-5.920079,7.712166,4.63583E+18,-0.784584,0.062716,-0.609384,-0.095637,-9.653997,0.976592,-0.308275,-0.012161,-0.052519,0.012367,39.603026,-22.71195,10.970487,4.63583E+18,-0.598242,0.278701,-0.674293,-0.331303,-9.574457,-1.953184,-0.525689,0.013347,0.052204,0.08959,37.537766,26.290123,3.046457,4.63583E+18,-0.434426,-0.474908,-0.538674,0.543661,0
-9.49736,0.310857,2.370641,-0.02711,-0.010351,-0.03886,45.954852,-6.00037,7.866212,4.63583E+18,-0.784607,0.062914,-0.609344,-0.095573,-9.678408,0.965416,-0.282833,-0.037446,-0.04745,0.015752,39.365084,-22.70577,10.962248,4.63583E+18,-0.598311,0.278692,-0.674141,-0.331495,-9.627019,-1.952414,-0.535585,0.005341,0.05054,0.088127,37.542388,26.21688,2.960235,4.63583E+18,-0.434492,-0.475207,-0.538587,0.543433,0
-9.533456,0.309816,2.281416,-0.026179,-0.017781,-0.036575,45.863213,-5.975629,7.881352,4.63583E+18,-0.784643,0.063132,-0.609277,-0.095557,-9.691647,1.020265,-0.291946,-0.039521,-0.042109,0.017978,39.422693,-22.772827,10.872839,4.63583E+18,-0.598359,0.278689,-0.674002,-0.331693,-9.553013,-1.940977,-0.508096,0.005004,0.055544,0.096739,37.611777,26.142874,2.874893,4.63583E+18,-0.434566,-0.475537,-0.538493,0.543178,0
-9.577654,0.319807,2.256477,-0.021317,-0.034495,-0.02535,45.930258,-5.816924,7.737273,4.63583E+18,-0.784724,0.063267,-0.609164,-0.095528,-9.748559,1.047774,-0.326506,-0.034632,-0.03579,0.020114,39.731668,-22.93548,10.965174,4.63583E+18,-0.598392,0.278677,-0.673889,-0.331874,-9.474483,-1.944053,-0.438697,-0.000336,0.055611,0.10615,37.618604,26.062805,2.977935,4.63583E+18,-0.434672,-0.475878,-0.538392,0.542895,0
-9.534502,0.282143,2.368569,-0.021574,-0.037236,-0.017181,45.949706,-5.725272,7.581317,4.63583E+18,-0.784808,0.06338,-0.609044,-0.095527,-9.720187,0.993956,-0.318424,-0.02538,-0.030359,0.022251,39.692456,-22.949919,11.052688,4.63583E+18,-0.598417,0.278643,-0.673804,-0.332029,-9.501975,-1.992114,-0.424183,-0.003995,0.056948,0.112963,37.554587,26.062805,3.143357,4.63583E+18,-0.434797,-0.47623,-0.538289,0.542588,0
-9.443904,0.317392,2.51283,-0.018729,-0.005739,-0.010801,45.783978,-5.7923,7.573216,4.63583E+18,-0.78481,0.063481,-0.609029,-0.095532,-9.705918,0.932926,-0.295043,-0.011856,-0.025997,0.026342,39.608044,-22.871694,10.970509,4.63583E+18,-0.59844,0.278571,-0.673753,-0.332151,-9.575987,-2.023353,-0.381506,0.016964,0.062424,0.125646,37.627832,26.062805,3.040316,4.63583E+18,-0.434898,-0.476661,-0.538123,0.542294,0
-9.397804,0.332858,2.43414,-0.020176,0.019797,-0.014337,45.697465,-5.847882,7.71211,4.63583E+18,-0.784749,0.063606,-0.609097,-0.095523,-9.693711,0.927763,-0.304152,-0.000904,-0.020747,0.027681,39.522595,-22.942689,10.872851,4.63583E+18,-0.598459,0.278474,-0.673733,-0.33224,-9.652986,-1.976064,-0.428027,0.031581,0.069833,0.136058,37.696461,26.053594,2.86874,4.63583E+18,-0.434975,-0.477159,-0.537916,0.541999,0
-9.458304,0.384946,2.302044,-0.011677,0.007712,-0.014503,45.735449,-5.767586,7.81979,4.63583E+18,-0.784721,0.063695,-0.609129,-0.095489,-9.703853,0.927763,-0.327534,0.0088,-0.014428,0.032661,39.671809,-23.095188,10.875764,4.63583E+18,-0.598465,0.278348,-0.673747,-0.332306,-9.604156,-1.953952,-0.437931,0.041463,0.075838,0.142735,37.691855,25.910944,2.881022,4.63583E+18,-0.435035,-0.477702,-0.537684,0.541702,0
-9.485693,0.380868,2.346537,-0.005175,-0.022906,-0.015239,45.80869,-5.761354,7.694184,4.63583E+18,-0.784772,0.063757,-0.609062,-0.095451,-9.738401,0.916591,-0.351944,0.027209,-0.012908,0.033113,39.608063,-23.119786,11.055547,4.63583E+18,-0.598487,0.278176,-0.673791,-0.33232,-9.560699,-1.964624,-0.42503,0.054744,0.07557,0.153014,37.628591,25.835471,3.075571,4.63583E+18,-0.435092,-0.478292,-0.537401,0.541416,0
-9.42086,0.307084,2.432529,-0.009566,-0.030288,-0.018443,45.923167,-5.810724,7.531968,4.63583E+18,-0.784839,0.063855,-0.608968,-0.095437,-9.752681,0.926728,-0.40988,0.063057,-0.014773,0.029202,39.444394,-22.9644,11.060941,4.63583E+18,-0.598562,0.277924,-0.673875,-0.332226,-9.59885,-1.954717,-0.570683,0.058279,0.070963,0.15742,37.713265,25.91407,3.234911,4.63583E+18,-0.435162,-0.478888,-0.537093,0.541139,0
-9.420316,0.287824,2.44338,-0.016592,-0.023499,-0.020746,46.052834,-5.841647,7.573199,4.63583E+18,-0.784889,0.063981,-0.608892,-0.095426,-9.764888,1.117706,-0.437398,0.100443,-0.017887,0.029818,39.362872,-22.949919,10.791752,4.63583E+18,-0.598687,0.277572,-0.674005,-0.332032,-9.654524,-1.976833,-0.525684,0.051405,0.061483,0.163896,37.781148,26.053612,3.034231,4.63583E+18,-0.435281,-0.479464,-0.53677,0.540854,0
-9.427919,0.229242,2.408662,-0.024353,-0.041083,-0.023166,46.064238,-5.847899,7.70692,4.63583E+18,-0.784981,0.064137,-0.608754,-0.095439,-9.698892,1.168804,-0.405951,0.111431,-0.023046,0.026976,39.43487,-22.949919,10.688727,4.63583E+18,-0.598845,0.277191,-0.674134,-0.331803,-9.630112,-1.965392,-0.540949,0.053608,0.054743,0.171238,37.770471,25.901788,2.777198,4.63583E+18,-0.435427,-0.480045,-0.536414,0.540574,0
-9.425466,0.174155,2.416515,-0.024948,-0.058394,-0.028341,45.98584,-5.700608,7.730289,4.63583E+18,-0.785123,0.064277,-0.608561,-0.095411,-9.726193,1.093709,-0.346986,0.103358,-0.016657,0.025726,39.430948,-22.793515,10.849053,4.63583E+18,-0.598976,0.276845,-0.674265,-0.331589,-9.604932,-1.963862,-0.596633,0.056344,0.058748,0.176914,37.79262,25.679023,2.886328,4.63583E+18,-0.435572,-0.480652,-0.536048,0.540281,0
-9.496794,0.169564,2.44014,-0.01275,-0.059501,-0.031143,45.936459,-5.566576,7.61742,4.63583E+18,-0.785272,0.064384,-0.608368,-0.095344,-9.751644,1.008257,-0.330636,0.075172,-0.017,0.024658,39.508115,-22.779015,11.043335,4.63583E+18,-0.599077,0.276572,-0.674355,-0.331452,-9.567546,-1.940212,-0.571454,0.051804,0.058882,0.187394,37.953581,25.589749,3.155627,4.63583E+18,-0.435748,-0.481274,-0.535671,0.539958,0
-9.520443,0.103386,2.39456,-0.001736,-0.08767,-0.028106,45.972504,-5.633517,7.61742,4.63583E+18,-0.785494,0.064437,-0.608088,-0.095266,-9.731375,0.922815,-0.363111,0.016922,-0.021977,0.028477,39.671749,-22.9354,10.970544,4.63583E+18,-0.599119,0.276426,-0.674357,-0.331494,-9.521011,-1.921901,-0.531021,0.043126,0.061018,0.19487,37.959681,25.447094,3.247169,4.63583E+18,-0.435953,-0.481902,-0.535303,0.539598,0
-9.480003,0.091933,2.442235,0.009512,-0.101859,-0.025636,46.052806,-5.725272,7.61742,4.63583E+18,-0.785747,0.064482,-0.607763,-0.095225,-9.695794,1.07192,-0.38856,-0.010728,-0.030249,0.026885,39.529905,-23.106282,11.051599,4.63583E+18,-0.599155,0.276343,-0.674298,-0.331619,-9.513376,-1.816618,-0.439467,0.032313,0.063687,0.20228,37.889477,25.372316,3.253263,4.63583E+18,-0.436191,-0.482532,-0.534948,0.539194,0
-9.431756,0.165173,2.542379,0.024466,-0.086055,-0.024284,46.059114,-5.689231,7.535041,4.63583E+18,-0.78597,0.064443,-0.607499,-0.095098,-9.681509,1.119965,-0.334793,-0.003045,-0.030976,0.02084,39.370169,-23.04264,11.238608,4.63583E+18,-0.599209,0.276257,-0.67424,-0.331708,-9.570604,-1.791422,-0.441752,0.019962,0.073369,0.208222,38.039031,25.442533,3.344829,4.63583E+18,-0.436445,-0.483175,-0.534626,0.538733,0
-9.375286,0.202377,2.537813,0.029959,-0.070549,-0.019278,45.942774,-5.675859,7.42725,4.63583E+18,-0.786149,0.064403,-0.607287,-0.094999,-9.691638,0.944402,-0.3296,0.026201,-0.030976,0.013455,39.423673,-22.812021,11.076547,4.63583E+18,-0.599308,0.276118,-0.674215,-0.331697,-9.567558,-1.931055,-0.478374,0.015221,0.067895,0.20802,38.045144,25.288408,3.333403,4.63583E+18,-0.43672,-0.483796,-0.534304,0.538271,0
-9.35984,0.179872,2.481923,0.021581,-0.064874,-0.012251,45.851006,-5.689231,7.470349,4.63583E+18,-0.786308,0.064375,-0.607092,-0.094943,-9.670344,0.972432,-0.351934,0.07672,-0.036839,0.007932,39.575086,-22.780055,10.970569,4.63583E+18,-0.599489,0.275861,-0.674238,-0.331537,-9.519493,-1.963871,-0.511951,0.020491,0.061417,0.220571,37.969585,25.218172,3.160957,4.63583E+18,-0.437027,-0.484439,-0.533934,0.537812,0
-9.343811,0.148402,2.484571,0.012419,-0.067525,-0.008545,45.95395,-5.608937,7.519761,4.63583E+18,-0.786475,0.06434,-0.606889,-0.094888,-9.690601,1.110616,-0.342846,0.12711,-0.041294,0.002591,39.599776,-23.013556,11.140947,4.63583E+18,-0.599748,0.275486,-0.674314,-0.331227,-9.492755,-1.938696,-0.498223,0.040386,0.069829,0.229049,38.043591,25.366983,3.161675,4.63583E+18,-0.437293,-0.485156,-0.533516,0.537363,0
-9.350871,0.118842,2.526932,0.008378,-0.075503,-0.008095,46.028252,-5.6026,7.442565,4.63583E+18,-0.78666,0.064313,-0.606658,-0.094847,-9.759683,1.056077,-0.319472,0.138222,-0.045566,0.000182,39.522645,-23.03537,11.336245,4.63583E+18,-0.600034,0.275084,-0.674391,-0.330884,-9.610267,-1.895993,-0.463881,0.053141,0.076105,0.236194,38.114599,25.347978,3.344829,4.63583E+18,-0.437535,-0.485926,-0.533066,0.536917,0
-9.345724,0.097659,2.532079,0.017269,-0.080677,-0.007477,45.900429,-5.652028,7.295474,4.63583E+18,-0.786853,0.064302,-0.606409,-0.09485,-9.810592,1.083339,-0.32856,0.116385,-0.03909,0,39.370188,-22.957199,11.352885,4.63583E+18,-0.600278,0.274747,-0.674454,-0.330595,-9.650744,-1.774627,-0.460846,0.049467,0.080045,0.238064,37.991648,25.061798,3.338758,4.63583E+18,-0.437779,-0.486701,-0.532628,0.536451,0
-9.374689,0.123392,2.544287,0.030924,-0.09339,-0.008828,45.948791,-5.579975,7.192671,4.63583E+18,-0.787089,0.0642,-0.606127,-0.094759,-9.78125,1.131128,-0.351934,0.101589,-0.04627,0,39.434839,-23.028089,11.174209,4.63583E+18,-0.600524,0.274436,-0.674478,-0.330356,-9.576675,-1.836488,-0.421881,0.055206,0.078711,0.235596,38.232695,25.06711,3.234269,4.63583E+18,-0.438009,-0.487478,-0.532178,0.536004,0
-9.44984,0.158696,2.561637,0.0375,-0.1143,-0.011582,46.118962,-5.553152,7.134268,4.63583E+18,-0.787378,0.064092,-0.605777,-0.09467,-9.688824,1.168778,-0.387504,0.095522,-0.049929,-0.004884,39.587241,-23.03537,10.990118,4.63583E+18,-0.60078,0.274149,-0.674479,-0.330125,-9.674333,-1.722829,-0.528712,0.065561,0.074167,0.227986,38.583048,25.137387,3.028262,4.63583E+18,-0.438211,-0.488246,-0.531712,0.535602,0
-9.505732,0.148406,2.565472,0.04194,-0.136846,-0.014168,46.065502,-5.718911,7.105317,4.63583E+18,-0.787726,0.063967,-0.605354,-0.094568,-9.713964,1.11609,-0.368308,0.08432,-0.057041,-0.011202,39.600815,-22.87907,10.963291,4.63583E+18,-0.601053,0.273898,-0.67444,-0.329919,-9.765165,-1.563305,-0.585198,0.054815,0.080583,0.218705,38.50527,24.978708,2.86865,4.63583E+18,-0.438399,-0.488987,-0.5313,0.535181,0
-9.549415,0.14457,2.56678,0.043794,-0.16248,-0.016922,45.888241,-5.676973,6.968426,4.63583E+18,-0.788142,0.063816,-0.604848,-0.094437,-9.739422,1.021559,-0.332729,0.077454,-0.05768,-0.008819,39.444515,-22.71933,10.962248,4.63583E+18,-0.601315,0.273657,-0.674392,-0.329738,-9.749172,-1.580813,-0.57602,0.044059,0.071301,0.214698,38.368628,24.829859,3.075327,4.63583E+18,-0.43862,-0.48968,-0.530902,0.534761,0
-9.53974,0.168984,2.582825,0.036592,-0.176862,-0.017258,45.905671,-5.421315,6.843209,4.63583E+18,-0.788592,0.063682,-0.604292,-0.094325,-9.708019,0.901584,-0.307274,0.070069,-0.056703,-0.004638,39.508055,-22.850889,11.051552,4.63583E+18,-0.601561,0.273424,-0.674341,-0.329587,-9.675179,-1.676194,-0.608858,0.048331,0.068021,0.214632,38.389904,24.825323,3.43028,4.63583E+18,-0.438839,-0.490372,-0.530489,0.534357,0
-9.435629,0.172823,2.580906,0.023553,-0.157789,-0.015122,46.100379,-5.394448,6.8773,4.63583E+18,-0.78899,0.063593,-0.603794,-0.094248,-9.626754,0.835333,-0.2717,0.041107,-0.056612,0.000611,39.671626,-23.098858,11.160361,4.63583E+18,-0.601766,0.273248,-0.674257,-0.329531,-9.58746,-1.722113,-0.585199,0.052472,0.079043,0.213563,38.543308,24.747544,3.418942,4.63583E+18,-0.439023,-0.491093,-0.530089,0.533941,0
-9.350871,0.148411,2.582827,0.018777,-0.11445,-0.012986,46.210786,-5.596188,6.944091,4.63583E+18,-0.789277,0.063532,-0.603437,-0.094179,-9.675247,0.841266,-0.2574,0.022825,-0.049775,0.006929,39.753246,-22.964543,11.069309,4.63583E+18,-0.601922,0.27311,-0.674171,-0.329534,-9.473701,-1.53371,-0.572236,0.053946,0.079109,0.212032,38.621086,24.619952,3.235075,4.63583E+18,-0.439199,-0.491813,-0.529687,0.533531,0
-9.361156,0.129139,2.565477,0.019958,-0.090624,-0.0095,46.096403,-5.701482,6.917079,4.63583E+18,-0.789499,0.063484,-0.603158,-0.094133,-9.74744,0.875795,-0.267517,0.02527,-0.049135,0.00943,39.681382,-22.793656,11.059907,4.63583E+18,-0.602076,0.27296,-0.674094,-0.329536,-9.489687,-1.272708,-0.549333,0.045071,0.080309,0.202892,38.749437,24.768066,3.057897,4.63583E+18,-0.439371,-0.492499,-0.529327,0.533114,0
-9.349572,0.127217,2.530776,0.025131,-0.092311,-0.006409,46.069494,-5.585171,6.855418,4.63583E+18,-0.789729,0.063394,-0.602877,-0.094064,-9.731392,1.035193,-0.313209,0.028565,-0.046205,0.012543,39.752192,-22.857144,11.149199,4.63583E+18,-0.602222,0.272797,-0.674032,-0.329534,-9.56066,-1.139815,-0.549333,0.031384,0.083448,0.184868,38.602961,24.74228,3.161581,4.63583E+18,-0.439523,-0.493127,-0.529038,0.532694,0
-9.303966,0.159988,2.481952,0.031539,-0.096528,-0.005959,46.1684,-5.493331,6.889484,4.63583E+18,-0.789968,0.063299,-0.602584,-0.094005,-9.684654,1.049837,-0.339715,0.01712,-0.042024,0.015748,39.681383,-22.864466,10.978983,4.63583E+18,-0.602337,0.272659,-0.673968,-0.329566,-9.598037,-1.212305,-0.550842,0.021033,0.085188,0.169241,38.466281,24.505058,3.350864,4.63583E+18,-0.439658,-0.493706,-0.528808,0.532276,0
-9.294974,0.185037,2.47425,0.034349,-0.117217,-0.004441,46.096432,-5.493331,6.946012,4.63583E+18,-0.790262,0.063161,-0.602226,-0.093922,-9.669311,1.016356,-0.319487,0.006257,-0.047517,0.015046,39.528981,-22.719385,10.783687,4.63583E+18,-0.602457,0.272543,-0.673875,-0.329634,-9.644603,-1.274096,-0.575257,0.015956,0.080981,0.159694,38.476979,24.207281,3.436453,4.63583E+18,-0.439791,-0.494244,-0.5286,0.531873,0
-9.29176,0.170904,2.492237,0.026366,-0.144257,-0.001405,46.033478,-5.493331,6.863764,4.63583E+18,-0.79062,0.06303,-0.601776,-0.093875,-9.590143,0.923935,-0.239273,-0.02786,-0.04709,0.01886,39.515366,-22.77273,10.76693,4.63583E+18,-0.602532,0.272502,-0.67374,-0.329806,-9.658315,-1.353356,-0.59741,0.014888,0.078172,0.151479,38.470798,24.212552,3.344829,4.63583E+18,-0.439914,-0.494755,-0.528407,0.531487,0
-9.287906,0.186323,2.488383,0.009445,-0.157524,0.001968,46.149765,-5.457352,6.709575,4.63583E+18,-0.790994,0.063014,-0.601269,-0.093981,-9.571652,0.748156,-0.187301,-0.089566,-0.047975,0.028015,39.593483,-22.857134,10.778089,4.63583E+18,-0.602527,0.272589,-0.673529,-0.330176,-9.692678,-1.521248,-0.585955,0.014149,0.081245,0.14867,38.560768,24.282944,3.356123,4.63583E+18,-0.440026,-0.495266,-0.528226,0.531099,0
-9.322597,0.197248,2.548769,-0.01231,-0.164214,0.004553,46.174835,-5.40788,6.694147,4.63583E+18,-0.791389,0.062989,-0.60074,-0.094056,-9.615238,0.877506,-0.205428,-0.096042,-0.052949,0.037627,39.600815,-22.786356,10.767978,4.63583E+18,-0.602514,0.272659,-0.673307,-0.330593,-9.684397,-1.638804,-0.587461,0.018751,0.082116,0.152468,38.720215,24.125002,3.52794,4.63583E+18,-0.440134,-0.495795,-0.528029,0.530712,0
-9.340593,0.172833,2.612384,-0.036315,-0.157412,0.008208,46.01614,-5.51066,6.714721,4.63583E+18,-0.791759,0.063036,-0.600225,-0.094202,-9.630592,0.935774,-0.263318,-0.067819,-0.047549,0.044312,39.667767,-22.779015,10.945465,4.63583E+18,-0.60251,0.272647,-0.673144,-0.330942,-9.556142,-1.687628,-0.611873,0.028232,0.08044,0.165152,38.88509,23.992056,3.521927,4.63583E+18,-0.440254,-0.496366,-0.52778,0.530325,0
-9.331594,0.133004,2.566139,-0.048516,-0.150159,0.014728,45.955081,-5.723965,6.588166,4.63583E+18,-0.792101,0.063133,-0.599727,-0.09443,-9.709751,0.928812,-0.324355,-0.041724,-0.045046,0.051697,39.607108,-22.935234,11.140785,4.63583E+18,-0.602517,0.272551,-0.673033,-0.331233,-9.522526,-1.725937,-0.634785,0.035512,0.085715,0.175834,38.948563,24.07056,3.424269,4.63583E+18,-0.440371,-0.496985,-0.527504,0.529924,0
-9.348938,0.087384,2.49738,-0.045538,-0.168871,0.021194,46.064283,-5.756143,6.476994,4.63583E+18,-0.792491,0.063177,-0.599173,-0.094649,-9.705936,1.050491,-0.351914,-0.021949,-0.048767,0.050387,39.600815,-23.173062,10.990209,4.63583E+18,-0.602559,0.272405,-0.672938,-0.33147,-9.537732,-1.615127,-0.631035,0.039325,0.090315,0.186448,38.868374,24.219488,3.338621,4.63583E+18,-0.440493,-0.497644,-0.527204,0.529502,0
-9.373353,0.047557,2.603337,-0.041489,-0.201315,0.025578,46.192155,-5.628272,6.469924,4.63583E+18,-0.792961,0.063183,-0.598513,-0.09488,-9.682571,0.939317,-0.342858,-0.062273,-0.058897,0.054108,39.678915,-23.049025,10.795943,4.63583E+18,-0.602579,0.272335,-0.672766,-0.331841,-9.598014,-1.686637,-0.572251,0.037169,0.099731,0.196388,38.869122,24.205265,3.442258,4.63583E+18,-0.44062,-0.498341,-0.526906,0.529037,0
-9.351534,-0.003203,2.743462,-0.040029,-0.195872,0.032605,46.205684,-5.578784,6.469924,4.63583E+18,-0.793415,0.063166,-0.597874,-0.095126,-9.736249,0.894296,-0.330652,-0.11796,-0.068601,0.059356,39.686268,-22.87919,10.600646,4.63583E+18,-0.602555,0.272377,-0.672498,-0.332392,-9.649837,-1.89612,-0.551579,0.051251,0.10614,0.211408,38.880581,23.977815,3.631587,4.63583E+18,-0.440737,-0.499111,-0.526557,0.528562,0
-9.327719,-0.019279,2.650354,-0.036766,-0.184952,0.035418,46.08943,-5.542835,6.387756,4.63583E+18,-0.793841,0.063135,-0.597273,-0.09537,-9.663419,1.114252,-0.318444,-0.110148,-0.072358,0.057864,39.608178,-23.020644,10.583818,4.63583E+18,-0.602553,0.272399,-0.67223,-0.332921,-9.743753,-1.761092,-0.586704,0.067686,0.112679,0.227364,38.87609,23.828852,3.729246,4.63583E+18,-0.44084,-0.499959,-0.52615,0.528079,0
-9.352803,-0.043034,2.556485,-0.034688,-0.199067,0.033731,45.992356,-5.462505,6.233504,4.63583E+18,-0.794302,0.063096,-0.596626,-0.095607,-9.678367,1.068355,-0.216992,-0.132378,-0.079467,0.059632,39.455793,-23.180393,10.494574,4.63583E+18,-0.602542,0.272461,-0.671914,-0.333525,-9.768417,-1.630309,-0.595174,0.074291,0.121354,0.242513,38.812565,23.828852,3.820917,4.63583E+18,-0.440943,-0.500872,-0.525712,0.527564,0
-9.297532,-0.1163,2.604685,-0.028727,-0.181073,0.026814,46.021277,-5.456076,6.135815,4.63583E+18,-0.794723,0.063061,-0.596037,-0.095801,-9.713934,1.151278,-0.174063,-0.134587,-0.075231,0.054936,39.44212,-23.194067,10.486159,4.63583E+18,-0.602523,0.272547,-0.671601,-0.334119,-9.608975,-1.724487,-0.546345,0.084623,0.131905,0.260344,38.901752,23.82437,3.808965,4.63583E+18,-0.44104,-0.501865,-0.525232,0.527016,0
-9.276988,-0.19468,2.661214,-0.023387,-0.139645,0.01546,46.039896,-5.572365,6.166675,4.63583E+18,-0.795046,0.063053,-0.595586,-0.095934,-9.739401,1.159703,-0.137441,-0.104331,-0.073794,0.054476,39.520199,-23.115987,10.486159,4.63583E+18,-0.602535,0.272561,-0.671333,-0.334625,-9.44853,-1.565338,-0.504232,0.1052,0.139275,0.272704,39.044496,23.745914,3.614414,4.63583E+18,-0.441104,-0.502938,-0.524695,0.526475,0
-9.347018,-0.25957,2.635511,-0.013098,-0.121544,0.01085,46.028337,-5.664235,6.245689,4.63583E+18,-0.795329,0.06303,-0.595196,-0.096021,-9.808433,1.037008,-0.178898,-0.080978,-0.067846,0.058379,39.527573,-23.108614,10.396927,4.63583E+18,-0.602552,0.272514,-0.671116,-0.335068,-9.450767,-1.223254,-0.565269,0.113028,0.129637,0.277457,39.135168,23.587963,3.464857,4.63583E+18,-0.441183,-0.504015,-0.524111,0.525961,0
-9.339307,-0.255071,2.605317,0.004891,-0.105915,0.007365,46.204377,-5.664235,6.065796,4.63583E+18,-0.795579,0.062962,-0.594865,-0.096048,-9.792447,1.047727,-0.272333,-0.057574,-0.066317,0.056796,39.60564,-23.108614,10.310431,4.63583E+18,-0.602601,0.272397,-0.670941,-0.335426,-9.489626,-1.07276,-0.622578,0.108649,0.135851,0.273381,39.300851,23.454896,3.82586,4.63583E+18,-0.441247,-0.505087,-0.523556,0.525431,0
-9.289834,-0.204316,2.591828,0.020969,-0.089332,0.005172,46.388134,-5.664235,5.937288,4.63583E+18,-0.795771,0.06299,-0.59458,-0.096207,-9.779184,1.038684,-0.314228,-0.067254,-0.075008,0.058564,39.758009,-23.186684,10.213827,4.63583E+18,-0.602621,0.272367,-0.6707,-0.335895,-9.56287,-1.056547,-0.621832,0.086414,0.138403,0.272573,39.380339,23.528885,4.072332,4.63583E+18,-0.441351,-0.506121,-0.523055,0.524847,0
-9.31039,-0.167694,2.53786,0.03002,-0.093377,0.007308,46.254518,-5.695069,6.117172,4.63583E+18,-0.795996,0.062844,-0.5943,-0.096168,-9.744672,0.970713,-0.317392,-0.136671,-0.096331,0.067531,39.849787,-23.33905,10.205389,4.63583E+18,-0.602609,0.272455,-0.670319,-0.336605,-9.631641,-1.170866,-0.608882,0.067775,0.132164,0.275908,39.359203,23.608373,3.803501,4.63583E+18,-0.441513,-0.507113,-0.522576,0.524229,0
-9.323248,-0.167043,2.502518,0.038958,-0.119235,0.010344,46.07074,-5.778587,6.127522,4.63583E+18,-0.796286,0.062651,-0.593939,-0.096124,-9.696897,0.919774,-0.339698,-0.160697,-0.114859,0.057627,39.645273,-23.5089,10.29461,4.63583E+18,-0.602667,0.272544,-0.66987,-0.337322,-9.630897,-1.358442,-0.585955,0.060637,0.145372,0.281704,39.210923,23.582771,3.729212,4.63583E+18,-0.441674,-0.508133,-0.522123,0.523557,0
-9.307178,-0.179908,2.553887,0.050594,-0.125655,0.008772,46.13752,-5.768358,5.785096,4.63583E+18,-0.796583,0.062498,-0.593552,-0.096152,-9.681527,1.116279,-0.36411,-0.135038,-0.124234,0.052709,39.469112,-23.456759,10.392258,4.63583E+18,-0.602786,0.272569,-0.669429,-0.337966,-9.620178,-1.603634,-0.587444,0.091613,0.164599,0.295694,39.241732,23.351575,3.820173,4.63583E+18,-0.441757,-0.509282,-0.521608,0.522884,0
-9.324522,-0.163833,2.552678,0.049251,-0.108951,0.002755,46.265393,-5.604529,5.728413,4.63583E+18,-0.796853,0.062295,-0.593226,-0.096057,-9.713925,1.179893,-0.366222,-0.109033,-0.128876,0.048436,39.454327,-23.216248,10.300347,4.63583E+18,-0.602953,0.272533,-0.669006,-0.338531,-9.631641,-1.669443,-0.611856,0.121091,0.183433,0.32728,39.549435,23.135581,3.80871,4.63583E+18,-0.441805,-0.510593,-0.520995,0.522176,0
-9.261609,-0.222273,2.402319,0.036544,-0.141763,0.009328,46.34571,-5.505539,5.883968,4.63583E+18,-0.797198,0.062102,-0.592789,-0.096022,-9.728243,1.172968,-0.321623,-0.063888,-0.138026,0.035384,39.454327,-23.272115,10.123593,4.63583E+18,-0.603215,0.272408,-0.66861,-0.338949,-9.627928,-1.626555,-0.634042,0.127305,0.196316,0.351522,39.694019,22.982084,3.80871,4.63583E+18,-0.441862,-0.511995,-0.520338,0.521408,0
-9.155553,-0.277569,2.470289,0.02828,-0.162208,0.017429,46.321363,-5.608261,5.770974,4.63583E+18,-0.797588,0.061909,-0.592281,-0.096038,-9.751595,1.205352,-0.32854,-0.015925,-0.142761,0.028329,39.387446,-23.580488,10.018554,4.63583E+18,-0.603555,0.272175,-0.668261,-0.33922,-9.568381,-1.680568,-0.619612,0.131741,0.209811,0.371071,39.625233,22.903659,3.81464,4.63583E+18,-0.441923,-0.513476,-0.519654,0.520583,0
-9.201778,-0.287172,2.650942,0.025466,-0.125931,0.014505,46.162666,-5.78564,5.66163,4.63583E+18,-0.797888,0.061749,-0.591892,-0.096047,-9.831752,1.152792,-0.318452,0.025318,-0.146058,0.019968,39.537157,-23.765192,10.021219,4.63583E+18,-0.603962,0.271856,-0.667952,-0.339358,-9.535465,-1.794094,-0.57523,0.155889,0.217872,0.395249,39.630421,22.750153,3.912299,4.63583E+18,-0.441965,-0.515068,-0.518878,0.519747,0
-9.398926,-0.283386,2.611125,0.030298,-0.087791,0.0049,46.07074,-5.799195,5.761216,4.63583E+18,-0.798099,0.061613,-0.59163,-0.096001,-9.839167,1.069458,-0.317392,0.044448,-0.159017,0.012398,39.696913,-23.545909,9.933092,4.63583E+18,-0.604437,0.271492,-0.667629,-0.339439,-9.568033,-1.576932,-0.598904,0.18754,0.23386,0.412629,39.715871,22.676166,4.009958,4.63583E+18,-0.44194,-0.51679,-0.518024,0.518911,0
-9.526347,-0.296731,2.421767,0.037944,-0.097911,-0.000291,46.16827,-5.718888,5.687528,4.63583E+18,-0.798339,0.061457,-0.591335,-0.095919,-9.839167,1.140072,-0.295099,0.040078,-0.170951,0.004922,39.777565,-23.289581,9.924619,4.63583E+18,-0.604951,0.271143,-0.667261,-0.339527,-9.716352,-1.215901,-0.613335,0.183046,0.234283,0.417386,39.792429,22.581821,4.107617,4.63583E+18,-0.441932,-0.518511,-0.517168,0.518053,0
-9.320185,-0.35664,2.414892,0.041658,-0.169397,0.009613,46.302681,-5.815055,5.404803,4.63583E+18,-0.798752,0.061238,-0.590806,-0.095881,-9.783433,1.192083,-0.281831,0.043423,-0.187577,-0.00353,39.639021,-23.278458,9.74627,4.63583E+18,-0.605527,0.270785,-0.666845,-0.339603,-9.690831,-0.961054,-0.662898,0.234472,0.263087,0.412597,39.739534,22.354346,4.188251,4.63583E+18,-0.441739,-0.520377,-0.516262,0.517251,0
-9.194685,-0.262174,2.779981,0.035818,-0.094575,0.00557,46.302681,-6.006042,5.249183,4.63583E+18,-0.798977,0.061097,-0.590521,-0.095852,-9.700103,1.274353,-0.347651,0.054523,-0.208569,-0.014026,39.547204,-23.424427,9.7293,4.63583E+18,-0.606187,0.270399,-0.66638,-0.339645,-9.472207,-1.123773,-0.722452,0.42887,0.370609,0.400943,39.822372,22.210436,4.00959,4.63583E+18,-0.440865,-0.522804,-0.515156,0.516651,0
-9.306484,-0.235133,2.662162,0.028221,-0.035944,0,46.338614,-5.831514,5.321048,4.63583E+18,-0.799057,0.061025,-0.590426,-0.095817,-9.625805,1.526977,-0.342869,0.065296,-0.216276,-0.029582,39.53978,-23.293324,9.807319,4.63583E+18,-0.606903,0.270017,-0.665893,-0.339626,-9.476271,-1.479691,-0.75538,0.482545,0.417776,0.407353,40.041023,22.281842,3.918204,4.63583E+18,-0.439783,-0.52544,-0.514002,0.516048,0
-9.373345,-0.261489,2.328422,0.029738,-0.095711,-0.000898,46.418932,-5.590991,5.379022,4.63583E+18,-0.799284,0.06093,-0.590132,-0.095795,-9.66401,1.572628,-0.330663,0.075976,-0.228535,-0.051453,39.461771,-23.123502,9.636448,4.63583E+18,-0.607695,0.269652,-0.665365,-0.339535,-9.719308,-0.949224,-0.722846,0.406878,0.38415,0.414019,40.04806,22.129463,4.107594,4.63583E+18,-0.438948,-0.527875,-0.512931,0.515339,0
-9.30025,-0.273695,2.38931,0.028731,-0.134124,-0.00034,46.425454,-5.693629,5.245449,4.63583E+18,-0.799605,0.060823,-0.589709,-0.095789,-9.857732,1.351851,-0.318455,0.048626,-0.254032,-0.06511,39.454327,-23.186631,9.452256,4.63583E+18,-0.608546,0.269357,-0.664717,-0.339514,-9.742634,-0.910736,-0.579658,0.319284,0.344365,0.424507,39.993281,21.891216,4.193436,4.63583E+18,-0.438411,-0.530083,-0.511947,0.514508,0
-9.231269,-0.26538,2.610253,0.03192,-0.089605,-0.005046,46.381057,-5.799227,5.257312,4.63583E+18,-0.799819,0.060736,-0.589434,-0.09575,-9.898077,1.130015,-0.384256,0.008877,-0.280733,-0.075001,39.610345,-23.338938,9.436323,4.63583E+18,-0.609439,0.269152,-0.663933,-0.339608,-9.57135,-1.008274,-0.674389,0.264648,0.33283,0.431923,40.23057,21.758812,4.112871,4.63583E+18,-0.438032,-0.532178,-0.51104,0.513569,0
-9.368734,-0.269799,2.651138,0.039243,-0.040649,-0.012261,46.352222,-5.749687,5.420087,4.63583E+18,-0.799918,0.060658,-0.589324,-0.095652,-9.833349,1.289154,-0.568917,-0.000509,-0.316208,-0.096313,39.770084,-23.196767,9.436323,4.63583E+18,-0.610449,0.268979,-0.663021,-0.339713,-9.5843,-0.732745,-0.720237,0.208303,0.308591,0.438071,40.534533,21.82937,4.301915,4.63583E+18,-0.43784,-0.534129,-0.510192,0.512549,0
-9.281179,-0.335967,2.451215,0.038283,-0.121239,-0.004954,46.235988,-5.785599,5.307222,4.63583E+18,-0.80021,0.060536,-0.588947,-0.095605,-9.815816,1.451061,-0.563668,-0.011794,-0.353504,-0.122646,39.783928,-23.036991,9.347173,4.63583E+18,-0.611586,0.268855,-0.661967,-0.339823,-9.610203,-0.541147,-0.727679,0.156354,0.289429,0.439947,40.626984,21.652068,4.571522,4.63583E+18,-0.437806,-0.535945,-0.509414,0.511455,0
-9.171995,-0.280955,2.647216,0.027401,-0.122888,-0.003591,46.072161,-5.804357,5.146394,4.63583E+18,-0.800509,0.060416,-0.588563,-0.095547,-9.859322,1.398033,-0.528113,-0.006968,-0.390885,-0.162022,39.717071,-23.246013,9.082385,4.63583E+18,-0.612885,0.268773,-0.660779,-0.33986,-9.661265,-0.425469,-0.846031,0.111466,0.271531,0.437615,40.634726,21.19712,4.663972,4.63583E+18,-0.437903,-0.537633,-0.508701,0.510308,0
-9.35282,-0.182392,2.907519,0.000808,-0.084804,-0.006301,46.008983,-5.690088,5.216252,4.63583E+18,-0.800708,0.060405,-0.588295,-0.095535,-9.930437,1.458498,-0.747766,0.098887,-0.425345,-0.218211,39.93353,-23.267311,8.790476,4.63583E+18,-0.614577,0.268326,-0.659668,-0.339314,-9.745964,-0.594125,-0.893692,0.082889,0.257452,0.43247,40.572209,20.903531,4.675436,4.63583E+18,-0.438081,-0.539227,-0.508032,0.509139,0
-9.384809,-0.216559,2.928075,-0.019099,-0.1323,-0.007691,46.094424,-5.590991,5.281409,4.63583E+18,-0.80102,0.060443,-0.58786,-0.095577,-10.159674,1.698879,-0.847063,0.317592,-0.467326,-0.278816,40.166536,-22.877327,8.586637,4.63583E+18,-0.616577,0.267686,-0.658582,-0.3383,-9.808068,-0.742519,-0.740195,0.059621,0.238802,0.431568,40.491959,20.972319,4.675436,4.63583E+18,-0.438348,-0.540734,-0.507378,0.507962,0
-9.443403,-0.236337,3.397574,-0.028669,-0.097991,-0.023307,46.174749,-5.560227,5.18375,4.63583E+18,-0.801251,0.060565,-0.587532,-0.095581,-10.34809,2.022052,-0.687402,0.485711,-0.499324,-0.345542,40.26476,-22.773206,8.569597,4.63583E+18,-0.618942,0.26675,-0.65757,-0.336686,-9.705628,-1.133988,-0.669922,0.059276,0.197506,0.449337,40.501613,20.963407,4.675436,4.63583E+18,-0.438738,-0.542188,-0.506608,0.506843,0
-9.354296,-0.313484,3.810412,-0.021834,-0.047214,-0.043494,46.217228,-5.481859,5.045082,4.63583E+18,-0.801367,0.060733,-0.587371,-0.095489,-10.531199,2.262521,-0.437448,0.536937,-0.506904,-0.436231,40.272224,-22.989626,8.836979,4.63583E+18,-0.621536,0.265854,-0.656527,-0.334645,-9.725989,-1.834376,-0.644769,0.102222,0.180746,0.46102,40.661031,20.816194,4.686554,4.63583E+18,-0.439089,-0.543708,-0.505687,0.505829,0
-9.261508,-0.295675,4.028175,0.004119,-0.007182,-0.064172,46.247984,-5.504056,4.936917,4.63583E+18,-0.801393,0.060924,-0.587344,-0.095312,-10.758874,2.505603,-0.381629,0.511238,-0.532716,-0.522336,40.417055,-22.788137,8.862575,4.63583E+18,-0.624283,0.265222,-0.655277,-0.332475,-9.871735,-1.245764,-0.612594,0.128758,0.200552,0.471183,40.826744,20.662686,4.858547,4.63583E+18,-0.439358,-0.545337,-0.504722,0.504805,0
-9.315463,-0.231941,4.19348,0.046993,-0.001363,-0.082631,46.362235,-5.567317,4.979879,4.63583E+18,-0.801427,0.061,-0.587351,-0.09494,-10.812552,2.738559,-0.656886,0.451912,-0.593618,-0.624337,40.642547,-22.299001,8.762331,4.63583E+18,-0.627263,0.264933,-0.653664,-0.330264,-9.97567,-0.107278,-0.65587,0.102866,0.19641,0.472154,40.911448,20.584272,4.858547,4.63583E+18,-0.439694,-0.546909,-0.503799,0.503732,0
-9.294494,-0.22169,4.271846,0.108021,-0.061895,-0.091624,46.461376,-5.445993,5.065327,4.63583E+18,-0.801631,0.060847,-0.587179,-0.094372,-10.982849,2.625201,-1.017794,0.428941,-0.686953,-0.761096,40.796532,-21.875359,8.574479,4.63583E+18,-0.630649,0.264944,-0.651612,-0.327855,-9.614626,0.126513,-0.806058,0.07477,0.194597,0.455128,40.995787,20.421878,4.864465,4.63583E+18,-0.440061,-0.548389,-0.502968,0.502633,0
-9.175599,-0.197278,4.382906,0.17644,-0.138396,-0.099891,46.389644,-5.418576,5.002179,4.63583E+18,-0.802033,0.060511,-0.586771,-0.093705,-11.165962,2.345037,-1.473136,0.44188,-0.769442,-0.894202,40.809349,-21.616255,8.200927,4.63583E+18,-0.634439,0.265162,-0.649198,-0.325145,-9.347172,0.179783,-0.99139,0.076194,0.194824,0.439365,41.232168,20.205842,4.962124,4.63583E+18,-0.440388,-0.549836,-0.502168,0.501564,0
-9.026706,-0.147246,4.462786,0.251288,-0.216736,-0.104507,46.290474,-5.517746,4.723374,4.63583E+18,-0.802649,0.059892,-0.58613,-0.092842,-11.271075,2.363954,-1.925779,0.474464,-0.840858,-1.031496,40.876171,-21.361024,7.89947,4.63583E+18,-0.638605,0.265598,-0.646451,-0.322089,-9.288355,-0.083228,-0.837873,0.099629,0.150318,0.428263,41.153748,20.051585,5.053865,4.63583E+18,-0.440731,-0.551207,-0.501261,0.500664,0
-8.709617,-0.010555,4.517187,0.33115,-0.32834,-0.103057,46.321216,-5.379405,4.589228,4.63583E+18,-0.803553,0.058961,-0.585145,-0.091819,-11.569191,2.401646,-2.087894,0.418995,-0.91915,-1.174156,41.172143,-20.881943,7.606499,4.63583E+18,-0.643103,0.266423,-0.643251,-0.31885,-9.275756,-0.427259,-0.777188,0.122122,0.129246,0.428099,41.023866,19.962452,5.053865,4.63583E+18,-0.441064,-0.552574,-0.500267,0.499857,0
-8.26312,0.176457,4.740493,0.390645,-0.389597,-0.103372,46.363716,-5.121556,4.715648,4.63583E+18,-0.804626,0.057764,-0.583979,-0.090603,-12.109375,2.371445,-2.155363,0.351001,-1.0021,-1.33582,41.567534,-20.448212,7.491694,4.63583E+18,-0.647937,0.267731,-0.639533,-0.315428,-9.444445,-0.433166,-0.90704,0.141939,0.128471,0.443019,41.332396,19.815225,5.059033,4.63583E+18,-0.441382,-0.554004,-0.499194,0.499065,0
-7.869761,0.396615,4.895936,0.426057,-0.440175,-0.118363,46.332985,-5.131891,4.78607,4.63583E+18,-0.80583,0.056465,-0.58265,-0.089263,-12.615177,2.880523,-2.305487,0.149146,-1.063969,-1.462201,41.959202,-20.098952,7.215859,4.63583E+18,-0.652842,0.269825,-0.635208,-0.312255,-9.577987,-0.526395,-0.968814,0.104102,0.119141,0.474318,41.483365,19.6521,5.134149,4.63583E+18,-0.441871,-0.555409,-0.498109,0.498156,0
-7.499154,0.578871,4.846339,0.428012,-0.485816,-0.132727,46.285351,-5.242861,4.495695,4.63583E+18,-0.807141,0.055209,-0.581158,-0.087924,-13.44977,3.842972,-3.076691,-0.053856,-1.075063,-1.569446,42.283017,-19.456462,6.833792,4.63583E+18,-0.657649,0.272724,-0.630429,-0.30932,-9.721416,-0.577334,-1.039103,0.061243,0.166384,0.511985,41.339425,19.424608,5.05976,4.63583E+18,-0.442437,-0.556908,-0.497109,0.496976,0
-6.923409,0.41694,4.375144,0.407062,-0.365267,-0.125624,46.308996,-5.133772,4.075656,4.63583E+18,-0.808144,0.054066,-0.580061,-0.086655,-13.804216,4.320562,-2.949053,-0.321999,-1.026903,-1.737557,42.522454,-18.796191,6.532247,4.63583E+18,-0.662196,0.276843,-0.625203,-0.306554,-10.17982,-1.12006,-1.035517,0.049042,0.248382,0.572151,41.444773,19.262226,5.168472,4.63583E+18,-0.442983,-0.558676,-0.496144,0.495468,0
-6.178049,0.387935,3.252162,0.389598,-0.250843,-0.128906,46.35663,-5.005813,4.072973,4.63583E+18,-0.808866,0.053027,-0.579339,-0.085386,-12.995849,2.865927,-3.007723,-0.591611,-0.978373,-1.868776,42.75437,-18.270686,6.15022,4.63583E+18,-0.666422,0.282087,-0.619567,-0.304048,-10.327564,-2.778867,-0.601211,0.035167,0.295823,0.655752,41.835507,19.041757,5.444083,4.63583E+18,-0.443633,-0.560685,-0.495096,0.493662,0
-5.968694,0.50754,2.825494,0.406109,-0.10153,-0.101769,46.430288,-4.956206,4.276936,4.63583E+18,-0.809225,0.051875,-0.579134,-0.084072,-12.514571,1.742365,-2.681177,-0.764324,-0.901077,-1.927682,43.053117,-17.613224,5.581426,4.63583E+18,-0.670263,0.288038,-0.613803,-0.301707,-9.938738,-2.580612,-0.325189,0.102529,0.379604,0.757394,41.837417,18.809108,5.622465,4.63583E+18,-0.444156,-0.563194,-0.493822,0.491607,0
-6.519549,0.480426,2.953005,0.461992,0.279274,0.027188,46.522415,-4.992041,4.256837,4.63583E+18,-0.808628,0.050357,-0.580259,-0.082975,-11.496198,0.100412,-2.281594,-0.83908,-0.820975,-1.961505,43.447338,-17.019827,5.084605,4.63583E+18,-0.673792,0.294358,-0.608074,-0.29934,-9.748713,-0.49756,-1.255599,0.133724,0.4043,0.808202,41.69343,18.570843,5.542161,4.63583E+18,-0.444654,-0.565909,-0.492404,0.489457,0
-6.479383,1.273892,1.909489,0.496999,0.426675,0.078561,46.486581,-5.041657,4.150517,4.63583E+18,-0.807659,0.048648,-0.581899,-0.081938,-10.277356,-1.406965,-0.698778,-0.722172,-0.698014,-1.897113,43.772209,-16.589793,4.863541,4.63583E+18,-0.677014,0.300314,-0.602863,-0.29668,-9.275128,0.544622,-1.995689,0.107342,0.432612,0.798254,41.784029,18.414062,5.559073,4.63583E+18,-0.44513,-0.568605,-0.491108,0.487197,0
-5.110943,1.928374,0.797419,0.466918,0.369133,0.08759,46.436962,-4.969986,4.268263,4.63583E+18,-0.806815,0.046998,-0.583333,-0.081015,-8.276532,-2.19485,-0.660641,-0.311975,-0.447229,-1.600386,44.000518,-15.86313,4.657115,4.63583E+18,-0.67971,0.304659,-0.599199,-0.293494,-9.088988,1.22781,-2.087466,0.159462,0.485243,0.734646,41.950509,18.0923,5.828803,4.63583E+18,-0.445239,-0.571365,-0.489948,0.485031,0
-4.086717,2.155548,1.158074,0.327489,0.413587,0.119708,46.472792,-4.834924,4.549013,4.63583E+18,-0.80582,0.045753,-0.584872,-0.080528,-4.753907,2.828956,-2.285548,0.161955,-0.126969,-1.055093,44.142349,-15.039403,4.360513,4.63583E+18,-0.681585,0.30654,-0.597765,-0.29009,-9.787941,1.042543,-2.052237,0.055933,0.523649,0.698721,42.051839,17.69726,5.915453,4.63583E+18,-0.445437,-0.573931,-0.489147,0.482622,0
-5.097331,2.511201,1.246453,0.086163,-0.332433,0.112761,46.522415,-4.851835,4.671114,4.63583E+18,-0.806597,0.045085,-0.583823,-0.080748,-2.761668,5.579966,-3.354206,0.359847,0.168591,-0.657429,44.376795,-14.73253,4.422674,4.63583E+18,-0.682391,0.307417,-0.597808,-0.287165,-10.090315,-0.626049,-1.520591,-0.061356,0.530811,0.71741,42.211267,17.256866,5.852017,4.63583E+18,-0.445933,-0.576323,-0.488544,0.479917,0
-6.93089,2.348564,0.279693,-0.06687,-1.963319,0.158612,46.486591,-4.949116,4.297103,4.63583E+18,-0.811268,0.044269,-0.577229,-0.081797,-3.657463,5.40899,-3.943308,0.171392,0.458307,-0.353077,44.398327,-14.632015,4.509193,4.63583E+18,-0.681863,0.308418,-0.598833,-0.285202,-9.438521,-0.996854,-1.873106,0.101474,0.581542,0.711322,42.377758,17.18363,6.143743,4.63583E+18,-0.445916,-0.5791,-0.487717,0.477425,0
-7.259963,2.367817,0.203879,-0.113499,-3.070474,0.090007,46.426727,-4.930616,3.258744,4.63583E+18,-0.818524,0.043393,-0.566797,-0.082922,-4.338668,6.261701,-3.791471,0.025067,0.613403,-0.087268,44.164586,-14.557686,4.783872,4.63583E+18,-0.680441,0.309353,-0.600463,-0.284158,-9.486862,0.069828,-2.716391,0.146421,0.603268,0.711216,42.470287,17.095734,6.586383,4.63583E+18,-0.44574,-0.581994,-0.486834,0.474965,0
-5.946513,2.466698,0.879668,-0.118942,-3.007223,0.037736,46.473953,-4.971925,2.030143,4.63583E+18,-0.825516,0.042673,-0.55648,-0.083856,-5.3184,4.021819,-3.05981,-0.102093,0.729159,0.11412,44.064065,-14.62913,5.065691,4.63583E+18,-0.678321,0.310279,-0.602525,-0.28385,-9.728322,0.774682,-2.612141,0.060308,0.564196,0.725208,42.482494,16.779077,6.689657,4.63583E+18,-0.445872,-0.58467,-0.486008,0.472392,0
-4.652721,2.232874,1.034487,-0.107788,-2.246566,0.005278,46.620433,-5.185725,1.159876,4.63583E+18,-0.830658,0.042252,-0.548709,-0.084508,-4.884807,2.872779,-2.935168,-0.206709,0.818037,0.329065,44.067647,-14.792485,5.357588,4.63583E+18,-0.675581,0.311063,-0.604985,-0.284295,-10.117453,0.631933,-2.418528,-0.005968,0.532219,0.727274,42.4947,16.487086,6.70647,4.63583E+18,-0.446229,-0.587157,-0.485241,0.469753,0
-4.492174,1.880426,1.222904,-0.077844,-1.525719,0.005602,46.736211,-5.303949,0.438947,4.63583E+18,-0.834094,0.042036,-0.543403,-0.085051,-4.989941,1.603593,-2.128474,-0.171945,0.800359,0.472863,43.912918,-14.80758,5.650566,4.63583E+18,-0.67275,0.311361,-0.607615,-0.285073,-10.447857,-0.045535,-2.428324,-0.123335,0.499644,0.780848,42.511296,16.388477,6.982122,4.63583E+18,-0.447037,-0.589462,-0.484504,0.46685,0
-5.069944,1.735433,1.258085,-0.085188,-1.473119,0.054887,46.773658,-5.225602,-0.145452,4.63583E+18,-0.837363,0.041729,-0.538267,-0.085738,-6.12895,-0.491457,-0.904673,-0.001198,0.703459,0.492729,43.819927,-14.963371,5.932384,4.63583E+18,-0.670379,0.310955,-0.610221,-0.285535,-10.153211,-0.928105,-2.212264,-0.227384,0.445035,0.868774,42.597465,16.078222,7.171581,4.63583E+18,-0.448375,-0.591634,-0.483645,0.463699,0
-5.725088,1.603638,0.698817,-0.105993,-2.007001,0.10563,46.694977,-5.216845,-0.772981,4.63583E+18,-0.841768,0.041149,-0.531244,-0.086677,-6.460538,-1.651728,0.92019,0.09869,0.635875,0.38638,43.901393,-15.201038,6.235406,4.63583E+18,-0.668428,0.310457,-0.612612,-0.28553,-8.916719,-0.448858,-2.092902,-0.160443,0.436397,0.928392,42.690017,15.687629,7.280879,4.63583E+18,-0.449672,-0.594025,-0.482484,0.460585,0
-5.648422,1.639901,0.670728,-0.12054,-2.500656,0.117295,46.524069,-5.350301,-1.780922,4.63583E+18,-0.847185,0.040413,-0.522438,-0.087767,-6.426492,-1.93483,3.156218,-0.178473,0.552313,0.19391,43.75424,-15.222631,6.429314,4.63583E+18,-0.666555,0.31112,-0.614187,-0.285802,-8.428933,1.133104,-2.552634,-0.198181,0.392985,0.980863,42.712417,15.30209,7.568032,4.63583E+18,-0.451242,-0.596356,-0.481176,0.457395,0
-4.74616,1.91145,1.29128,-0.215129,-2.579666,0.125403,46.41453,-5.426033,-2.894211,4.63583E+18,-0.852659,0.039959,-0.513262,-0.089095,-7.455725,-3.143567,5.192672,-0.458274,0.356881,-0.016497,43.739124,-15.155881,6.445509,4.63583E+18,-0.665067,0.312864,-0.614609,-0.286458,-8.533871,1.064451,-2.386995,-0.201934,0.358467,0.9683,42.894073,14.996178,7.757525,4.63583E+18,-0.452857,-0.598578,-0.479831,0.454299,0
-3.625376,1.781651,1.430137,-0.367573,-2.381893,0.15511,46.400341,-5.352789,-3.735892,4.63583E+18,-0.857581,0.040053,-0.504681,-0.090811,-7.600887,-4.416495,5.616032,-0.865403,0.279217,-0.283501,43.817008,-15.216144,6.445509,4.63583E+18,-0.663558,0.316323,-0.613976,-0.287514,-8.769565,0.567062,-2.483771,-0.123206,0.365968,0.962427,43.049117,14.679548,7.855173,4.63583E+18,-0.454242,-0.600939,-0.478357,0.451343,0
-2.708542,1.509148,0.896193,-0.452547,-2.155102,0.177265,46.390118,-5.351112,-4.519683,4.63583E+18,-0.861925,0.040485,-0.496836,-0.092739,-7.404963,-5.441191,5.984694,-1.117713,0.044689,-0.592842,43.902453,-15.300506,6.534508,4.63583E+18,-0.662672,0.320984,-0.611971,-0.288663,-9.212811,1.235128,-2.354285,-0.197175,0.32534,0.996391,43.151137,14.374363,7.952106,4.63583E+18,-0.455948,-0.60314,-0.476852,0.448269,0
-2.139695,1.326346,0.577721,-0.483649,-1.906215,0.176989,46.27372,-5.515197,-5.418687,4.63583E+18,-0.865683,0.041123,-0.489834,-0.094682,-7.541208,-7.721278,5.139495,-1.911449,0.152854,-1.001156,43.976769,-15.152355,6.45418,4.63583E+18,-0.660905,0.328991,-0.60873,-0.290548,-8.92972,1.273203,-1.924994,-0.207221,0.319134,0.993886,43.316953,14.064094,8.03901,4.63583E+18,-0.457678,-0.605295,-0.47535,0.445187,0
-1.889871,1.422888,0.896853,-0.529653,-1.584372,0.128025,45.993792,-5.669346,-6.107696,4.63583E+18,-0.868745,0.042151,-0.483939,-0.096481,-13.118722,-27.33625,10.538331,-1.419257,-0.94023,-1.658301,44.194642,-14.681069,5.744654,4.63583E+18,-0.66332,0.335955,-0.60212,-0.290847,-8.491757,1.410373,-1.645584,-0.217056,0.328323,1.005032,43.394419,13.659724,8.165543,4.63583E+18,-0.459427,-0.607457,-0.473846,0.442032,0
-2.038595,1.773738,1.88524,-0.62418,-1.272186,0.081527,45.797068,-5.610024,-6.547964,4.63583E+18,-0.871144,0.043738,-0.479107,-0.098243,-24.227384,-33.751776,23.686133,0.675047,-1.327191,-1.482137,44.281956,-14.180614,5.309368,4.63583E+18,-0.669367,0.336192,-0.597172,-0.286895,-9.237134,2.54652,-1.207688,-0.377479,0.264689,1.055721,43.354289,13.045848,8.544578,4.63583E+18,-0.46179,-0.609283,-0.472378,0.438615,0
-2.696334,1.970501,2.511336,-0.764888,-1.087355,0.082619,45.820623,-5.487093,-6.974355,4.63583E+18,-0.87312,0.045908,-0.474872,-0.100253,-13.599854,1.401759,8.44164,1.22413,-1.07605,-1.005536,44.277337,-13.757979,5.184612,4.63583E+18,-0.674941,0.333987,-0.594206,-0.282534,-9.893936,0.486378,-1.025656,-0.447386,0.23056,1.082509,43.465722,12.579916,8.727568,4.63583E+18,-0.464437,-0.61095,-0.470893,0.435085,0
-3.492716,1.824307,2.297554,-0.746415,-1.039781,0.109049,45.863213,-5.516038,-7.450477,4.63583E+18,-0.874968,0.047977,-0.47081,-0.102311,-1.073456,24.436714,5.801675,0.022197,-1.265965,-0.685891,44.576581,-13.487531,4.819992,4.63583E+18,-0.678903,0.334132,-0.589707,-0.282298,-9.020548,-0.202546,-1.452896,-0.377751,0.278407,1.143057,43.780805,12.270464,8.722587,4.63583E+18,-0.46691,-0.612942,-0.469208,0.431442,0
-4.174032,1.498977,2.51636,-0.703483,-0.918775,0.168364,45.858104,-5.615406,-7.844796,4.63583E+18,-0.876539,0.049824,-0.467207,-0.104475,-3.177638,10.906229,2.408743,-1.581389,-1.159632,-0.784587,44.817169,-13.153349,4.262568,4.63583E+18,-0.680449,0.33916,-0.583452,-0.285559,-9.00834,1.612729,-2.02561,-0.387033,0.270225,1.177209,43.85758,11.886202,8.837531,4.63583E+18,-0.469471,-0.614951,-0.467424,0.427723,0
-4.896742,1.429655,3.333932,-0.750878,-0.693853,0.230365,45.881656,-5.548998,-8.130655,4.63583E+18,-0.877617,0.051819,-0.464407,-0.106908,-9.697325,0.491077,1.475763,-1.702771,-1.172493,-1.143285,44.837791,-12.744815,3.588729,4.63583E+18,-0.682222,0.345361,-0.576457,-0.288091,-8.95127,1.476653,-1.793577,-0.354276,0.233338,1.146067,43.805952,11.415182,9.021271,4.63583E+18,-0.471953,-0.616882,-0.465576,0.424212,0
-5.934032,1.565665,3.570874,-0.772816,-0.608883,0.246598,45.888493,-5.456709,-8.382767,4.63583E+18,-0.878502,0.053901,-0.461904,-0.109422,-14.384777,-5.850393,-2.932595,-1.70633,-1.089324,-1.267603,45.049108,-12.396494,2.994089,4.63583E+18,-0.683872,0.351936,-0.56946,-0.29013,-8.189512,2.089121,-1.381533,-0.278458,0.185644,1.162903,43.902879,11.029644,9.027048,4.63583E+18,-0.47435,-0.618895,-0.463446,0.420926,0
-7.119824,1.479702,3.364391,-0.833302,-0.731841,0.190149,45.736645,-5.558862,-8.608721,4.63583E+18,-0.879619,0.056255,-0.458901,-0.111872,-14.638598,-4.493979,-6.226136,-1.022848,-1.109184,-1.206377,45.136457,-11.910157,2.497163,4.63583E+18,-0.686442,0.356365,-0.563276,-0.290726,-7.602462,2.698558,-1.255403,-0.23282,0.109932,1.171993,43.98905,10.723739,9.130484,4.63583E+18,-0.476779,-0.620868,-0.461051,0.417896,0
-8.037682,1.254005,3.907207,-1.029719,-0.883334,0.075952,45.558904,-5.741712,-9.040683,4.63583E+18,-0.88101,0.059475,-0.455212,-0.114312,-12.422627,-1.26222,-2.870171,-0.454879,-1.056479,-1.366892,44.453513,-10.887,2.164557,4.63583E+18,-0.689885,0.359589,-0.557657,-0.289435,-8.047925,2.717972,-1.880933,-0.127665,0.036364,1.122805,44.091023,10.397734,9.320015,4.63583E+18,-0.478981,-0.622812,-0.458443,0.415346,0
-8.772324,1.076009,4.951644,-1.255225,-0.887172,-0.100138,45.473457,-5.665756,-9.587514,4.63583E+18,-0.882366,0.063996,-0.451321,-0.11681,-12.340848,-1.075589,2.433859,-0.042954,-1.049111,-1.39882,43.763375,-9.812749,1.669238,4.63583E+18,-0.693928,0.361693,-0.552479,-0.287068,-9.730294,2.758555,-3.101538,-0.089236,-0.032931,1.091773,44.261929,9.929528,9.401097,4.63583E+18,-0.481152,-0.62464,-0.455702,0.413102,0
-9.700485,1.104226,5.423853,-1.330872,-0.723944,-0.304798,45.418643,-5.307542,-9.865806,4.63583E+18,-0.883495,0.069113,-0.447939,-0.11837,-10.830578,-0.597219,5.19698,-0.036665,-1.042111,-1.305969,43.680266,-9.116662,1.345608,4.63583E+18,-0.697819,0.363555,-0.547441,-0.28493,-10.927834,1.339029,-3.720466,-0.151685,-0.063143,1.094919,44.418416,9.391681,9.21294,4.63583E+18,-0.483538,-0.626285,-0.452989,0.410803,0
-10.732781,1.358357,5.075375,-1.220807,-0.559318,-0.442682,45.447277,-5.03544,-10.018512,4.63583E+18,-0.884383,0.074159,-0.44516,-0.119165,-8.12412,-1.260946,4.297073,-0.489005,-0.968476,-1.195549,43.822635,-8.746563,1.140496,4.63583E+18,-0.700693,0.36655,-0.542221,-0.28402,-11.100634,0.600676,-4.00525,-0.191281,-0.048256,1.11528,44.350216,8.851721,8.960954,4.63583E+18,-0.486024,-0.6279,-0.450311,0.408341,0
-11.550223,1.541469,5.218371,-0.954874,-0.508244,-0.472878,45.558256,-4.957091,-10.254673,4.63583E+18,-0.885247,0.078305,-0.44268,-0.119336,-6.205933,-4.210414,2.641606,-0.768449,-0.928254,-1.107811,43.825666,-8.104544,0.767275,4.63583E+18,-0.702913,0.370194,-0.536896,-0.283922,-10.1342,2.231858,-2.918063,-0.281935,-0.051208,1.153289,44.371772,8.461847,8.983231,4.63583E+18,-0.488806,-0.629383,-0.447672,0.40563,0
-12.227812,1.622476,6.826345,-0.712787,-0.453343,-0.398926,45.643482,-4.774653,-10.547636,4.63583E+18,-0.886008,0.081545,-0.44052,-0.119507,-6.187211,-6.571568,1.345059,-0.595943,-0.950312,-1.045709,44.102553,-7.433137,-0.057001,4.63583E+18,-0.705345,0.373151,-0.531784,-0.283642,-9.194333,2.73078,-0.765449,-0.345319,-0.048818,1.183195,44.542678,8.078383,9.161307,4.63583E+18,-0.491788,-0.630781,-0.445055,0.402723,0
-12.815298,1.025536,8.54244,-0.565259,-0.387388,-0.263999,45.572027,-4.487906,-10.764035,4.63583E+18,-0.886636,0.083968,-0.438726,-0.119773,-8.247984,-5.08442,0.776907,-0.357817,-0.963494,-1.006312,44.963985,-7.595731,-0.556954,4.63583E+18,-0.708102,0.375292,-0.526955,-0.28296,-9.226639,1.904374,-0.599015,-0.277145,-0.02683,1.195761,44.708545,7.613785,9.248178,4.63583E+18,-0.494559,-0.632363,-0.442324,0.399848,0
-13.136459,-0.505942,9.051692,-0.376049,-0.390767,-0.137813,45.436859,-4.345836,-10.909609,4.63583E+18,-0.887278,0.085417,-0.437063,-0.120074,-9.359528,-2.472742,1.032738,-0.279049,-0.956752,-0.979635,45.812738,-8.362595,-0.653773,4.63583E+18,-0.710911,0.377136,-0.522262,-0.282163,-9.22017,2.093213,-2.045075,-0.197985,-0.031227,1.205938,44.789681,7.142775,9.173502,4.63583E+18,-0.497133,-0.634102,-0.439414,0.3971,0
-13.247038,-1.841094,9.784407,-0.218177,-0.246059,-0.050237,45.422832,-4.310129,-11.023285,4.63583E+18,-0.887665,0.086195,-0.436044,-0.12036,-9.415165,-1.144011,2.096379,-0.245224,-1.002704,-1.040611,46.032214,-8.201756,-1.0151,4.63583E+18,-0.71392,0.378945,-0.517359,-0.281174,-9.714204,1.921613,-3.132991,-0.167826,-0.072947,1.243197,44.802606,6.7385,9.266137,4.63583E+18,-0.499752,-0.635887,-0.436258,0.394429,0
-13.350147,-2.434897,11.344078,-0.182398,0.168389,-0.037782,45.472576,-4.29609,-10.982477,4.63583E+18,-0.887305,0.087026,-0.436579,-0.120478,-11.247018,0.575043,1.719092,-0.338813,-1.011156,-1.080846,46.035204,-7.500526,-1.416859,4.63583E+18,-0.716819,0.381095,-0.512237,-0.280269,-10.458867,0.865268,-3.290953,-0.134336,-0.135463,1.29541,44.835631,6.12526,9.272603,4.63583E+18,-0.502468,-0.637716,-0.432766,0.391865,0
-13.753311,-2.682535,11.451048,-0.170143,0.56783,-0.090258,45.441975,-4.310133,-10.808318,4.63583E+18,-0.886246,0.088107,-0.438576,-0.120234,-12.048955,-0.324134,0.571348,-0.509761,-0.946334,-1.103633,46.167581,-6.96719,-1.897556,4.63583E+18,-0.719306,0.383864,-0.507052,-0.279546,-10.543885,1.45758,-3.838686,-0.113349,-0.240873,1.344914,45.000777,5.670776,9.18145,4.63583E+18,-0.505384,-0.639486,-0.428873,0.389502,0
-14.296422,-2.30935,10.08283,-0.14973,0.728869,-0.172244,45.435029,-4.153295,-10.491871,4.63583E+18,-0.884934,0.089343,-0.441145,-0.11959,-11.386822,-3.363435,0.519491,-0.419454,-0.923426,-1.117211,46.32519,-6.765891,-2.296877,4.63583E+18,-0.721875,0.386403,-0.501998,-0.278544,-9.508851,1.953126,-4.499547,-0.116049,-0.341604,1.381178,45.069733,5.360541,8.992587,4.63583E+18,-0.508529,-0.64113,-0.424662,0.387314,0
-14.904014,-1.711814,9.188927,-0.176029,0.760819,-0.236183,45.551078,-3.973431,-10.197042,4.63583E+18,-0.883575,0.090808,-0.443789,-0.118746,-10.048521,-4.328367,1.937227,-0.249521,-0.887755,-1.092079,46.406027,-6.372596,-2.687471,4.63583E+18,-0.724587,0.388404,-0.497271,-0.277195,-9.563974,2.411151,-4.196543,-0.131685,-0.4476,1.380867,45.075463,4.96561,8.723279,4.63583E+18,-0.511885,-0.642546,-0.420238,0.385368,0
-15.655774,-1.618642,9.291387,-0.205355,0.799922,-0.233694,45.643482,-3.997077,-10.001723,4.63583E+18,-0.882099,0.092475,-0.446542,-0.118108,-8.61241,-3.582875,3.365226,-0.230032,-0.841613,-1.06032,46.401428,-5.801862,-3.078104,4.63583E+18,-0.727174,0.390321,-0.49274,-0.275816,-10.559014,3.499896,-3.684816,-0.208275,-0.555543,1.35969,45.181691,4.483908,8.632118,4.63583E+18,-0.515581,-0.643565,-0.415747,0.383608,0
-16.369795,-1.589753,10.184478,-0.189821,0.888126,-0.172069,45.714866,-3.982404,-9.69424,4.63583E+18,-0.880444,0.093932,-0.449661,-0.117472,-8.183894,-3.347839,3.591401,-0.274411,-0.842293,-1.026329,46.244653,-5.371593,-3.390898,4.63583E+18,-0.729627,0.39229,-0.488196,-0.274624,-9.397445,3.642095,-2.416629,-0.263,-0.632877,1.358246,45.421548,3.723425,8.449008,4.63583E+18,-0.519536,-0.644314,-0.411165,0.381948,0
-17.245018,-1.435376,11.242473,-0.147276,1.036875,-0.100618,45.916333,-3.695495,-9.235511,4.63583E+18,-0.878477,0.09517,-0.453366,-0.116959,-8.58819,-2.220713,2.255776,-0.35662,-0.853471,-1.005773,46.073769,-5.112254,-3.507025,4.63583E+18,-0.731922,0.394441,-0.483541,-0.273671,-9.851444,3.699637,-1.43112,-0.319931,-0.749305,1.350583,45.587437,3.105202,8.260212,4.63583E+18,-0.52381,-0.644716,-0.406425,0.380504,0
-18.374115,-1.576084,10.977321,-0.074939,1.115911,-0.044195,46.027949,-3.569788,-8.890887,4.63583E+18,-0.876344,0.096074,-0.457409,-0.116482,-10.198218,-1.000119,0.334152,-0.482919,-0.833117,-1.02546,46.191943,-4.556842,-3.960437,4.63583E+18,-0.733966,0.397027,-0.478755,-0.272869,-11.405482,3.499357,-1.514118,-0.342217,-0.828927,1.33984,45.67288,2.560915,7.97449,4.63583E+18,-0.528238,-0.644895,-0.401559,0.379243,0
-19.180239,-1.833255,10.201364,0.025622,1.085403,-0.018076,46.020969,-3.764169,-8.573227,4.63583E+18,-0.874274,0.096558,-0.461387,-0.115945,-11.285859,-3.403993,0.325479,-0.529577,-0.782374,-0.975022,46.205021,-4.126492,-4.370949,4.63583E+18,-0.73575,0.399699,-0.474139,-0.272222,-11.047196,3.289071,-2.140359,-0.275619,-0.868492,1.326533,45.757621,2.097034,7.607556,4.63583E+18,-0.53251,-0.645108,-0.396517,0.378211,0
-19.47804,-1.889065,10.627335,0.075662,1.115936,-0.038485,46.111513,-3.931852,-8.008517,4.63583E+18,-0.872161,0.096897,-0.465486,-0.115195,-10.109892,-5.006362,1.798215,-0.425026,-0.758156,-0.889137,46.127197,-3.933834,-4.673695,4.63583E+18,-0.737541,0.401897,-0.469846,-0.271583,-10.650551,4.180521,-2.594482,-0.204293,-0.943574,1.287395,45.831575,1.633155,7.240519,4.63583E+18,-0.536628,-0.645267,-0.391284,0.377569,0
-19.760097,-1.867733,10.962856,0.11347,1.197444,-0.086746,46.1684,-3.901159,-7.459446,4.63583E+18,-0.869904,0.09724,-0.469866,-0.114182,-8.962847,-4.005334,2.874846,-0.344401,-0.778623,-0.812155,46.108451,-3.618404,-4.87773,4.63583E+18,-0.739401,0.403663,-0.465697,-0.27105,-10.697753,4.443753,-2.466993,-0.151609,-1.019324,1.236079,45.912045,1.169327,7.046772,4.63583E+18,-0.540623,-0.645311,-0.38592,0.377314,0
-20.289091,-1.618103,10.371773,0.213083,1.232996,-0.140668,46.1684,-3.773049,-7.121817,4.63583E+18,-0.867619,0.097349,-0.474386,-0.112773,-8.362288,-4.083159,3.033104,-0.308351,-0.765252,-0.729507,46.174067,-3.277687,-5.250928,4.63583E+18,-0.741186,0.405164,-0.461759,-0.270673,-9.913774,4.078433,-1.843129,-0.056754,-1.024354,1.166214,45.917017,0.700476,6.674869,4.63583E+18,-0.544239,-0.645421,-0.380566,0.377366,0
-20.854631,-0.928297,10.131351,0.286271,1.218473,-0.159323,46.275366,-3.718164,-6.683165,4.63583E+18,-0.865374,0.097237,-0.478865,-0.111184,-7.690737,-4.690844,2.728391,-0.326889,-0.742327,-0.623829,46.113909,-3.102659,-5.730452,4.63583E+18,-0.742762,0.406536,-0.45804,-0.270613,-8.909739,4.560392,-1.00304,0.063131,-1.027021,1.086959,46.001748,0.152623,6.21104,4.63583E+18,-0.54739,-0.645647,-0.375216,0.37778,0
-21.300087,-0.186774,10.255088,0.289283,1.149068,-0.149717,46.496074,-3.711051,-6.181853,4.63583E+18,-0.863241,0.097061,-0.483085,-0.109649,-8.04092,-3.948327,2.57556,-0.364978,-0.711047,-0.554853,46.096245,-2.777225,-6.040886,4.63583E+18,-0.744123,0.407923,-0.454484,-0.270783,-8.311513,5.676287,-0.197357,0.085597,-1.072393,0.968099,46.079956,-0.355277,5.752124,4.63583E+18,-0.550344,-0.645643,-0.370032,0.378607,0
-21.653147,0.203489,10.002764,0.28083,1.067601,-0.127967,46.559997,-3.705956,-5.977494,4.63583E+18,-0.861246,0.096798,-0.487014,-0.108177,-9.192903,-4.125415,2.819223,-0.342249,-0.639124,-0.494559,46.150736,-2.290909,-6.156008,4.63583E+18,-0.745308,0.409201,-0.451272,-0.27097,-8.711308,5.876007,0.597631,0.144324,-1.105239,0.827242,46.223774,-0.58224,5.368074,4.63583E+18,-0.552949,-0.645481,-0.365047,0.379923,0
-22.05087,0.181004,9.895197,0.285295,1.039908,-0.085967,46.413429,-3.627533,-5.645535,4.63583E+18,-0.859273,0.096419,-0.490852,-0.106855,-10.280134,-5.161953,4.189202,-0.232692,-0.552596,-0.424052,46.167307,-2.246162,-6.342573,4.63583E+18,-0.746428,0.410099,-0.448567,-0.271019,-9.262114,5.97974,1.160726,0.217006,-1.079318,0.686446,46.122563,-0.743629,4.893355,4.63583E+18,-0.55508,-0.645294,-0.360373,0.381593,0
-22.314166,0.206645,10.182287,0.311476,0.965176,-0.08111,46.28336,-3.492284,-5.06274,4.63583E+18,-0.857444,0.095901,-0.494426,-0.105525,-11.409946,-5.617056,5.555136,-0.016972,-0.458201,-0.311641,46.012794,-2.246162,-6.53789,4.63583E+18,-0.747608,0.410219,-0.446589,-0.270851,-9.813137,6.565766,0.786217,0.235522,-1.012569,0.513214,45.986497,-1.135792,4.445312,4.63583E+18,-0.556771,-0.644978,-0.356281,0.383501,0
-22.21119,0.464025,10.545246,0.33549,0.955353,-0.1111,46.392322,-3.406841,-4.668177,4.63583E+18,-0.855643,0.095352,-0.497955,-0.104039,-11.511581,-5.296362,6.35443,0.166588,-0.3184,-0.191323,45.997494,-2.101673,-6.733208,4.63583E+18,-0.748703,0.4097,-0.445457,-0.270476,-9.984948,6.969891,0.83347,0.203475,-0.920125,0.316004,46.218465,-1.342814,4.060999,4.63583E+18,-0.558084,-0.64443,-0.352978,0.385563,0
-21.63121,0.466792,10.471772,0.342612,1.130709,-0.167022,46.605891,-3.38758,-4.305995,4.63583E+18,-0.853486,0.094968,-0.502079,-0.102267,-10.61141,-4.883541,6.332188,0.27017,-0.137264,-0.04827,46.153081,-2.076353,-6.8396,4.63583E+18,-0.749476,0.408795,-0.44525,-0.270046,-9.962836,7.557798,0.302882,0.103921,-0.833823,0.073412,46.427057,-1.333617,3.78023,4.63583E+18,-0.559141,-0.643422,-0.350681,0.387805,0
-21.01189,0.002832,10.163617,0.346434,1.328848,-0.303163,46.674978,-3.460828,-3.748421,4.63583E+18,-0.850949,0.094937,-0.506841,-0.099923,-9.678289,-5.42415,6.378994,0.405183,0.058199,0.059062,46.246183,-2.230823,-6.837242,4.63583E+18,-0.749994,0.407489,-0.445987,-0.269367,-9.805872,7.541256,0.521076,0.041004,-0.715104,-0.169375,46.255468,-1.175645,3.493843,4.63583E+18,-0.559794,-0.642098,-0.34941,0.390198,0
-21.045747,-0.241019,9.948911,0.326123,1.507409,-0.473072,46.632282,-3.396602,-3.122825,4.63583E+18,-0.848064,0.095408,-0.51214,-0.096946,-9.56168,-5.481124,6.017744,0.531415,0.282956,0.16171,46.098269,-2.323953,-6.669451,4.63583E+18,-0.750189,0.405847,-0.44774,-0.268391,-10.157755,6.876,1.49999,0.070162,-0.575565,-0.382695,46.087183,-1.02845,3.126005,4.63583E+18,-0.559814,-0.640752,-0.348984,0.392754,0
-21.225558,-0.027377,9.589774,0.291864,1.584932,-0.626438,46.667916,-3.007907,-2.571505,4.63583E+18,-0.845015,0.096376,-0.517608,-0.093501,-9.880599,-4.481186,6.114953,0.554285,0.521118,0.243816,46.005173,-2.253841,-6.386384,4.63583E+18,-0.74988,0.404244,-0.450397,-0.267224,-11.85759,6.512606,2.30305,0.156866,-0.424464,-0.592587,46.155487,-0.860579,2.941278,4.63583E+18,-0.559034,-0.639545,-0.349326,0.395518,0
-21.113717,0.086443,9.5606,0.226231,1.630319,-0.776759,46.722821,-2.464728,-1.988595,4.63583E+18,-0.841859,0.097888,-0.523127,-0.089605,-10.367983,-4.84914,6.52813,0.643912,0.781794,0.316156,46.153057,-2.246162,-6.271165,4.63583E+18,-0.749141,0.402508,-0.454084,-0.265672,-13.380164,6.219898,2.837744,0.244047,-0.266761,-0.829581,46.148205,-0.548179,2.935403,4.63583E+18,-0.557396,-0.638448,-0.350518,0.398537,0
-21.97156,-0.21269,9.440252,0.102437,1.734046,-0.877848,46.801172,-2.132214,-1.336625,4.63583E+18,-0.838412,0.100088,-0.528889,-0.085578,-11.724087,-5.317411,5.434197,0.800423,1.062062,0.432447,46.31285,-2.401725,-5.995719,4.63583E+18,-0.748029,0.400288,-0.459068,-0.263586,-14.43833,6.349506,2.917798,0.285112,-0.135365,-1.086953,46.221456,-0.307756,3.026731,4.63583E+18,-0.555018,-0.637276,-0.352626,0.401856,0
-22.942774,-0.709061,8.147361,0.019582,1.530104,-0.84748,46.870322,-1.97352,-0.677485,4.63583E+18,-0.835315,0.102456,-0.533886,-0.081958,-12.986639,-4.503558,5.322428,0.934571,1.354716,0.558967,46.404868,-2.639272,-5.525009,4.63583E+18,-0.746342,0.39783,-0.4652,-0.261331,-15.226874,6.790609,2.716614,0.2392,-0.057802,-1.417174,46.28836,0.098853,3.003251,4.63583E+18,-0.55208,-0.635625,-0.355857,0.405654,0
-22.140036,-0.615377,7.484227,-0.05173,1.379543,-0.730875,46.791984,-1.622512,-0.069116,4.63583E+18,-0.832443,0.104755,-0.538359,-0.078959,-13.454069,-4.874596,5.200216,1.087339,1.649425,0.723017,46.490317,-3.127841,-4.681193,4.63583E+18,-0.744135,0.394831,-0.472693,-0.258716,-15.922869,7.026795,2.632327,0.068505,-0.006431,-1.822466,46.243305,0.964777,2.796452,4.63583E+18,-0.548806,-0.633037,-0.360551,0.409975,0
-21.927558,-0.66328,7.586894,-0.213899,1.425886,-0.555522,46.813358,-1.32552,0.442523,4.63583E+18,-0.829307,0.107211,-0.542997,-0.076873,-13.811336,-4.941801,5.72137,1.301497,1.951006,0.907222,46.364692,-3.629387,-3.813464,4.63583E+18,-0.741417,0.391093,-0.48161,-0.25573,-16.48033,6.778118,2.770827,-0.15861,0.007913,-2.275949,46.074256,1.819296,2.616603,4.63583E+18,-0.545294,-0.629225,-0.366835,0.414924,0
-22.384339,-1.074298,7.354931,-0.344743,1.605717,-0.317246,46.887624,-1.348912,1.04062,4.63583E+18,-0.82559,0.109648,-0.548294,-0.075846,-13.687692,-4.277557,6.307255,1.550666,2.283384,1.126102,46.207114,-4.063186,-2.946843,4.63583E+18,-0.738108,0.386449,-0.492113,-0.252345,-17.966098,7.232407,3.014906,-0.508493,-0.04126,-2.818851,46.130373,2.687862,2.689847,4.63583E+18,-0.541772,-0.623631,-0.374992,0.420652,0
-23.224559,-0.584942,6.846336,-0.346703,2.774764,-0.317328,46.653648,-1.249228,1.997933,4.63583E+18,-0.819123,0.112459,-0.557558,-0.074292,-13.694506,-3.26744,7.67071,1.75318,2.606145,1.421165,46.337207,-4.401583,-2.069019,4.63583E+18,-0.734012,0.380863,-0.504196,-0.248911,-19.370233,7.264221,3.859828,-0.964577,-0.113502,-3.524159,46.096157,3.803086,2.768677,4.63583E+18,-0.538211,-0.615662,-0.385548,0.427368,0
-23.962225,-0.714085,3.892407,-0.342251,3.410733,-0.281916,46.350498,-0.973551,3.147412,4.63583E+18,-0.811032,0.115327,-0.56892,-0.072505,-15.040681,-2.052095,9.033433,1.939125,2.960701,1.81578,46.507012,-4.808933,-1.012371,4.63583E+18,-0.728886,0.374144,-0.518069,-0.245654,-20.424774,6.118432,4.732766,-1.289233,-0.271422,-4.237503,45.895236,5.212948,2.917171,4.63583E+18,-0.53431,-0.60536,-0.398046,0.435443,0
-21.446827,-1.219712,1.34988,-0.358719,2.855987,-0.14331,46.421669,-0.932828,4.197176,4.63583E+18,-0.804064,0.117735,-0.578369,-0.071479,-17.150651,0.135825,9.455412,2.010198,3.288367,2.334164,46.455778,-5.690387,0.39494,4.63583E+18,-0.722385,0.366351,-0.533626,-0.243289,-22.279789,3.322221,5.327623,-1.75136,-0.508244,-4.962508,45.602927,6.927077,2.70864,4.63583E+18,-0.530431,-0.592148,-0.412519,0.444783,0
-18.474162,-1.442454,2.158501,-0.331046,3.253683,-0.037062,46.54582,-0.913556,5.399557,4.63583E+18,-0.795986,0.119893,-0.589114,-0.070537,-19.36797,3.451421,9.052028,1.937855,3.611137,2.965022,46.171527,-6.762514,1.85761,4.63583E+18,-0.71413,0.357557,-0.550833,-0.242392,-26.400583,-0.885826,6.434145,-2.463254,-0.934701,-5.953161,45.311686,8.756375,2.68913,4.63583E+18,-0.526881,-0.574508,-0.429561,0.455867,0
-15.974044,-1.826963,1.788005,-0.319894,4.277679,0.235902,46.352616,-0.711107,6.942565,4.63583E+18,-0.785118,0.121625,-0.603244,-0.069956,-22.644764,7.24709,6.84344,1.756199,3.964814,3.817753,45.788602,-7.860079,3.489085,4.63583E+18,-0.703567,0.347523,-0.569899,-0.243795,-35.268506,-8.734513,10.613494,-3.035582,-1.401114,-7.396433,44.823999,11.192044,2.728459,4.63583E+18,-0.522299,-0.551604,-0.449715,0.469781,0
-13.376977,-2.112832,0.120079,-0.329459,4.729019,0.478124,45.943725,-0.840128,8.750056,4.63583E+18,-0.77276,0.122858,-0.618756,-0.069926,-25.636868,13.988389,5.396176,1.46789,4.458482,4.901156,45.264811,-9.635795,5.236652,4.63583E+18,-0.689829,0.336027,-0.591297,-0.248174,-48.23736,-20.686764,19.475106,-2.873947,-1.865281,-9.051185,43.921963,14.14311,2.395666,4.63583E+18,-0.514253,-0.524281,-0.47172,0.488011,0
-11.041199,-2.889709,1.863591,-0.088151,5.231694,0.553934,45.492018,-1.304042,10.684045,4.63583E+18,-0.758868,0.12322,-0.635722,-0.069239,-30.501235,26.083968,6.039786,1.009535,4.738539,6.70528,44.672116,-11.856815,6.916943,4.63583E+18,-0.672208,0.321365,-0.614964,-0.258225,-71.049255,-24.261415,13.892314,-2.268867,-2.391207,-8.342476,42.63544,17.220381,1.788813,4.63583E+18,-0.506581,-0.497783,-0.489108,0.506322,0
-7.546914,-4.601525,7.583214,0.599775,6.481716,0.549546,44.97432,-1.559509,12.812867,4.63583E+18,-0.741554,0.121727,-0.656443,-0.066059,-38.963214,44.454313,7.981207,-0.790787,5.075601,7.797534,43.707614,-14.503567,8.589193,4.63583E+18,-0.64923,0.308879,-0.638271,-0.275143,-92.114073,-23.468602,-11.521996,2.501993,-2.909687,-7.284196,41.291277,19.860905,0.788432,4.63583E+18,-0.491652,-0.481773,-0.492516,0.532543,1
-2.861502,-5.382797,15.080046,1.353602,7.757166,0.669096,44.170926,-1.487322,15.48476,4.63583E+18,-0.720424,0.117827,-0.68077,-0.060486,-81.239698,34.632557,2.82629,-4.005423,4.531688,6.468038,42.27361,-17.255784,9.995121,4.63583E+18,-0.62415,0.307556,-0.653798,-0.297311,-95.851374,7.819561,-39.83745,4.096903,-3.389257,-4.567948,40.328405,21.540099,-0.962612,4.63583E+18,-0.480032,-0.473048,-0.48545,0.556896,1
0.917361,-1.281379,16.711544,0.843088,7.753383,1.280669,42.995028,-1.675205,18.447254,4.63583E+18,-0.698121,0.113572,-0.704523,-0.058103,-98.233014,-22.577673,0.529853,-4.445776,2.874606,6.470404,40.940994,-19.870036,10.675012,4.63583E+18,-0.602235,0.304872,-0.663658,-0.322373,-11.916596,121.245732,-45.095878,-5.143826,-2.541246,-4.60252,39.39341,22.93924,-1.844254,4.63583E+18,-0.484398,-0.447316,-0.501152,0.560458,1
3.421233,8.022438,8.135873,-1.03221,5.339771,2.482377,41.869777,-2.536519,20.794486,4.63583E+18,-0.681128,0.110553,-0.720773,-0.065802,-35.685326,-95.133972,-2.987898,-0.128631,1.408583,5.983439,39.922237,-22.31503,10.941259,4.63583E+18,-0.589915,0.290511,-0.674374,-0.335893,47.518277,118.812113,-23.965281,-15.356215,-2.003641,-4.250745,38.560466,24.426193,-0.072294,4.63583E+18,-0.506168,-0.40178,-0.539749,0.539479,1
8.95446,13.510054,0.633607,-2.100427,0.450191,1.828253,41.538526,-3.478794,21.549415,4.63583E+18,-0.678246,0.111146,-0.72228,-0.077079,25.489346,-112.475902,-12.999761,4.971156,0.810423,3.933727,38.955845,-23.522781,11.839161,4.63583E+18,-0.587913,0.268343,-0.687817,-0.330542,15.397469,6.661088,-21.373775,-17.268733,-3.316438,-0.952504,38.125399,25.189248,2.905791,4.63583E+18,-0.538994,-0.354707,-0.571694,0.506789,1
12.6181,10.771127,2.7798,-2.243289,-4.0914,-0.926782,42.032763,-3.861549,20.710619,4.63583E+18,-0.68967,0.118946,-0.709439,-0.083083,-1.180102,-12.353296,-10.301862,5.815702,-0.430073,-1.017639,38.546437,-23.188377,13.047858,4.63583E+18,-0.596842,0.256413,-0.693399,-0.311816,9.97356,-15.380367,-20.673723,-13.145124,-3.382669,1.585243,38.399406,24.601029,5.182368,4.63583E+18,-0.568928,-0.321247,-0.588586,0.476118,1
-4.40494,6.483088,12.313057,-2.675387,-1.588533,-1.725481,42.360764,-3.883028,19.866717,4.63583E+18,-0.693548,0.131177,-0.703028,-0.086804,-3.67197,-2.092955,0.953616,3.712551,-2.213956,-3.675745,39.213744,-21.54664,13.315,4.63583E+18,-0.611815,0.254858,-0.688595,-0.294223,9.285212,-44.540726,-9.062452,-3.932287,-2.106431,4.013257,39.175419,23.350723,5.869789,4.63583E+18,-0.58713,-0.317475,-0.585849,0.45964,1
-22.014968,1.400151,17.219451,-2.055183,3.090722,-0.997744,42.214375,-3.797578,19.936343,4.63583E+18,-0.683634,0.141114,-0.710599,-0.088203,2.481636,-4.239766,0.862033,-0.381876,-2.358466,-4.291613,40.226926,-20.310667,12.708882,4.63583E+18,-0.62331,0.265205,-0.677412,-0.286816,4.00278,-50.758209,-2.454312,3.758761,-0.906055,5.202382,40.07419,21.804268,5.356616,4.63583E+18,-0.59411,-0.337502,-0.569351,0.457127,1
-14.718143,-6.016278,10.024789,-1.041834,-0.563127,-0.062579,42.175419,-3.818778,20.147473,4.63583E+18,-0.68469,0.144065,-0.708579,-0.091432,-6.845941,13.537241,-12.031337,-2.579461,-1.870713,-4.522674,41.120246,-19.281961,11.592379,4.63583E+18,-0.630981,0.282367,-0.664293,-0.284336,-4.779998,-33.295812,0.537334,6.29472,-0.052513,5.399948,41.095331,20.137169,4.048339,4.63583E+18,-0.595305,-0.365574,-0.549312,0.458502,1
-6.208556,-12.537506,4.638917,-0.812275,-4.280403,0.897276,42.473348,-4.167386,19.318333,4.63583E+18,-0.696368,0.142085,-0.696488,-0.098936,-6.782662,18.040876,-14.638058,-2.480376,-1.099656,-4.370826,41.899279,-17.813649,10.776773,4.63583E+18,-0.636142,0.299622,-0.653167,-0.280932,1.456279,-18.286586,-7.206869,5.985352,0.40895,4.02151,42.034266,18.788307,3.129215,4.63583E+18,-0.592657,-0.390223,-0.532531,0.461404,1
-3.300108,-16.806544,2.152394,0.06995,-2.488405,0.951976,42.828398,-4.623336,17.993495,4.63583E+18,-0.703182,0.138091,-0.68983,-0.102954,-2.32681,17.012573,-12.773215,-2.737007,-0.540053,-3.523459,42.535079,-16.388886,10.162063,4.63583E+18,-0.638211,0.315784,-0.644017,-0.279659,8.931306,-6.786716,-14.552942,4.59931,1.070367,2.129736,42.72271,17.976392,2.571341,4.63583E+18,-0.586754,-0.408258,-0.522756,0.464513,1
0.366635,-14.342663,-1.444113,0.768856,-0.432398,0.708788,43.042219,-4.737558,17.561142,4.63583E+18,-0.704543,0.13362,-0.689306,-0.103061,2.647114,19.2912,-11.907719,-3.429676,-0.1097,-2.356742,42.946779,-15.649847,9.830269,4.63583E+18,-0.636645,0.331057,-0.63653,-0.282689,3.533988,-12.076639,-13.191895,3.889349,1.455639,0.517193,42.854424,17.692677,2.290152,4.63583E+18,-0.577872,-0.421634,-0.517837,0.469184,1
0.924612,-7.916965,-1.943463,0.647336,0.586646,0.871995,43.097435,-4.862635,17.857719,4.63583E+18,-0.702823,0.129472,-0.691795,-0.103426,3.799798,23.704357,-10.032353,-4.276729,0.127488,-1.465828,43.281889,-15.577757,9.458534,4.63583E+18,-0.632025,0.346385,-0.629695,-0.289908,-0.746801,-19.219269,-3.350902,3.936332,1.307166,-0.307202,42.544636,17.77491,2.193636,4.63583E+18,-0.567442,-0.432926,-0.513761,0.476061,1
