Accelerometer-X,Accelerometer-Y,Accelerometer-Z,Gyroscope-X,Gyroscope-Y,Gyroscope-Z,Magnetometer-X,Magnetometer-Y,Magnetometer-Z,Barometer-pressure,Orientation-S,Orientation-X,Orientation-Y,Orientation-Z,Accelerometer-X,Accelerometer-Y,Accelerometer-Z,Gyroscope-X,Gyroscope-Y,Gyroscope-Z,Magnetometer-X,Magnetometer-Y,Magnetometer-Z,Barometer-pressure,Orientation-S,Orientation-X,Orientation-Y,Orientation-Z,Accelerometer-X,Accelerometer-Y,Accelerometer-Z,Gyroscope-X,Gyroscope-Y,Gyroscope-Z,Magnetometer-X,Magnetometer-Y,Magnetometer-Z,Barometer-pressure,Orientation-S,Orientation-X,Orientation-Y,Orientation-Z,jump
-9.354949,0.531309,2.627493,0.094813,0.013526,-0.011648,46.375927,-4.077273,7.251197,4.63583E+18,0.833294,-0.040492,0.547184,0.067616,-9.641333,1.066952,-0.476212,0.064298,-0.066456,-0.02264,39.579164,-20.151661,16.44865,4.63583E+18,0.553529,-0.284407,0.742759,0.247036,-9.731,-0.212559,-0.584697,0.034395,0.055323,0.146667,42.441366,18.295123,-1.934244,4.63583E+18,0.361369,0.616023,0.378243,-0.588949,0
-9.338663,0.537126,2.636799,0.088962,0.03082,-0.013682,46.155095,-4.154564,7.085574,4.63583E+18,0.833267,-0.040358,0.547274,0.0673,-9.619433,1.093879,-0.54706,0.055292,-0.074142,-0.020075,39.639711,-20.022414,16.526191,4.63583E+18,0.553721,-0.284328,0.742668,0.246971,-9.645548,-0.276554,-0.627611,0.067288,0.042214,0.153665,42.368121,18.215145,-1.92877,4.63583E+18,0.361471,0.616509,0.377634,-0.588769,0
-9.382829,0.548167,2.592634,0.081893,0.022383,-0.011954,46.209065,-4.162724,7.233706,4.63583E+18,0.833233,-0.040438,0.547318,0.067306,-9.62434,1.132894,-0.612883,0.041647,-0.079692,-0.018588,39.588608,-19.936965,16.38928,4.63583E+18,0.553912,-0.284268,0.742553,0.246959,-9.600494,-0.218925,-0.758924,0.08707,0.034291,0.155251,42.375667,18.223948,-1.881645,4.63583E+18,0.361537,0.617008,0.37696,-0.588636,0
-9.387493,0.527251,2.599011,0.077315,0.016532,-0.01175,46.360767,-4.162724,7.427858,4.63583E+18,0.833224,-0.04043,0.547349,0.067172,-9.651271,1.152403,-0.610247,0.035447,-0.083536,-0.018797,39.588608,-19.851507,16.272469,4.63583E+18,0.554107,-0.28422,0.742421,0.246973,-9.655602,-0.050993,-0.843566,0.085971,0.036427,0.148512,42.415251,18.302664,-1.789466,4.63583E+18,0.361586,0.617501,0.37631,-0.588506,0
-9.420617,0.480753,2.644342,0.067245,0.002497,-0.009817,46.375927,-4.162724,7.358186,4.63583E+18,0.833245,-0.040447,0.547328,0.06707,-9.690285,1.174424,-0.524678,0.025824,-0.083305,-0.021164,39.588608,-19.834757,16.311725,4.63583E+18,0.554293,-0.284198,0.742277,0.247013,-9.745274,0.090474,-0.807398,0.068221,0.039741,0.138899,42.333219,18.248011,-1.685076,4.63583E+18,0.361651,0.617959,0.375734,-0.588352,0
-9.435157,0.3988,2.748378,0.07009,0.01556,-0.007681,46.232387,-4.228972,7.359898,4.63583E+18,0.833236,-0.040454,0.547354,0.066968,-9.734318,1.186515,-0.422241,0.012149,-0.078394,-0.026494,39.524836,-19.88586,16.370129,4.63583E+18,0.554454,-0.284224,0.742126,0.247074,-9.757938,0.167935,-0.748875,0.051202,0.041658,0.129875,42.221647,18.089325,-1.743482,4.63583E+18,0.361733,0.618384,0.375227,-0.58818,0
-9.41424,0.368554,2.714708,0.082091,0.042209,-0.000714,46.217228,-4.169721,7.438353,4.63583E+18,0.833166,-0.040407,0.547477,0.066856,-9.768319,1.171911,-0.363714,-0.001088,-0.072834,-0.02863,39.425007,-19.822092,16.325981,4.63583E+18,0.554586,-0.284288,0.741973,0.247164,-9.734778,0.276078,-0.678604,0.034153,0.041069,0.116031,42.316655,17.977748,-1.93879,4.63583E+18,0.361826,0.618759,0.374796,-0.588002,0
-9.489179,0.388299,2.57758,0.089111,0.066112,0.001932,46.283461,-4.085454,7.358207,4.63583E+18,0.833043,-0.040333,0.547686,0.066729,-9.724286,1.147386,-0.336902,-0.008335,-0.064499,-0.028621,39.486374,-19.727163,16.265166,4.63583E+18,0.554683,-0.284377,0.741832,0.247268,-9.71584,0.355267,-0.614595,0.011612,0.042356,0.100228,42.548596,17.951613,-2.026429,4.63583E+18,0.361935,0.61908,0.374464,-0.587809,0
-9.49736,0.412716,2.442118,0.091656,0.027791,0.006966,46.290474,-4.154551,7.348857,4.63583E+18,0.833006,-0.040228,0.547764,0.066622,-9.655952,1.042221,-0.319792,-0.005752,-0.054457,-0.025416,39.686683,-19.825239,16.272469,4.63583E+18,0.554749,-0.284458,0.741721,0.24736,-9.718344,0.325847,-0.591434,-0.010119,0.04556,0.086343,42.746875,17.909987,-1.925492,4.63583E+18,0.362061,0.619354,0.374227,-0.587594,0
-9.629822,0.437129,2.583812,0.089929,0.098837,-0.026328,46.224241,-4.162724,7.437165,4.63583E+18,0.832815,-0.040224,0.548082,0.066391,-9.594913,0.91545,-0.310089,0.006437,-0.047208,-0.021783,39.832756,-19.971312,16.272469,4.63583E+18,0.554805,-0.284502,0.741645,0.247412,-9.749486,0.225693,-0.559041,-0.026292,0.044055,0.078345,42.7832,17.871639,-1.735662,4.63583E+18,0.36221,0.619588,0.374048,-0.587369,0
-9.50035,0.295968,2.291102,0.074271,0.054658,-0.016386,46.28346,-4.085456,7.358209,4.63583E+18,0.83272,-0.040236,0.548244,0.066236,-9.5633,0.893643,-0.346812,0.026748,-0.046359,-0.01322,39.734692,-19.93699,16.233243,4.63583E+18,0.554874,-0.284469,0.741604,0.24742,-9.759194,0.016148,-0.442927,-0.023213,0.041658,0.07985,42.622486,17.871639,-1.540343,4.63583E+18,0.362358,0.619824,0.373854,-0.587152,0
-9.032579,0.225578,2.214216,0.076497,-0.050349,0.006295,46.367744,-4.000004,7.26055,4.63583E+18,0.832859,-0.040155,0.548047,0.066168,-9.59512,0.944974,-0.385734,0.052165,-0.047857,-0.001269,39.55919,-19.920182,16.135584,4.63583E+18,0.554966,-0.284338,0.741599,0.247379,-9.733533,-0.089684,-0.426771,-0.004249,0.046956,0.083425,42.511659,17.912005,-1.506503,4.63583E+18,0.362457,0.620107,0.373614,-0.586945,0
-9.117094,0.285956,2.684133,0.064352,0.055005,-0.001112,46.298667,-4.06908,7.162901,4.63583E+18,0.832757,-0.040163,0.54821,0.066087,-9.66596,0.993702,-0.388235,0.067512,-0.050422,0.004062,39.549683,-19.971312,16.042832,4.63583E+18,0.555079,-0.284148,0.741611,0.247306,-9.663277,-0.073244,-0.550086,0.014759,0.057157,0.089093,42.553268,17.944883,-1.604156,4.63583E+18,0.362504,0.620453,0.373328,-0.586732,0
-9.362885,0.281942,2.524782,0.051433,0.034462,0.008485,46.224259,-4.077273,7.330108,4.63583E+18,0.832697,-0.040197,0.5483,0.066078,-9.712192,1.050018,-0.422449,0.065141,-0.048908,0.004912,39.595914,-19.902696,16.026006,4.63583E+18,0.555185,-0.283958,0.741627,0.247239,-9.60598,-0.012701,-0.623824,0.02714,0.06313,0.095872,42.551268,17.857431,-1.594183,4.63583E+18,0.362526,0.620843,0.373004,-0.586513,0
-9.387493,0.28077,2.392176,0.069513,-0.008609,0.005751,46.139991,-4.000034,7.514368,4.63583E+18,0.83275,-0.040076,0.548252,0.065895,-9.680384,1.157383,-0.436973,0.050601,-0.04508,0.004701,39.686613,-19.766106,16.155554,4.63583E+18,0.555263,-0.283803,0.741637,0.247212,-9.588293,0.056801,-0.66169,0.029799,0.064677,0.100624,42.525113,17.698746,-1.442721,4.63583E+18,0.362549,0.621248,0.372664,-0.586285,0
-9.32129,0.236634,2.523885,0.073497,-0.001232,0.011134,46.131779,-3.925617,7.443696,4.63583E+18,0.832784,-0.03993,0.548231,0.065721,-9.643848,1.19383,-0.390548,0.029877,-0.048285,0.004483,39.832756,-19.680651,16.233262,4.63583E+18,0.555327,-0.283689,0.74162,0.24725,-9.589536,0.120318,-0.717238,0.021779,0.062803,0.103719,42.658365,17.593867,-1.355022,4.63583E+18,0.362603,0.621642,0.372333,-0.586044,0
-9.28115,0.165745,2.583271,0.077564,0.019307,0.022369,46.209005,-3.984772,7.434309,4.63583E+18,0.832739,-0.040002,0.548266,0.065958,-9.64875,1.108196,-0.354015,0.015804,-0.048488,0.002347,39.764141,-19.634406,16.096391,4.63583E+18,0.555379,-0.283609,0.741586,0.247326,-9.62864,0.1318,-0.751376,0.004255,0.053824,0.108797,42.890291,17.694211,-1.415539,4.63583E+18,0.362728,0.621995,0.372019,-0.585792,0
-9.255562,0.136631,2.521774,0.092455,0.015571,0.028326,46.217228,-3.991821,7.522569,4.63583E+18,0.832724,-0.039833,0.548306,0.065919,-9.641355,0.988713,-0.368715,0.017316,-0.046359,0.000211,39.632452,-19.671114,15.979491,4.63583E+18,0.555429,-0.283532,0.741556,0.24739,-9.656056,-0.044751,-0.750137,-0.00887,0.041008,0.118038,42.900358,17.838729,-1.565726,4.63583E+18,0.362929,0.622312,0.371694,-0.585537,0
-9.264244,0.134281,2.503693,0.110408,-0.000491,0.026909,46.360653,-4.069049,7.45474,4.63583E+18,0.832748,-0.039601,0.548295,0.065839,-9.634131,1.020764,-0.371041,0.031433,-0.048713,-0.001497,39.618003,-19.714956,16.057876,4.63583E+18,0.555505,-0.283424,0.741534,0.24741,-9.703104,-0.359097,-0.684161,-0.001164,0.034661,0.134011,42.742916,17.743937,-1.647999,4.63583E+18,0.363158,0.62265,0.371299,-0.585287,0
-9.232326,0.167375,2.557674,0.116982,-0.000206,0.025738,46.298708,-4.000054,7.435485,4.63583E+18,0.832774,-0.039346,0.548287,0.065737,-9.675645,1.176952,-0.332013,0.054718,-0.053842,-0.002993,39.661854,-19.685573,16.213987,4.63583E+18,0.555628,-0.283256,0.741524,0.247359,-9.768396,-0.613541,-0.621341,0.027475,0.043003,0.159012,42.677082,17.51198,-1.695053,4.63583E+18,0.36336,0.62309,0.370783,-0.58502,0
-9.250859,0.203997,2.541493,0.119427,0.010617,0.021775,46.224286,-3.991821,7.522557,4.63583E+18,0.832776,-0.039092,0.548316,0.065611,-9.714679,1.183912,-0.327186,0.074571,-0.058108,-0.003844,39.627576,-19.607435,16.233294,4.63583E+18,0.555789,-0.283033,0.741525,0.247247,-9.87099,-0.588286,-0.590207,0.056144,0.059612,0.185498,42.72413,17.407757,-1.686404,4.63583E+18,0.363526,0.623655,0.370154,-0.584713,0
-9.330429,0.196495,2.528109,0.120598,-0.017207,0.011711,46.294446,-4.135224,7.631247,4.63583E+18,0.832845,-0.038851,0.548248,0.065457,-9.734196,1.044876,-0.341807,0.083533,-0.060033,-0.004061,39.610672,-19.590531,16.135642,4.63583E+18,0.555968,-0.282786,0.741531,0.247109,-9.970429,-0.473621,-0.573748,0.070341,0.071998,0.206536,42.843181,17.407757,-1.701764,4.63583E+18,0.363685,0.624304,0.369455,-0.584364,0
-9.338663,0.206348,2.604141,0.125526,-0.031876,0.006821,46.302681,-4.084339,7.630805,4.63583E+18,0.832949,-0.038597,0.54813,0.065273,-9.726822,1.035274,-0.361388,0.082453,-0.064094,-0.006626,39.632482,-19.671084,15.998826,4.63583E+18,0.55616,-0.282545,0.741524,0.246975,-9.917209,-0.418068,-0.580469,0.087229,0.086424,0.224695,42.915744,17.407757,-1.691889,4.63583E+18,0.363822,0.625042,0.368689,-0.583973,0
-9.239397,0.284733,2.634443,0.121216,0.002596,0.001583,46.225473,-4.000066,7.54139,4.63583E+18,0.832975,-0.038376,0.548129,0.065073,-9.699991,1.130508,-0.424898,0.072407,-0.069006,-0.011115,39.622869,-19.749217,15.920987,4.63583E+18,0.55636,-0.282336,0.741488,0.24687,-9.831214,-0.135263,-0.592676,0.09827,0.099181,0.238149,42.92123,17.407757,-1.594236,4.63583E+18,0.363942,0.625847,0.367881,-0.583545,0
-9.317044,0.20473,2.52649,0.112979,0.030539,0.002033,46.360632,-4.146254,7.454751,4.63583E+18,0.832935,-0.038192,0.548224,0.064893,-9.702467,1.186537,-0.529927,0.061519,-0.07542,-0.018808,39.703428,-19.766147,16.018646,4.63583E+18,0.556576,-0.282166,0.741419,0.246787,-9.801313,0.17404,-0.578004,0.091802,0.106658,0.246585,42.92795,17.320401,-1.496582,4.63583E+18,0.364087,0.626674,0.367078,-0.583073,0
-9.359541,0.107091,2.503697,0.11891,0.011883,-0.005584,46.596492,-4.460491,7.369317,4.63583E+18,0.83294,-0.038007,0.548253,0.064687,-9.741562,1.19638,-0.595689,0.061534,-0.08589,-0.024567,39.781562,-19.651337,16.07715,4.63583E+18,0.556831,-0.282,0.741319,0.246702,-9.662663,0.283234,-0.57498,0.082404,0.115311,0.250535,42.980476,17.121387,-1.345166,4.63583E+18,0.364251,0.627513,0.366301,-0.582556,0
-9.318966,0.03149,2.634855,0.126387,0.022158,-0.013164,46.333342,-4.194565,7.526486,4.63583E+18,0.832926,-0.037807,0.54832,0.064426,-9.802594,1.208483,-0.519926,0.065581,-0.094213,-0.025424,39.832756,-19.585617,15.998864,4.63583E+18,0.557117,-0.281815,0.741204,0.246613,-9.504652,0.264876,-0.599392,0.076692,0.116693,0.250427,43.01889,17.064147,-1.264081,4.63583E+18,0.364427,0.628347,0.36554,-0.582026,0
-9.314249,-0.041762,2.704154,0.142551,0.045696,-0.012921,46.14827,-3.931106,7.621381,4.63583E+18,0.832869,-0.03748,0.548478,0.064009,-9.819595,1.157232,-0.444359,0.060024,-0.100415,-0.02756,39.832756,-19.698006,15.925868,4.63583E+18,0.557419,-0.281643,0.741065,0.246544,-9.514478,0.225223,-0.657393,0.07477,0.110765,0.252298,43.01889,17.015243,-1.262852,4.63583E+18,0.36462,0.629165,0.36477,-0.581503,0
-9.237051,-0.037801,2.66593,0.160604,0.058681,-0.015713,46.275145,-3.983567,7.541401,4.63583E+18,0.832768,-0.037243,0.548676,0.063758,-9.76098,1.130396,-0.451674,0.052119,-0.109812,-0.030981,39.867007,-19.766157,15.986805,4.63583E+18,0.557745,-0.281485,0.740894,0.246501,-9.618861,0.219733,-0.695822,0.075946,0.108471,0.255395,43.025608,16.816229,-1.311108,4.63583E+18,0.364819,0.629984,0.363986,-0.580983,0
-9.184689,-0.036622,2.584026,0.169112,0.061746,-0.016987,46.290474,-4.069009,7.45478,4.63583E+18,0.832671,-0.036908,0.548891,0.063374,-9.697524,1.118189,-0.436997,0.045286,-0.117288,-0.036321,39.913317,-19.582863,15.940353,4.63583E+18,0.558092,-0.281347,0.740694,0.246474,-9.742155,0.172711,-0.655517,0.073968,0.113066,0.262233,43.111706,16.624608,-1.455783,4.63583E+18,0.365032,0.630821,0.363196,-0.580435,0
-9.2351,-0.080729,2.465496,0.166941,0.04555,-0.010337,46.147128,-4.000086,7.523702,4.63583E+18,0.832616,-0.036488,0.549055,0.062911,-9.673155,1.10109,-0.419944,0.040158,-0.122625,-0.04209,39.808161,-19.385357,15.764423,4.63583E+18,0.558457,-0.28123,0.740469,0.246456,-9.802545,0.093981,-0.629294,0.073329,0.110551,0.274677,43.27162,16.512937,-1.491115,4.63583E+18,0.36528,0.63167,0.362371,-0.579872,0
-9.27408,-0.074426,2.508815,0.175314,0.028359,-0.000931,46.208954,-3.914643,7.531968,4.63583E+18,0.832583,-0.03615,0.549154,0.062674,-9.685362,1.086459,-0.441934,0.034177,-0.125189,-0.04807,39.666745,-19.453841,15.588854,4.63583E+18,0.558828,-0.281144,0.740225,0.246448,-9.72866,-0.100166,-0.654935,0.09534,0.104571,0.293265,43.348488,16.439693,-1.345212,4.63583E+18,0.365522,0.632564,0.361434,-0.579328,0
-9.156335,-0.073244,2.62499,0.187822,0.064332,0.000965,46.283388,-3.983555,7.531968,4.63583E+18,0.832477,-0.035703,0.549386,0.062304,-9.70246,1.101131,-0.478553,0.031404,-0.130961,-0.051271,39.801217,-19.585603,15.632869,4.63583E+18,0.559217,-0.281065,0.739961,0.246447,-9.627968,-0.211793,-0.651259,0.130373,0.101847,0.315107,43.308193,16.447045,-1.203635,4.63583E+18,0.365726,0.633538,0.360352,-0.578809,0
-9.176421,0.025984,2.427318,0.193886,0.085726,-0.005685,46.224321,-4.146176,7.542993,4.63583E+18,0.832324,-0.035259,0.549693,0.0619,-9.746439,1.069282,-0.495613,0.036324,-0.14143,-0.051699,40.02569,-19.595269,15.811211,4.63583E+18,0.559647,-0.280957,0.73968,0.246439,-9.568158,0.053148,-0.681792,0.146443,0.103931,0.32648,43.228238,16.479994,-1.159703,4.63583E+18,0.365912,0.634557,0.359203,-0.57829,0
-9.378397,0.036622,2.327691,0.220447,0.040323,-0.014126,46.217228,-3.931223,7.709533,4.63583E+18,0.832281,-0.034723,0.549848,0.061403,-9.785447,1.02303,-0.473626,0.045721,-0.152323,-0.055334,40.008445,-19.514712,15.979491,4.63583E+18,0.560127,-0.28082,0.73938,0.246402,-9.606627,0.357085,-0.68666,0.139766,0.100351,0.326746,43.109209,16.392695,-1.105981,4.63583E+18,0.366119,0.635557,0.358064,-0.577767,0
-9.432772,0.069693,2.50681,0.243499,0.01017,-0.023635,46.294395,-3.685894,7.793429,4.63583E+18,0.832313,-0.034114,0.549903,0.060816,-9.78302,1.088921,-0.441894,0.048919,-0.162365,-0.063239,39.940232,-19.465918,15.788781,4.63583E+18,0.56065,-0.28069,0.739051,0.246351,-9.716487,0.466325,-0.632342,0.125293,0.08919,0.32226,43.130593,16.234009,-1.062044,4.63583E+18,0.366369,0.6365,0.356955,-0.577256,0
-9.436323,0.117339,2.659217,0.268824,0.033521,-0.02939,46.368825,-3.739387,7.800531,4.63583E+18,0.832295,-0.033437,0.550044,0.060149,-9.775668,1.135324,-0.427259,0.046143,-0.171762,-0.072212,40.025684,-19.424371,15.425162,4.63583E+18,0.561208,-0.280582,0.738686,0.246299,-9.745781,0.501724,-0.61037,0.11504,0.092021,0.308802,43.329563,16.122319,-1.223177,4.63583E+18,0.366608,0.637413,0.35591,-0.576742,0
-9.54656,0.19924,2.596255,0.290601,0.036317,-0.041483,46.375927,-3.890981,7.646199,4.63583E+18,0.832276,-0.032715,0.550199,0.059397,-9.77816,1.147467,-0.417481,0.042723,-0.179239,-0.080114,40.042684,-19.378039,15.386305,4.63583E+18,0.561793,-0.280494,0.738291,0.246246,-9.796439,0.660416,-0.650653,0.100994,0.100619,0.292513,43.52122,16.096071,-1.462443,4.63583E+18,0.36683,0.638301,0.354955,-0.576207,0
-9.712803,0.284729,2.57694,0.318729,0.059478,-0.043691,46.298723,-3.906369,7.541395,4.63583E+18,0.832207,-0.031907,0.550439,0.05857,-9.809865,1.130424,-0.402844,0.036528,-0.188853,-0.087592,39.991455,-19.414683,15.542503,4.63583E+18,0.56241,-0.280429,0.73786,0.246205,-9.831236,0.848404,-0.650049,0.078938,0.106654,0.276865,43.552359,15.967304,-1.389227,4.63583E+18,0.367064,0.639146,0.354104,-0.575645,0
-9.574904,0.259893,2.542677,0.321512,0.005984,-0.056339,46.290474,-3.763002,7.609166,4.63583E+18,0.832263,-0.031101,0.550493,0.057696,-9.778102,1.198811,-0.412621,0.0252,-0.201672,-0.099985,40.025674,-19.458601,15.561953,4.63583E+18,0.563064,-0.280416,0.737372,0.246187,-9.781191,0.762388,-0.60244,0.080108,0.08124,0.265649,43.532818,15.729881,-1.042566,4.63583E+18,0.367304,0.639914,0.353241,-0.575169,0
-9.326834,0.234302,2.605301,0.330196,0.028945,-0.08566,46.224312,-3.747673,7.705634,4.63583E+18,0.832273,-0.030337,0.550624,0.056697,-9.741508,1.247587,-0.427259,0.009394,-0.209357,-0.114083,40.072017,-19.360842,15.537617,4.63583E+18,0.563738,-0.280473,0.736833,0.246194,-9.599331,0.304661,-0.726916,0.131425,0.041822,0.269225,43.590795,15.538215,-0.920425,4.63583E+18,0.367472,0.640671,0.352185,-0.574866,0
-9.423349,0.265025,2.678552,0.34174,0.049414,-0.10892,46.217228,-3.968232,7.726107,4.63583E+18,0.832241,-0.029596,0.550824,0.055597,-9.746394,1.149878,-0.4126,0.001923,-0.21235,-0.123052,40.098903,-19.146042,15.51067,4.63583E+18,0.564423,-0.280568,0.736269,0.246206,-9.372271,0.057973,-1.151044,0.196688,0.02884,0.272165,43.575568,15.513761,-1.118751,4.63583E+18,0.36749,0.641501,0.350945,-0.574687,0
-9.392216,0.290616,2.564334,0.353489,0.021361,-0.12749,46.294417,-3.694097,7.881662,4.63583E+18,0.832279,-0.028843,0.550927,0.054401,-9.74883,0.947252,-0.371095,0.004059,-0.217261,-0.125401,40.184348,-19.043549,15.242082,4.63583E+18,0.565126,-0.280658,0.735692,0.246212,-9.444185,0.340467,-1.39043,0.215128,0.030014,0.269067,43.531601,15.679739,-1.198179,4.63583E+18,0.367449,0.642356,0.349671,-0.574535,0
-9.376467,0.337084,2.463134,0.371027,0.013334,-0.136965,46.368842,-3.364501,7.887163,4.63583E+18,0.832338,-0.028042,0.551004,0.053121,-9.726851,0.874074,-0.346693,0.011326,-0.219185,-0.126896,40.2356,-19.111947,15.015106,4.63583E+18,0.565847,-0.280731,0.735116,0.246194,-9.637714,0.569466,-1.171398,0.200549,0.040372,0.265169,43.625553,15.609688,-1.052329,4.63583E+18,0.36742,0.643207,0.348458,-0.574338,0
-9.408366,0.352834,2.442661,0.394975,-0.024811,-0.149369,46.442085,-3.332621,7.797769,4.63583E+18,0.832488,-0.027178,0.550952,0.051749,-9.739081,0.974165,-0.33936,0.02115,-0.223244,-0.129033,40.269795,-19.209568,15.015106,4.63583E+18,0.566594,-0.280779,0.734539,0.246144,-9.692678,0.592665,-0.947326,0.191573,0.059222,0.261003,43.749475,15.211795,-1.018066,4.63583E+18,0.367377,0.644083,0.347306,-0.574082,0
-9.511136,0.376065,2.507633,0.408928,-0.046205,-0.140962,46.526348,-3.486976,7.788323,4.63583E+18,0.832684,-0.026245,0.550827,0.050384,-9.853831,1.049843,-0.317392,0.018157,-0.226447,-0.133733,40.384546,-19.138752,15.015106,4.63583E+18,0.567352,-0.28084,0.733946,0.246095,-9.592037,0.75919,-0.889929,0.171344,0.075993,0.254276,43.740989,15.002898,-1.162686,4.63583E+18,0.367346,0.644957,0.346247,-0.57376,0
-9.521774,0.37843,2.459606,0.462257,-0.087615,-0.130281,46.468478,-3.426358,7.964705,4.63583E+18,0.832975,-0.025092,0.55057,0.048936,-9.978335,1.154829,-0.332043,0.004913,-0.22602,-0.14356,40.50905,-19.009364,15.015106,4.63583E+18,0.568104,-0.280961,0.733329,0.246062,-9.462601,0.964944,-0.711197,0.134228,0.076964,0.237618,43.702503,15.002898,-1.245155,4.63583E+18,0.367373,0.645752,0.345322,-0.573406,0
-9.5328,0.334329,2.630089,0.538271,-0.150707,-0.121528,46.384203,-3.197572,7.884416,4.63583E+18,0.833415,-0.023638,0.550108,0.047345,-10.100401,1.262245,-0.354015,-0.020721,-0.227088,-0.143773,40.552994,-18.958097,14.976045,4.63583E+18,0.56883,-0.281139,0.732683,0.246107,-9.47107,1.085792,-0.479838,0.107037,0.049157,0.208147,43.83666,14.962651,-1.245155,4.63583E+18,0.367441,0.646396,0.344499,-0.573131,0
-9.611149,0.3296,2.825389,0.618168,-0.16377,-0.09948,46.375927,-2.953448,7.77456,4.63583E+18,0.833884,-0.021848,0.549616,0.045642,-10.290837,1.215861,-0.29054,-0.03055,-0.230079,-0.120274,40.587173,-18.958097,14.883268,4.63583E+18,0.56953,-0.28126,0.732048,0.246241,-9.429079,1.095045,-0.449796,0.088774,0.046341,0.18405,43.906409,14.88941,-1.245155,4.63583E+18,0.367503,0.646971,0.343781,-0.572873,0
-9.575339,0.318576,2.71204,0.705994,-0.221405,-0.091414,46.442067,-2.786468,7.587529,4.63583E+18,0.834484,-0.019719,0.548937,0.043766,-10.459292,0.988826,-0.029328,0.01025,-0.232001,-0.088872,40.67262,-18.98739,14.792938,4.63583E+18,0.570253,-0.281182,0.731487,0.246324,-9.436866,1.021796,-0.50842,0.087741,0.073316,0.160878,43.786204,14.849702,-1.191491,4.63583E+18,0.367474,0.647576,0.343169,-0.572576,0
-9.669806,0.317392,2.774993,0.772459,-0.278632,-0.079219,46.515305,-2.848237,7.315075,4.63583E+18,0.835211,-0.017324,0.548066,0.04179,-10.542316,0.812992,0.454003,0.084363,-0.222821,-0.051067,40.723896,-18.997178,14.734336,4.63583E+18,0.570995,-0.280819,0.731069,0.246259,-9.745526,1.096115,-0.551747,0.065827,0.085557,0.138014,43.761661,14.844202,-1.093838,4.63583E+18,0.36743,0.648144,0.34269,-0.572248,0
-9.933982,0.20717,2.871466,0.817258,-0.315954,-0.070259,46.522415,-2.856532,7.199642,4.63583E+18,0.836014,-0.014745,0.547068,0.039746,-10.52035,0.996047,0.952081,0.224901,-0.181388,-0.006205,40.65558,-18.848296,14.65626,4.63583E+18,0.57173,-0.280024,0.730945,0.245825,-9.875262,0.868911,-0.78165,0.043313,0.091215,0.127967,43.840403,14.803963,-1.049837,4.63583E+18,0.367414,0.648676,0.342302,-0.571888,0
-10.192709,0.018962,2.925036,0.861912,-0.335772,-0.058821,46.522415,-2.625065,7.267316,4.63583E+18,0.836852,-0.011976,0.546002,0.037634,-10.571562,1.049917,1.284145,0.396032,-0.11175,0.025628,40.552994,-18.7359,14.539018,4.63583E+18,0.572419,-0.278794,0.731199,0.244864,-9.754394,0.543305,-1.233852,0.039099,0.090957,0.128976,43.920354,14.817904,-1.056543,4.63583E+18,0.367412,0.649203,0.34192,-0.571519,0
-10.327819,-0.143289,2.841599,0.885557,-0.324032,-0.041284,46.445258,-2.534043,7.26459,4.63583E+18,0.83765,-0.009085,0.544974,0.035526,-10.744907,0.695955,1.555143,0.544705,-0.036978,0.058308,40.587148,-18.884776,14.69515,4.63583E+18,0.573017,-0.277182,0.731819,0.24344,-9.805471,0.43465,-1.458183,0.024101,0.091109,0.141944,44.005799,14.85641,-0.907812,4.63583E+18,0.36748,0.649726,0.34154,-0.571108,0
-10.328648,-0.257897,2.677806,0.940675,-0.346692,-0.039521,46.293674,-2.526932,7.009893,4.63583E+18,0.838492,-0.00595,0.543868,0.033234,-10.859687,0.502884,1.782211,0.726258,0.032016,0.090999,40.667716,-19.002072,15.002828,4.63583E+18,0.573577,-0.275101,0.732821,0.241459,-9.975162,0.336996,-1.499616,0.016714,0.09165,0.155889,44.044312,14.809474,-0.781274,4.63583E+18,0.384005,0.640085,0.359868,-0.559755,0
-10.283379,-0.411835,2.760402,1.006168,-0.393644,-0.028914,46.201119,-2.449786,6.894467,4.63583E+18,0.839424,-0.002556,0.542596,0.030831,-10.879247,0.764024,1.887269,0.92196,0.096542,0.097847,40.677542,-18.826384,15.151791,4.63583E+18,0.574149,-0.272592,0.734173,0.238821,-10.160665,0.400246,-1.605175,0.007013,0.084445,0.166675,43.957157,14.730733,-0.881838,4.63583E+18,0.384172,0.640614,0.359467,-0.559293,0
-10.124342,-0.460321,2.870268,1.072392,-0.361775,-0.027772,46.41323,-2.518626,6.796809,4.63583E+18,0.84026,0.000935,0.541434,0.02849,-10.91825,1.213224,2.02141,1.042494,0.13031,0.071158,40.592091,-18.560202,15.244572,4.63583E+18,0.574772,-0.269902,0.735685,0.235708,-10.140258,0.541925,-1.626689,-0.012108,0.082457,0.183117,43.885616,14.610567,-1.01131,4.63583E+18,0.384431,0.641132,0.359064,-0.558781,0
-9.909356,-0.331632,2.616448,1.184904,-0.330829,-0.041272,46.800648,-2.526932,6.69915,4.63583E+18,0.841013,0.004875,0.540381,0.02571,-10.837887,1.796658,2.263225,0.928358,0.16148,-0.009991,40.535909,-18.423446,15.373929,4.63583E+18,0.575241,-0.267753,0.737056,0.23271,-9.818716,0.673123,-1.532118,-0.023228,0.079103,0.198134,43.972783,14.539018,-1.0029,4.63583E+18,0.384758,0.641646,0.358642,-0.558236,0
-9.843924,-0.052957,2.433715,1.331298,-0.386731,-0.051403,46.75166,-2.383697,6.425221,4.63583E+18,0.841866,0.009313,0.539134,0.022559,-10.60578,2.807,2.029204,0.492895,0.220866,-0.093563,40.562718,-18.372143,15.530212,4.63583E+18,0.575117,-0.266958,0.738048,0.23078,-9.645055,0.798304,-1.249074,-0.033851,0.062447,0.204709,44.091258,14.539018,-0.85708,4.63583E+18,0.385153,0.642115,0.3582,-0.557708,0
-9.795096,0.317139,2.560298,1.456734,-0.477916,-0.081261,46.521788,-2.225004,6.220393,4.63583E+18,0.842892,0.014135,0.53756,0.019015,-10.791098,3.476971,1.455348,0.104547,0.232034,-0.088463,40.614029,-18.406274,15.627861,4.63583E+18,0.574518,-0.267089,0.738695,0.230047,-9.723113,0.755136,-0.800521,-0.027681,0.040017,0.196765,44.089529,14.411609,-0.822712,4.63583E+18,0.385545,0.64253,0.35773,-0.557261,0
-9.735242,0.662552,2.652896,1.559336,-0.468756,-0.107524,46.575133,-2.132406,6.278495,4.63583E+18,0.843858,0.019257,0.536006,0.015147,-10.764879,2.147463,0.869652,0.083227,0.165822,-0.088627,40.584772,-18.491727,15.686513,4.63583E+18,0.574099,-0.267206,0.739163,0.229453,-9.872001,0.623269,-0.619481,0.013418,0.025215,0.199623,44.063223,14.17968,-0.813085,4.63583E+18,0.385855,0.642981,0.357133,-0.556909,0
-9.553034,0.960223,2.231563,1.648154,-0.447501,-0.140866,46.649552,-1.980871,6.110546,4.63583E+18,0.844732,0.024616,0.53451,0.010964,-10.169033,0.481193,0.312555,0.253676,0.103204,-0.138618,40.570038,-18.543045,15.686513,4.63583E+18,0.574111,-0.267005,0.739589,0.228283,-9.868573,0.560338,-0.787799,0.067201,0.024296,0.217089,44.155891,14.034905,-0.661785,4.63583E+18,0.386061,0.643542,0.356364,-0.556611,0
-9.357719,1.242177,1.689387,1.716461,-0.483975,-0.187577,46.57958,-1.822179,5.738969,4.63583E+18,0.845639,0.030113,0.532866,0.006457,-9.785653,0.312441,0.141804,0.420764,0.07905,-0.176228,40.545775,-18.445538,15.681638,4.63583E+18,0.574417,-0.266496,0.740072,0.226536,-9.775728,0.696827,-0.930165,0.099005,0.016144,0.225484,44.267647,14.001891,-0.627382,4.63583E+18,0.386213,0.644147,0.355485,-0.556367,0
-8.975123,1.533964,1.45953,1.754732,-0.542124,-0.236608,46.571243,-1.729581,5.700857,4.63583E+18,0.846624,0.035635,0.530995,0.001687,-9.54139,0.368679,-0.024453,0.592044,0.066235,-0.187574,40.438251,-18.167263,15.747436,4.63583E+18,0.574961,-0.265595,0.740671,0.224245,-9.659865,0.905043,-1.079546,0.105747,0.003371,0.223515,44.253741,13.954966,-0.82559,4.63583E+18,0.38636,0.644731,0.354575,-0.55617,0
-8.429126,1.904015,1.462504,1.765882,-0.572055,-0.299231,46.637335,-1.511957,5.601721,4.63583E+18,0.847624,0.041057,0.528996,-0.003335,-9.485108,0.085935,-0.002415,0.819738,0.057891,-0.17412,40.494283,-17.901059,16.013391,4.63583E+18,0.575766,-0.264089,0.741473,0.221287,-9.428629,0.983296,-1.244451,0.101641,-0.002933,0.215828,44.215214,13.835997,-1.005806,4.63583E+18,0.386508,0.645282,0.353685,-0.555995,0
-8.153954,2.293497,1.619116,1.766716,-0.54671,-0.379712,46.633473,-1.11475,5.315584,4.63583E+18,0.848516,0.046308,0.527068,-0.008647,-9.356092,-0.409979,-0.209589,1.084563,0.070902,-0.134221,40.648091,-17.700933,16.399117,4.63583E+18,0.576777,-0.261825,0.742585,0.217587,-9.516531,1.183181,-1.200146,0.069531,-0.025282,0.21032,44.262134,13.769951,-0.996214,4.63583E+18,0.386761,0.645721,0.352849,-0.55584,0
-8.229278,2.540926,1.602743,1.749366,-0.531156,-0.440754,46.775495,-0.853923,5.186658,4.63583E+18,0.849324,0.051361,0.525177,-0.014135,-8.965397,-0.671165,-0.751454,1.420332,0.101233,-0.051132,40.701991,-17.422666,16.660597,4.63583E+18,0.577967,-0.258515,0.744144,0.213009,-9.679274,0.954091,-1.203507,0.042412,-0.049281,0.214635,44.347582,13.769951,-0.952177,4.63583E+18,0.387132,0.646066,0.352026,-0.555702,0
-8.350135,2.651665,1.566129,1.71376,-0.548112,-0.498526,46.868075,-0.686925,5.076815,4.63583E+18,0.850123,0.056157,0.523208,-0.019749,-8.621153,-1.088394,-1.469075,1.822317,0.143938,0.046695,40.582439,-17.093091,16.824001,4.63583E+18,0.579342,-0.253958,0.746235,0.207365,-9.748689,0.453827,-1.282974,0.049491,-0.058476,0.231872,44.426331,13.682823,-0.952177,4.63583E+18,0.387536,0.646428,0.351125,-0.55557,0
-8.439156,2.617165,1.562548,1.673489,-0.554914,-0.54849,46.865415,-0.462176,4.548501,4.63583E+18,0.850893,0.060697,0.5212,-0.025455,-8.213594,-1.430729,-2.34785,2.24766,0.203745,0.160111,40.44077,-16.826832,17.18273,4.63583E+18,0.580839,-0.248052,0.748904,0.200596,-10.056,0.445913,-1.092945,0.061785,-0.069094,0.258301,44.506272,13.571047,-0.905268,4.63583E+18,0.387982,0.646822,0.350108,-0.555441,0
-8.480563,2.678464,1.672681,1.652169,-0.509181,-0.583174,46.930301,-0.362373,4.139898,4.63583E+18,0.851516,0.065085,0.519336,-0.031219,-8.015128,-1.445293,-2.829919,2.748662,0.229469,0.307048,40.377219,-16.626694,17.697797,4.63583E+18,0.582582,-0.240465,0.752124,0.192571,-10.193913,0.494534,-0.766947,0.072779,-0.080529,0.288312,44.544815,13.538011,-0.91363,4.63583E+18,0.388483,0.647252,0.348966,-0.55531,0
-8.484145,2.806748,1.816752,1.626202,-0.421309,-0.602792,47.003532,-0.210874,4.090677,4.63583E+18,0.851907,0.069343,0.517763,-0.036968,-8.619837,-2.122565,-1.959755,3.422265,0.177174,0.481355,40.39424,-16.314372,18.227649,4.63583E+18,0.584921,-0.230609,0.755806,0.182878,-10.030441,0.325555,-0.701792,0.093114,-0.090247,0.332188,44.49791,13.450902,-1.059388,4.63583E+18,0.389044,0.647755,0.347642,-0.555161,0
-8.484145,2.907994,1.754037,1.575414,-0.274536,-0.602645,46.933637,0.168029,4.07847,4.63583E+18,0.851952,0.073443,0.516693,-0.042566,-9.158291,-2.316626,-0.908217,4.128968,0.13841,0.668005,40.42605,-15.90425,18.618422,4.63583E+18,0.587763,-0.218348,0.75992,0.171405,-9.789429,0.097943,-1.024854,0.13868,-0.099169,0.383728,44.466062,13.205118,-1.194395,4.63583E+18,0.389612,0.648384,0.346059,-0.555017,0
-8.616288,2.895546,1.360243,1.501766,-0.210419,-0.588946,46.848175,0.570917,3.967154,4.63583E+18,0.851842,0.077344,0.515831,-0.047977,-8.714393,-0.076145,-1.480483,4.706814,0.162967,0.862025,40.345661,-15.428336,19.050177,4.63583E+18,0.590702,-0.203997,0.764418,0.158498,-9.715158,0.048085,-1.37244,0.185975,-0.110163,0.426412,44.605553,12.981531,-1.232948,4.63583E+18,0.390165,0.649124,0.344233,-0.554899,0
-8.762762,2.761026,1.131218,1.458692,-0.216646,-0.577847,46.916881,0.830584,3.779028,4.63583E+18,0.851726,0.08109,0.514932,-0.053222,-8.132994,2.013035,-2.555624,5.136138,0.182011,1.022068,40.162554,-14.949529,19.787278,4.63583E+18,0.593573,-0.188,0.769049,0.144536,-9.907797,0.379026,-1.510592,0.19426,-0.131669,0.459694,44.715717,12.828343,-1.232948,4.63583E+18,0.390801,0.649874,0.342262,-0.554794,0
-8.876218,2.658581,1.198958,1.441329,-0.199597,-0.574873,46.99132,1.074729,3.572701,4.63583E+18,0.851544,0.084776,0.514076,-0.058404,-7.795962,3.048259,-2.815266,5.428066,0.19671,1.148554,39.979471,-14.593238,20.680617,4.63583E+18,0.596241,-0.170788,0.773604,0.129869,-9.947407,0.791227,-1.484546,0.169825,-0.150647,0.486084,44.675528,12.669658,-1.279837,4.63583E+18,0.391588,0.650574,0.340243,-0.554659,0
-9.030127,2.494859,1.241565,1.454315,-0.15907,-0.569846,46.921429,1.38494,3.453259,4.63583E+18,0.851237,0.088528,0.513338,-0.063582,-7.598022,3.83732,-2.746516,5.598248,0.23707,1.238547,39.79636,-14.080826,21.477019,4.63583E+18,0.598511,-0.152786,0.777989,0.114779,-9.808812,1.060529,-1.232844,0.129095,-0.163568,0.504307,44.635778,12.517668,-1.425563,4.63583E+18,0.392544,0.651201,0.338247,-0.554468,0
-9.166787,2.412047,1.201118,1.477078,-0.142358,-0.574139,46.75892,1.713308,3.431478,4.63583E+18,0.850844,0.092385,0.512626,-0.068871,-7.434631,4.350139,-2.985383,5.678643,0.291094,1.285379,39.574331,-13.392488,22.072573,4.63583E+18,0.600278,-0.134363,0.782127,0.099445,-9.713529,1.293658,-0.847716,0.090887,-0.173938,0.516435,44.724036,12.404667,-1.513718,4.63583E+18,0.393643,0.651756,0.336288,-0.554229,0
-9.356113,2.228713,1.119262,1.494797,-0.125583,-0.59104,46.665084,2.119967,3.496335,4.63583E+18,0.850367,0.096269,0.511953,-0.074249,-7.244034,4.624129,-3.341994,5.708383,0.356234,1.294611,39.298467,-12.68934,22.836234,4.63583E+18,0.60148,-0.115777,0.785984,0.083942,-9.687168,1.705213,-0.658013,0.052295,-0.192548,0.52067,44.84805,12.238858,-1.513718,4.63583E+18,0.394879,0.652208,0.334374,-0.553976,0
-9.397301,2.000393,0.923742,1.542708,-0.153764,-0.603417,46.733748,2.380865,3.492517,4.63583E+18,0.849887,0.100283,0.511146,-0.079781,-7.275255,4.609623,-3.493795,5.726719,0.417784,1.278395,39.09315,-11.996085,23.664307,4.63583E+18,0.602124,-0.097147,0.789525,0.06826,-9.67259,1.738904,-0.74074,0.017982,-0.220318,0.51843,44.846445,11.879701,-1.507022,4.63583E+18,0.39624,0.652532,0.332499,-0.553751,0
-9.388693,1.801478,0.870325,1.612278,-0.169539,-0.635393,46.808193,2.481912,3.48031,4.63583E+18,0.849377,0.104356,0.510271,-0.085395,-7.558324,4.711522,-3.328292,5.718539,0.463947,1.246591,38.978418,-11.154131,24.245665,4.63583E+18,0.602251,-0.07859,0.792694,0.052464,-9.716323,1.160771,-0.858074,0.019299,-0.241645,0.523429,44.773199,11.543049,-1.548385,4.63583E+18,0.397635,0.652814,0.330571,-0.553573,0
-9.398499,1.760268,0.899745,1.696356,-0.197869,-0.66957,46.738346,2.633392,3.303009,4.63583E+18,0.848814,0.108746,0.509231,-0.091499,-7.958512,5.082609,-2.891482,5.600789,0.492609,1.196203,38.793098,-10.233443,24.821444,4.63583E+18,0.601892,-0.060449,0.795431,0.03689,-9.966787,0.823408,-0.89114,0.046898,-0.256495,0.541036,44.780305,11.47851,-1.640526,4.63583E+18,0.399013,0.653127,0.328505,-0.553442,0
-9.322658,1.933964,0.870329,1.748101,-0.254742,-0.705676,46.652898,3.155289,2.920589,4.63583E+18,0.848285,0.113215,0.507955,-0.097862,-8.422462,5.529123,-2.24984,5.347464,0.487341,1.127443,38.488019,-9.512876,25.56606,4.63583E+18,0.601157,-0.043134,0.797664,0.021966,-10.185703,0.86476,-0.924614,0.067328,-0.269208,0.562294,44.900409,11.431244,-1.845297,4.63583E+18,0.400399,0.653471,0.326311,-0.553333,0
-9.380278,1.986199,0.822706,1.800014,-0.288553,-0.773766,46.633485,3.584711,2.693865,4.63583E+18,0.847719,0.117701,0.506539,-0.104584,-8.84967,5.80606,-1.349371,4.923539,0.436994,1.034367,38.23865,-8.871114,26.164731,4.63583E+18,0.600221,-0.027164,0.79933,0.008218,-10.176246,0.976991,-0.992346,0.072634,-0.286816,0.588447,45.05241,11.197722,-2.13158,4.63583E+18,0.40185,0.653814,0.324003,-0.553232,0
-9.343469,2.033831,0.817896,1.832135,-0.359016,-0.84245,46.698316,3.834713,2.486319,4.63583E+18,0.847197,0.122116,0.504857,-0.111645,-9.296347,5.102916,-0.212193,4.36376,0.356699,0.899663,38.162826,-8.092481,26.499374,4.63583E+18,0.599248,-0.013026,0.800448,-0.003996,-10.031735,1.030935,-0.985258,0.076734,-0.311003,0.615907,45.252441,10.932721,-2.365474,4.63583E+18,0.403383,0.654141,0.321568,-0.553151,0
-9.063543,2.170694,0.806891,1.84567,-0.374078,-0.902138,46.705524,4.15467,2.190775,4.63583E+18,0.846634,0.126332,0.503135,-0.118768,-9.821086,3.331195,0.943316,3.80408,0.275697,0.722604,38.138411,-7.296378,26.845753,4.63583E+18,0.59832,-0.000868,0.80112,-0.014781,-9.775007,1.025422,-1.005724,0.09651,-0.338394,0.64223,45.362709,10.740953,-2.446995,4.63583E+18,0.404955,0.654467,0.318966,-0.553122,0
-8.824389,2.185125,0.827698,1.849716,-0.322923,-0.947405,46.628491,4.473261,1.896598,4.63583E+18,0.845852,0.130587,0.501552,-0.1262,-10.287948,1.627912,1.384812,3.367793,0.212226,0.542671,38.07996,-6.619818,27.270723,4.63583E+18,0.597446,0.009601,0.801476,-0.024555,-9.604868,1.032115,-1.029757,0.13286,-0.364891,0.670002,45.282389,10.495244,-2.488334,4.63583E+18,0.406522,0.654825,0.316158,-0.553161,0
-8.790534,2.119105,0.75308,1.848106,-0.298947,-0.985417,46.609068,4.801623,1.592649,4.63583E+18,0.844936,0.134759,0.500036,-0.133741,-10.362034,1.263299,0.868244,3.061777,0.164561,0.403316,37.911768,-6.075293,27.486211,4.63583E+18,0.596612,0.018837,0.801603,-0.03365,-9.810358,1.057707,-0.852594,0.167488,-0.394142,0.697772,45.129218,10.177872,-2.57378,4.63583E+18,0.408092,0.655204,0.313142,-0.553272,0
-8.921385,2.166904,0.645611,1.857525,-0.330646,-1.008363,46.59686,5.274313,1.364466,4.63583E+18,0.844002,0.138888,0.498377,-0.14139,-10.059628,2.399567,0.067147,2.758794,0.127599,0.287967,37.718602,-5.54558,27.435105,4.63583E+18,0.595814,0.02693,0.80157,-0.042019,-10.359182,1.087634,-0.633253,0.193983,-0.429007,0.729053,45.144509,9.907355,-2.665913,4.63583E+18,0.409701,0.655581,0.309917,-0.553453,0
-9.045839,2.106905,0.667791,1.871092,-0.354547,-1.029721,46.518645,5.685495,1.15578,4.63583E+18,0.843029,0.142993,0.496599,-0.149145,-9.661559,3.78993,-0.419699,2.359048,0.088731,0.152591,37.684147,-5.001029,27.558599,4.63583E+18,0.595093,0.033571,0.801435,-0.049388,-10.710587,1.125428,-0.534779,0.222061,-0.458882,0.759134,45.396863,9.635285,-2.81709,4.63583E+18,0.411336,0.655967,0.30649,-0.553692,0
-9.222919,2.374717,0.594395,1.88594,-0.34906,-1.037607,46.433195,6.165342,0.860245,4.63583E+18,0.841963,0.147126,0.494794,-0.156943,-9.390202,4.185544,-0.529668,1.920864,0.050687,-0.005048,37.745179,-4.500562,27.952022,4.63583E+18,0.594476,0.038587,0.801254,-0.055683,-10.62093,1.267909,-0.546159,0.257718,-0.485789,0.786422,45.539133,9.457222,-3.11274,4.63583E+18,0.412963,0.656377,0.302855,-0.553994,0
-9.483072,2.525892,0.464922,1.904747,-0.319333,-1.04883,46.490772,6.730713,0.720073,4.63583E+18,0.84078,0.151207,0.493079,-0.164616,-9.263156,3.454324,-0.700126,1.544048,0.026941,-0.155063,37.777053,-4.034083,27.958107,4.63583E+18,0.593929,0.042161,0.801085,-0.061092,-10.416929,1.534453,-0.640637,0.296067,-0.520481,0.806583,45.486792,9.297025,-3.384126,4.63583E+18,0.414568,0.656788,0.299013,-0.554396,0
-9.828584,2.704149,0.330668,1.909532,-0.323872,-1.056727,46.34399,7.293343,0.510019,4.63583E+18,0.839496,0.155373,0.491277,-0.172488,-9.141208,2.358021,-1.070943,1.268945,0.013699,-0.273904,37.83288,-3.682245,27.684136,4.63583E+18,0.593421,0.044655,0.800948,-0.065877,-10.346359,1.618903,-0.595488,0.346328,-0.562343,0.82281,45.501674,8.891172,-3.567237,4.63583E+18,0.416116,0.657197,0.294932,-0.554936,0
-10.083588,2.832254,0.262391,1.900223,-0.366106,-1.069017,46.107089,7.568862,0.312292,4.63583E+18,0.838225,0.159437,0.489301,-0.180398,-9.011681,1.495421,-1.507978,1.094233,-0.000185,-0.357054,37.923544,-3.430784,27.775944,4.63583E+18,0.592951,0.04644,0.800819,-0.070288,-10.325125,1.307229,-0.492647,0.426521,-0.600867,0.849746,45.632767,8.435509,-3.803841,4.63583E+18,0.417545,0.657676,0.29052,-0.555622,0
-10.195732,2.888326,0.267356,1.883766,-0.389898,-1.077984,46.071947,7.736008,0.028971,4.63583E+18,0.836935,0.163393,0.487219,-0.188307,-8.979665,0.882685,-1.859879,1.019896,-0.020872,-0.413285,37.877332,-3.118628,28.076649,4.63583E+18,0.592533,0.047852,0.800656,-0.074596,-10.389985,1.106521,-0.529589,0.526745,-0.641483,0.88568,45.657704,8.177475,-4.077908,4.63583E+18,0.418822,0.658263,0.2857,-0.556465,0
-10.19439,3.04714,0.19157,1.873415,-0.359288,-1.080754,46.136735,8.191659,-0.274974,4.63583E+18,0.835519,0.167316,0.485213,-0.196167,-9.096503,0.233327,-2.067657,1.042565,-0.062899,-0.453036,37.813677,-2.674429,28.143174,4.63583E+18,0.592223,0.049182,0.800374,-0.079089,-10.448371,1.577775,-0.740915,0.598169,-0.68273,0.908436,45.572259,7.931862,-4.35314,4.63583E+18,0.419991,0.658889,0.280573,-0.55745,0
-10.171184,3.163048,0.117118,1.877275,-0.315273,-1.089627,46.132987,8.602958,-0.756137,4.63583E+18,0.833934,0.171257,0.483323,-0.20402,-9.282232,-0.33121,-2.119356,1.148593,-0.131424,-0.491685,37.806328,-2.244426,28.038166,4.63583E+18,0.59209,0.050625,0.799877,-0.084045,-10.4039,2.207253,-1.005967,0.613192,-0.722453,0.905076,45.533615,7.574371,-4.633895,4.63583E+18,0.421145,0.659426,0.275343,-0.558552,0
-10.267768,3.239926,-0.000135,1.898979,-0.309869,-1.096354,45.977775,9.016846,-0.992691,4.63583E+18,0.832247,0.175248,0.481397,-0.21192,-9.421371,-0.670903,-1.992677,1.304292,-0.213464,-0.536329,37.835475,-1.907477,27.940507,4.63583E+18,0.592162,0.052274,0.799109,-0.089644,-10.416409,2.430438,-1.037327,0.588953,-0.766451,0.887782,45.540301,7.143618,-4.90798,4.63583E+18,0.422362,0.659778,0.270132,-0.55976,0
-10.333621,3.445127,-0.18817,1.906115,-0.363651,-1.095063,45.960873,9.640768,-1.03521,4.63583E+18,0.83063,0.179122,0.479267,-0.219709,-9.553282,-1.055898,-1.780303,1.47559,-0.302072,-0.580557,37.869858,-1.509892,27.91571,4.63583E+18,0.592448,0.054165,0.798039,-0.095939,-10.556513,2.067064,-0.99665,0.589493,-0.814721,0.882011,45.63274,6.679736,-5.290205,4.63583E+18,0.423605,0.659993,0.264842,-0.561094,0
-10.33967,3.521889,-0.27351,1.911455,-0.428278,-1.098701,45.872893,9.990817,-1.400542,4.63583E+18,0.829034,0.182998,0.476846,-0.227667,-9.837941,-1.857929,-1.448915,1.663721,-0.403958,-0.624759,37.913426,-0.878344,27.918604,4.63583E+18,0.59298,0.056335,0.796614,-0.10299,-10.671597,1.490457,-1.093437,0.654395,-0.859071,0.896126,45.78474,6.255997,-5.712781,4.63583E+18,0.424737,0.660212,0.259276,-0.562579,0
-10.317676,3.549934,-0.357752,1.905249,-0.479963,-1.098162,45.566286,10.319207,-1.968347,4.63583E+18,0.827467,0.186803,0.474204,-0.235656,-10.144493,-2.643448,-1.225173,1.854336,-0.506068,-0.668999,38.123018,-0.116268,27.76741,4.63583E+18,0.593745,0.05879,0.794816,-0.110805,-10.660263,1.242832,-1.28671,0.747903,-0.888062,0.916318,45.851006,5.865381,-6.084505,4.63583E+18,0.425674,0.660526,0.253374,-0.564188,0
-10.30426,3.387414,-0.311242,1.900659,-0.501296,-1.101905,45.313694,10.637775,-2.290334,4.63583E+18,0.825869,0.190546,0.471454,-0.243646,-10.301923,-2.800491,-1.17775,1.999545,-0.592674,-0.710001,38.335961,0.479818,27.572092,4.63583E+18,0.594693,0.061427,0.792688,-0.119219,-10.719548,1.30764,-1.44512,0.827278,-0.916546,0.933205,45.810899,5.474744,-6.504203,4.63583E+18,0.426444,0.660906,0.24718,-0.565907,0
-10.402012,3.32526,-0.173234,1.922364,-0.497325,-1.117723,45.278471,10.966159,-2.594304,4.63583E+18,0.824157,0.194319,0.468666,-0.251709,-10.265898,-2.329291,-1.189924,2.064293,-0.696694,-0.765059,38.336384,1.077419,27.294241,4.63583E+18,0.595884,0.063992,0.790217,-0.128003,-11.038643,1.586633,-1.462568,0.867665,-0.95998,0.937631,45.730976,5.084133,-6.921268,4.63583E+18,0.427139,0.661232,0.24079,-0.567754,0
-10.54485,3.28743,-0.158696,1.931537,-0.493803,-1.099216,45.409194,11.28473,-3.064375,4.63583E+18,0.822376,0.198145,0.465824,-0.2597,-11.212663,-3.257447,0.209326,2.220218,-0.940626,-0.865717,38.362452,1.792941,26.930234,4.63583E+18,0.597717,0.066482,0.787006,-0.137607,-11.430145,1.777915,-1.333544,0.872373,-1.01018,0.934528,45.69231,4.7002,-7.292994,4.63583E+18,0.427844,0.661414,0.234298,-0.569725,0
-10.801281,3.283792,-0.301624,1.95152,-0.530041,-1.082558,45.269827,11.898967,-3.486698,4.63583E+18,0.820592,0.202013,0.462781,-0.267681,-13.185287,-6.724961,1.87155,2.081663,-0.993083,-1.150514,38.686612,2.532276,26.591084,4.63583E+18,0.599525,0.067658,0.783738,-0.147468,-11.878881,1.801171,-1.111493,0.844327,-1.076172,0.929468,45.645528,4.355186,-7.712681,4.63583E+18,0.428657,0.661353,0.227759,-0.571832,0
-11.179789,3.184842,-0.394353,2.050806,-0.638933,-1.064611,44.955995,12.326071,-3.8028,4.63583E+18,0.818877,0.206114,0.459194,-0.275858,-11.946816,-4.731455,-1.808679,1.304667,-0.816667,-1.532068,38.956324,3.398793,26.234449,4.63583E+18,0.60068,0.065757,0.781422,-0.155687,-12.542935,1.52604,-0.813903,0.800739,-1.149947,0.924915,45.560083,3.997721,-8.283448,4.63583E+18,0.429628,0.661002,0.221193,-0.574081,0
-11.41648,3.020021,-0.413837,2.197153,-0.763044,-1.059921,44.692389,12.366099,-4.250863,4.63583E+18,0.817193,0.210557,0.454964,-0.284376,-10.998657,2.568998,-3.626542,0.91006,-0.973256,-1.600661,38.936763,4.277834,25.929278,4.63583E+18,0.602359,0.062544,0.778934,-0.162829,-13.205054,0.953222,-0.605747,0.811701,-1.209434,0.926286,45.514727,3.607105,-8.835706,4.63583E+18,0.430605,0.660497,0.214481,-0.576473,0
-11.757133,3.233873,-0.063277,2.256381,-0.817798,-1.065374,44.589937,12.651916,-4.824668,4.63583E+18,0.815459,0.215101,0.450429,-0.293041,-10.563888,4.476314,-2.266384,0.665079,-0.94758,-1.458156,39.08467,4.98423,25.628968,4.63583E+18,0.604075,0.059197,0.776591,-0.168806,-13.718667,0.691452,-0.447953,0.873192,-1.254274,0.942837,45.54929,3.26324,-9.252816,4.63583E+18,0.431468,0.659973,0.207483,-0.578983,0
-12.221026,3.237394,0.27236,2.224722,-0.810933,-1.093903,44.493502,13.266049,-5.520476,4.63583E+18,0.813609,0.219465,0.445927,-0.301703,-8.506147,2.272818,-3.341899,0.570961,-0.806077,-1.359209,39.378296,5.484829,25.369914,4.63583E+18,0.605391,0.056035,0.774609,-0.174189,-13.901924,0.621179,-0.300568,0.927036,-1.279764,0.954924,45.54236,2.777692,-9.671306,4.63583E+18,0.432209,0.659457,0.200266,-0.581555,0
-12.565247,3.059077,0.085329,2.224527,-0.725011,-1.109492,44.252927,13.616297,-6.107653,4.63583E+18,0.811485,0.22388,0.44168,-0.310305,-8.393556,0.607906,-2.757669,0.761545,-0.814243,-1.379172,39.427673,6.019482,25.167185,4.63583E+18,0.606644,0.053281,0.772438,-0.180232,-13.706133,0.355609,-0.389959,0.985541,-1.290726,0.959016,45.375598,2.236464,-10.183077,4.63583E+18,0.432781,0.658983,0.192864,-0.584163,0
-12.883823,2.81981,-0.686395,2.25669,-0.709888,-1.086829,44.007588,13.713826,-6.593413,4.63583E+18,0.809238,0.228439,0.437369,-0.318839,-9.850178,-0.092803,-1.203818,0.672419,-0.876788,-1.486861,39.398016,6.634521,24.850471,4.63583E+18,0.608002,0.04991,0.77016,-0.186268,-13.502304,0.27548,-0.513864,1.028466,-1.307454,0.968831,45.178209,1.812664,-10.684496,4.63583E+18,0.433244,0.658512,0.185289,-0.586796,0
-12.981374,2.696584,-0.96689,2.274625,-0.791951,-1.027433,43.895354,13.863994,-7.168356,4.63583E+18,0.807107,0.233028,0.432649,-0.327246,-11.092794,-0.313656,-0.243029,0.580504,-0.93923,-1.530534,39.563506,7.264524,24.354871,4.63583E+18,0.609508,0.046119,0.767763,-0.192126,-13.245499,0.234938,-0.645147,1.028989,-1.341472,0.977073,45.0596,1.375297,-11.249689,4.63583E+18,0.433723,0.657921,0.177617,-0.589471,0
-12.296305,2.520778,-0.911869,2.286801,-0.779955,-0.941334,43.731754,14.088628,-7.919155,4.63583E+18,0.804966,0.237801,0.427819,-0.335337,-11.389774,-1.27595,0.046735,0.775352,-0.993651,-1.484842,39.776444,7.816528,23.86654,4.63583E+18,0.611148,0.042925,0.76502,-0.198493,-12.71348,-0.334377,-1.031835,1.028646,-1.387702,0.988842,45.014226,0.945985,-11.855423,4.63583E+18,0.434236,0.657181,0.169819,-0.592211,0
-11.065796,2.095935,-1.672558,2.476429,-0.624731,-0.86711,43.637792,14.254611,-8.435398,4.63583E+18,0.802367,0.24353,0.423119,-0.343323,-10.660741,-2.03959,-0.034262,0.949671,-1.061171,-1.453106,39.844828,8.384987,23.455959,4.63583E+18,0.612956,0.040219,0.761908,-0.205337,-11.980814,-1.199953,-1.596826,1.066693,-1.418721,1.021711,44.881802,0.515276,-12.356855,4.63583E+18,0.434716,0.656409,0.161769,-0.594962,0
-10.674076,2.072823,-1.922714,2.479059,-0.556811,-0.828126,43.541341,14.259465,-8.824832,4.63583E+18,0.799602,0.249401,0.41855,-0.351073,-8.925474,-1.272523,-0.172417,0.988012,-1.101673,-1.44228,39.910716,9.022363,23.158147,4.63583E+18,0.614851,0.037607,0.758608,-0.212266,-11.414433,-1.787299,-1.987935,1.117156,-1.438832,1.092179,44.643198,0.011358,-12.915346,4.63583E+18,0.435213,0.655677,0.153353,-0.597629,0
-10.293217,2.31701,-0.138828,2.27031,-0.551164,-0.764996,43.234904,14.401101,-9.291134,4.63583E+18,0.797045,0.254666,0.414192,-0.358203,-7.489859,-0.58788,-0.65291,1.045415,-1.137814,-1.418963,40.013081,9.64227,22.852976,4.63583E+18,0.616825,0.035182,0.75511,-0.21931,-11.323145,-1.979893,-2.040725,1.140015,-1.488038,1.195236,44.525931,-0.445612,-13.515563,4.63583E+18,0.435898,0.654875,0.144498,-0.60021,0
-8.935591,2.27789,1.039019,2.136811,-0.205986,-0.700695,42.982228,14.636715,-9.866115,4.63583E+18,0.794054,0.260088,0.411072,-0.364489,-6.95131,-0.865838,-0.998654,1.148953,-1.230453,-1.408681,40.15956,10.376722,22.51384,4.63583E+18,0.619034,0.032973,0.751223,-0.226656,-11.422893,-2.142236,-1.648121,1.109031,-1.604692,1.325403,44.480337,-0.923053,-14.077103,4.63583E+18,0.437023,0.653744,0.135141,-0.602799,0
-7.690606,2.369462,0.598133,2.013987,0.218777,-0.640459,43.089698,14.803926,-10.188313,4.63583E+18,0.790494,0.26583,0.409444,-0.369877,-6.775562,-0.741911,-0.733953,1.172288,-1.312018,-1.422886,40.267221,11.240756,22.040724,4.63583E+18,0.621426,0.030705,0.747047,-0.234111,-11.350398,-2.9861,-2.029341,1.054093,-1.713412,1.442137,44.313626,-1.559144,-14.631931,4.63583E+18,0.438608,0.652238,0.125392,-0.605381,0
-7.063123,2.490328,0.361311,1.949789,0.084783,-0.546023,43.10434,14.885718,-10.217597,4.63583E+18,0.787322,0.271294,0.407338,-0.374966,-6.723465,0.22179,-0.298295,1.111105,-1.347072,-1.474511,40.330602,11.957316,21.447456,4.63583E+18,0.623826,0.028085,0.742786,-0.241499,-10.853536,-4.884075,-3.575983,1.275997,-1.649556,1.586948,43.989383,-2.267134,-15.281371,4.63583E+18,0.43987,0.651301,0.114794,-0.607572,0
-6.589584,2.963927,0.869132,1.936339,-0.16747,-0.45258,42.807722,14.893032,-10.470273,4.63583E+18,0.784684,0.276459,0.404292,-0.379986,-7.195031,1.963411,0.241353,0.960876,-1.382075,-1.532259,40.411202,12.37722,20.900316,4.63583E+18,0.626238,0.02486,0.73853,-0.248557,-10.310325,-5.770314,-4.027542,1.764506,-1.483737,1.81825,43.725596,-3.101942,-16.013766,4.63583E+18,0.440253,0.651702,0.10262,-0.609041,0
-5.719245,3.410712,2.311953,1.905685,-0.124125,-0.375033,42.631926,14.739233,-10.838922,4.63583E+18,0.782079,0.281705,0.401321,-0.384626,-8.678462,3.433734,1.597087,0.625893,-1.419705,-1.607449,40.445631,12.964552,20.373233,4.63583E+18,0.628666,0.020491,0.734473,-0.25477,-10.711599,-4.17393,-3.409604,2.326375,-1.354282,2.142381,43.533552,-4.128554,-16.539244,4.63583E+18,0.439798,0.653483,0.08836,-0.609697,0
-4.847539,3.65246,3.652487,1.897564,0.121027,-0.32322,42.681966,14.568311,-11.206405,4.63583E+18,0.779106,0.287384,0.399074,-0.388773,-11.36132,2.368815,2.741176,0.218685,-1.447065,-1.748344,40.455176,13.731572,19.860057,4.63583E+18,0.631008,0.0146,0.730731,-0.260093,-12.650005,-2.511508,-2.615683,2.994968,-1.336122,2.633285,43.233756,-5.353945,-16.779802,4.63583E+18,0.434731,0.656989,0.066865,-0.612294,0
-4.398357,3.6195,3.454722,1.898953,0.226227,-0.293315,42.755205,14.474324,-11.506678,4.63583E+18,0.775956,0.293269,0.397105,-0.392675,-13.801168,0.858635,2.318261,0.058826,-1.455284,-1.868898,40.487107,14.398113,19.423267,4.63583E+18,0.633197,0.00791,0.727086,-0.265225,-15.829423,-1.243274,-2.533251,3.518307,-1.499198,3.290533,42.83417,-6.944792,-17.079766,4.63583E+18,0.434328,0.660361,0.04678,-0.610814,0
-4.347059,2.943348,3.110512,1.903972,-0.14177,-0.296303,42.619736,14.465773,-11.788636,4.63583E+18,0.773353,0.298545,0.393917,-0.39702,-13.871859,0.204546,0.519338,0.114757,-1.448818,-1.905766,40.373071,15.159046,18.891402,4.63583E+18,0.635264,0.001263,0.723334,-0.270601,-19.76511,0.221213,-3.526009,3.946766,-1.711466,4.003524,42.446972,-8.798074,-17.45362,4.63583E+18,0.434375,0.663806,0.023248,-0.608391,0
-3.598822,1.781176,3.922149,1.814152,-0.79218,-0.272914,42.45004,14.465773,-12.245201,4.63583E+18,0.771918,0.302472,0.388726,-0.401926,-12.127729,-0.609991,-1.938689,0.116681,-1.43571,-1.944011,40.1433,15.972773,18.293239,4.63583E+18,0.637187,-0.005477,0.71955,-0.276062,-23.094678,1.437198,-4.702111,4.420476,-1.801108,4.683151,41.926192,-10.94363,-17.72316,4.63583E+18,0.434545,0.667538,-0.003524,-0.604608,0
-2.296473,0.693587,5.762743,1.663777,-0.855053,-0.325026,42.356042,14.311993,-12.798134,4.63583E+18,0.770637,0.305706,0.383626,-0.40681,-10.382201,-1.841409,-4.23321,0.025888,-1.359465,-2.052783,40.030586,16.602879,17.777509,4.63583E+18,0.638691,-0.012697,0.716005,-0.281515,-25.255681,1.720822,-5.507237,5.011805,-1.790862,5.328884,41.100208,-13.393058,-17.889523,4.63583E+18,0.434296,0.671826,-0.033557,-0.599091,0
-1.457723,-0.677224,6.242801,1.520324,-0.533506,-0.436848,42.270594,14.283885,-13.282778,4.63583E+18,0.768792,0.308828,0.379922,-0.411392,-9.374646,-3.001492,-5.140846,-0.063207,-1.238296,-2.170063,40.078905,17.188834,17.386871,4.63583E+18,0.639628,-0.020367,0.712811,-0.286988,-27.936102,-0.483049,-4.694603,6.129108,-1.853375,6.154755,40.142556,-15.919825,-17.898189,4.63583E+18,0.432468,0.677139,-0.068723,-0.591381,0
-1.829788,-1.707614,5.297014,1.445538,-0.37954,-0.470728,42.042348,14.348567,-13.58312,4.63583E+18,0.766707,0.311905,0.376866,-0.415748,-9.149494,-3.870793,-3.752767,-0.12936,-1.154145,-2.228899,40.135777,17.774761,16.952617,4.63583E+18,0.640175,-0.028293,0.709846,-0.292393,-31.088326,-6.649556,-4.155545,7.999855,-1.993779,7.219402,38.956983,-18.880164,-17.439227,4.63583E+18,0.42722,0.684088,-0.111565,-0.580568,0
-3.362625,-2.443701,4.408364,1.516636,-0.449021,-0.450125,42.006901,14.279026,-13.775998,4.63583E+18,0.764641,0.315108,0.373422,-0.420223,-9.782653,-4.508285,-1.319579,-0.151033,-1.123518,-2.256117,39.907242,18.38976,16.49093,4.63583E+18,0.640531,-0.03632,0.706915,-0.297777,-30.068387,-12.330575,-10.046214,10.088461,-1.72284,8.058949,37.457488,-22.414014,-16.403364,4.63583E+18,0.417092,0.693403,-0.161031,-0.565062,0
-5.087297,-3.272441,4.398291,1.631972,-0.63984,-0.39951,42.082544,14.127696,-14.134789,4.63583E+18,0.76277,0.318405,0.369083,-0.424945,-10.12171,-3.562165,0.176491,-0.179671,-1.113026,-2.250665,39.543002,19.116824,16.199579,4.63583E+18,0.640792,-0.044392,0.703979,-0.303032,-25.439339,-13.166108,-19.292726,11.140144,-1.121336,8.28575,35.611666,-26.264872,-14.872651,4.63583E+18,0.403477,0.70372,-0.212077,-0.544985,0
-6.403303,-3.829173,4.900969,1.717857,-0.568845,-0.348031,41.937408,14.243518,-14.611993,4.63583E+18,0.760724,0.322161,0.364727,-0.429517,-9.705246,-2.670007,0.585595,-0.290032,-1.116167,-2.23923,39.371389,19.980816,16.082358,4.63583E+18,0.640989,-0.052726,0.701107,-0.307901,-22.738354,-11.859082,-23.375352,10.696952,-0.459694,8.181522,33.574272,-30.105362,-12.654759,4.63583E+18,0.390095,0.712676,-0.260043,-0.52182,0
-7.837397,-4.156416,4.604895,1.841401,-0.347306,-0.296766,41.766526,14.258247,-14.913596,4.63583E+18,0.758221,0.326763,0.360763,-0.433793,-9.849713,-3.33396,0.63497,-0.42064,-1.12922,-2.230626,39.2549,20.760616,15.972499,4.63583E+18,0.641141,-0.061398,0.698298,-0.312327,-22.306206,-6.641688,-23.736948,8.976714,0.154141,7.893271,31.574517,-33.240668,-10.121266,4.63583E+18,0.38069,0.718558,-0.30169,-0.497727,0
-10.058792,-3.682076,4.159323,2.007059,-0.299631,-0.242608,41.815197,14.038655,-15.27125,4.63583E+18,0.755469,0.332034,0.356551,-0.438054,-9.987132,-4.273261,0.569086,-0.443003,-1.137341,-2.176263,38.9307,21.271366,15.707558,4.63583E+18,0.641318,-0.069979,0.695442,-0.316505,-24.458829,0.914996,-21.986328,6.322891,0.477674,7.354795,29.490364,-35.537244,-8.003378,4.63583E+18,0.377677,0.72017,-0.335094,-0.475843,0
-12.662473,-2.637419,4.004097,2.157682,-0.469877,-0.205425,41.602967,13.706665,-15.802174,4.63583E+18,0.752771,0.337496,0.35145,-0.442623,-9.382532,-5.145133,0.563687,-0.371818,-1.138458,-2.101053,38.537364,21.783338,15.211901,4.63583E+18,0.641554,-0.078146,0.692445,-0.320659,-28.023746,5.927496,-19.135133,3.409299,0.458706,6.779269,27.41757,-37.331346,-6.717932,4.63583E+18,0.381686,0.717064,-0.360603,-0.458368,0
-14.146249,-1.626699,4.167476,2.211998,-0.577588,-0.237423,41.205148,13.518593,-16.362425,4.63583E+18,0.750029,0.342853,0.345925,-0.447487,-8.654626,-5.772917,0.966564,-0.230692,-1.128218,-2.048774,38.263418,22.442475,14.830239,4.63583E+18,0.641814,-0.085758,0.689243,-0.32506,-29.054193,5.969643,-15.327957,1.175542,0.196691,6.234588,25.461099,-38.769382,-6.128966,4.63583E+18,0.390571,0.710153,-0.38035,-0.4455,0
-13.799674,-0.373341,4.121277,2.126121,-0.597086,-0.324003,41.020664,13.490411,-16.934877,4.63583E+18,0.747211,0.347748,0.340592,-0.452487,-8.303161,-4.963241,1.905861,-0.056635,-1.122606,-1.984607,38.087687,23.004738,14.620214,4.63583E+18,0.642151,-0.092705,0.685787,-0.329764,-26.759749,1.7779,-10.235464,0.098116,-0.163562,5.648668,23.485792,-39.983289,-5.963879,4.63583E+18,0.400702,0.701324,-0.396758,-0.436079,0
-12.757501,1.029319,4.20172,1.945016,-0.65868,-0.430282,41.070536,13.269617,-17.146399,4.63583E+18,0.744482,0.351784,0.335535,-0.457614,-8.65759,-4.121066,2.907328,0.065499,-1.116502,-1.919785,37.778602,23.453732,14.303767,4.63583E+18,0.642558,-0.099135,0.68215,-0.33461,-23.347563,-2.136772,-5.786347,-0.092377,-0.487819,5.033926,21.678311,-40.990748,-5.936093,4.63583E+18,0.409506,0.692272,-0.411408,-0.428727,0
-11.900524,2.379235,5.089609,1.660808,-0.746127,-0.511252,41.012059,12.871859,-17.405075,4.63583E+18,0.742087,0.354633,0.330844,-0.462692,-9.445803,-4.465377,3.457215,0.196587,-1.091732,-1.966035,37.375003,24.051091,13.84204,4.63583E+18,0.642831,-0.105303,0.678324,-0.339936,-19.838268,-4.712305,-3.367434,0.164027,-0.709638,4.287354,20.215822,-41.841894,-5.92838,4.63583E+18,0.415682,0.684296,-0.424609,-0.422676,0
-11.564303,4.479554,5.616238,1.316991,-0.720604,-0.617087,40.916855,12.972678,-17.783427,4.63583E+18,0.739921,0.356303,0.327034,-0.467562,-10.05808,-4.556642,3.234284,0.336233,-1.062067,-2.005134,37.210688,24.829511,13.477999,4.63583E+18,0.642965,-0.111145,0.67431,-0.345758,-16.531762,-6.798223,-2.940997,0.448728,-0.783143,3.355036,18.937497,-42.573095,-5.964999,4.63583E+18,0.419135,0.678152,-0.435708,-0.417844,0
-12.370136,6.949834,5.389847,0.989828,-0.411333,-0.905615,40.830179,13.285017,-18.174026,4.63583E+18,0.737228,0.357157,0.32523,-0.472398,-10.539362,-4.625671,2.67556,0.418782,-1.023656,-2.00808,37.060432,25.591732,13.172858,4.63583E+18,0.642969,-0.116712,0.670225,-0.351807,-14.21418,-7.742916,-3.738247,0.537758,-0.776249,2.344225,17.898996,-43.05233,-5.9683,4.63583E+18,0.420491,0.673895,-0.444073,-0.41455,0
-12.343044,7.926656,4.086058,0.783259,-0.438511,-0.994379,40.66792,13.526784,-18.564615,4.63583E+18,0.73468,0.357191,0.323871,-0.477251,-11.463906,-5.956706,1.944229,0.567053,-0.985995,-2.002246,36.718641,26.217022,12.82897,4.63583E+18,0.642894,-0.121806,0.66597,-0.358238,-12.129776,-8.450245,-4.769032,0.536602,-0.741268,1.288575,17.252183,-43.208664,-5.843924,4.63583E+18,0.42004,0.671592,-0.449407,-0.412994,0
-10.990498,7.689775,3.932016,0.499634,-0.42333,-0.831836,40.354321,13.627045,-18.955291,4.63583E+18,0.732837,0.356596,0.322872,-0.481189,-12.053988,-6.283523,1.043256,0.768004,-0.964798,-1.996676,36.405893,26.892342,12.387445,4.63583E+18,0.642811,-0.126303,0.661419,-0.365194,-9.587507,-9.200082,-4.898351,0.606941,-0.681945,0.213972,17.00156,-43.214207,-5.643088,4.63583E+18,0.417626,0.671496,-0.451764,-0.413027,0
-9.819463,6.139439,4.885642,0.222216,0.077569,-0.599664,40.024719,13.701522,-19.15935,4.63583E+18,0.731189,0.356465,0.323609,-0.483294,-12.215117,-6.216661,0.236871,0.944459,-0.956214,-2.035718,36.108281,27.6257,11.925632,4.63583E+18,0.642671,-0.130406,0.656544,-0.372716,-7.41608,-8.453709,-3.135417,0.656422,-0.670513,-0.891631,17.054896,-43.174236,-5.614326,4.63583E+18,0.413155,0.673541,-0.451128,-0.414884,0
-9.573196,4.345258,4.092954,0.037885,0.418707,-0.366401,39.925609,13.785732,-19.01322,4.63583E+18,0.729818,0.356772,0.325409,-0.48393,-12.55174,-6.305836,-0.48797,1.119449,-0.959158,-2.083783,35.703574,28.172929,11.488924,4.63583E+18,0.642495,-0.13417,0.651299,-0.3808,-4.250079,-8.139293,-0.890569,0.74368,-0.733168,-2.07173,17.553392,-43.00105,-5.67756,4.63583E+18,0.406229,0.677771,-0.447454,-0.418796,0
-10.085145,3.131176,2.22502,-0.003711,0.59095,-0.181559,40.060869,13.948,-18.742319,4.63583E+18,0.728644,0.357548,0.32754,-0.483688,-11.748436,-6.044519,-1.160204,1.284611,-0.970262,-2.122532,35.232145,28.864367,10.874892,4.63583E+18,0.642303,-0.137601,0.645669,-0.389389,0.194281,-11.823894,1.094799,1.467363,-0.790146,-3.175383,18.46785,-42.571505,-5.455488,4.63583E+18,0.395146,0.685045,-0.44198,-0.423352,0
-10.034626,2.982311,0.995004,-0.025611,1.060837,-0.029972,40.230523,14.118886,-18.384771,4.63583E+18,0.727157,0.359408,0.330913,-0.482251,-10.015001,-6.532213,-1.322275,1.454978,-0.979895,-2.137364,34.771007,29.763798,10.112726,4.63583E+18,0.642124,-0.14061,0.639655,-0.39843,1.426845,-14.976421,3.000039,2.847613,-0.812573,-4.201435,19.6331,-42.037754,-4.715179,4.63583E+18,0.37811,0.696169,-0.435935,-0.427016,0
-10.241701,2.934722,1.087385,-0.225527,1.658167,0.038804,40.478204,14.059375,-17.832084,4.63583E+18,0.725258,0.361946,0.336382,-0.479419,-8.575539,-6.819539,-0.859108,1.624979,-0.973606,-2.128899,34.263171,30.474535,9.494351,4.63583E+18,0.641952,-0.143111,0.633301,-0.407857,-2.918961,-11.66334,3.87978,3.736647,-0.896108,-5.203538,21.474411,-41.3574,-3.534322,4.63583E+18,0.356336,0.709938,-0.428429,-0.430652,0
-12.515749,2.644497,0.639065,-0.538714,1.381771,-0.038664,40.723612,14.061693,-17.258281,4.63583E+18,0.724032,0.362862,0.341745,-0.47678,-6.534005,-6.33334,0.14024,1.749463,-0.943316,-2.079182,33.796548,31.099846,8.921321,4.63583E+18,0.641766,-0.14508,0.626762,-0.417442,-8.440397,-7.00663,3.187036,3.631149,-1.076918,-6.092152,23.641592,-40.400805,-2.403612,4.63583E+18,0.332671,0.724224,-0.418009,-0.436001,0
-14.425585,1.559155,-3.264914,-0.91225,-0.191269,-0.052867,40.82511,14.216525,-16.871097,4.63583E+18,0.725563,0.359497,0.343117,-0.476016,-4.36547,-6.514355,2.010672,1.836526,-0.907202,-1.964673,33.376672,31.678416,8.232887,4.63583E+18,0.641645,-0.146437,0.620155,-0.426914,-10.944563,-6.163709,1.354834,3.173817,-1.279269,-6.927693,25.679005,-39.085753,-1.652388,4.63583E+18,0.308174,0.738226,-0.404142,-0.443533,0
-14.612262,0.420294,-5.399142,-1.028399,-1.318326,-0.131155,40.61437,14.530013,-17.009524,4.63583E+18,0.728699,0.353422,0.34142,-0.476994,-3.615463,-6.320924,3.93974,1.858759,-0.877252,-1.804992,32.891362,32.259549,7.541884,4.63583E+18,0.641656,-0.14725,0.613609,-0.435982,-11.9089,-7.658524,-0.041078,2.865254,-1.437244,-7.744186,27.918384,-37.426751,-1.091996,4.63583E+18,0.282486,0.752043,-0.386963,-0.45265,0
-13.954091,-0.144565,-3.451934,-1.034292,-0.582284,-0.232071,40.501861,14.84864,-17.303566,4.63583E+18,0.730568,0.348635,0.342105,-0.477167,-3.969376,-5.651073,5.373377,1.82466,-0.855025,-1.613094,32.341858,32.867075,6.814835,4.63583E+18,0.641852,-0.147602,0.607233,-0.444419,-13.52782,-9.129925,-0.011166,2.819999,-1.550067,-8.45423,30.375104,-35.610289,-0.642589,4.63583E+18,0.255029,0.765709,-0.367122,-0.462461,0
-14.011452,0.265402,-1.576088,-1.235532,1.076493,-0.392204,40.645531,15.177002,-17.093184,4.63583E+18,0.730018,0.346293,0.34846,-0.475111,-5.642164,-6.011227,6.321976,1.815227,-0.846999,-1.419583,31.867859,33.497221,6.06492,4.63583E+18,0.642304,-0.147456,0.600954,-0.452279,-15.923594,-9.846868,0.624708,2.944568,-1.680367,-9.041206,32.938503,-33.322178,-0.342954,4.63583E+18,0.22545,0.778963,-0.345238,-0.472439,0
-15.5401,0.481935,-2.367932,-1.498236,2.051519,-0.524281,40.739649,15.363998,-16.38584,4.63583E+18,0.728108,0.344862,0.358462,-0.471629,-8.895004,-5.813535,6.427144,1.807994,-0.850066,-1.29062,31.520488,34.015496,5.342631,4.63583E+18,0.642933,-0.146998,0.594705,-0.459734,-18.297464,-9.760454,0.678125,3.058969,-1.814086,-9.519462,35.423304,-30.513409,-0.045553,4.63583E+18,0.193985,0.7914,-0.321557,-0.482345,0
-17.696173,0.325012,-4.715617,-1.717259,1.810534,-0.53152,40.759282,15.622629,-15.464539,4.63583E+18,0.726773,0.342244,0.368133,-0.468133,-12.669251,-5.14777,6.080989,1.821201,-0.831369,-1.234039,31.334352,34.430549,4.561357,4.63583E+18,0.643566,-0.146316,0.588461,-0.467042,-19.975466,-8.649849,-0.118497,2.987846,-1.920217,-9.918156,37.711513,-27.564961,0.143146,4.63583E+18,0.161437,0.802596,-0.295927,-0.492143,0
-19.137922,0.283249,-5.867794,-1.890578,1.032233,-0.445456,41.056656,16.022806,-14.535549,4.63583E+18,0.726973,0.337683,0.375627,-0.465173,-16.266475,-4.486436,5.793929,1.842017,-0.792114,-1.233961,31.178693,34.845579,3.78012,4.63583E+18,0.644052,-0.14549,0.582229,-0.474382,-20.789098,-6.664762,-1.213792,2.628167,-2.010814,-10.282574,39.866586,-24.318099,-0.101962,4.63583E+18,0.128906,0.812202,-0.26783,-0.501975,0
-19.012256,0.313674,-4.795838,-2.053587,0.582868,-0.294728,41.166896,16.36108,-14.112317,4.63583E+18,0.728336,0.331965,0.381833,-0.462093,-18.799689,-2.468412,5.942978,1.809197,-0.763303,-1.257032,30.833096,35.226755,3.114915,4.63583E+18,0.644337,-0.144737,0.576075,-0.481684,-20.785972,-4.264389,-2.049558,1.966678,-2.070836,-10.637684,41.793223,-20.833438,-0.602465,4.63583E+18,0.097526,0.820019,-0.236644,-0.511915,0
-17.721337,0.514794,-3.182718,-2.18906,0.735388,-0.112778,40.967203,16.624844,-13.746134,4.63583E+18,0.729929,0.326392,0.388478,-0.457992,-20.990511,-1.072772,6.252477,1.808104,-0.816769,-1.205367,30.308472,35.488692,2.583172,4.63583E+18,0.644786,-0.143956,0.569761,-0.488773,-19.851941,-2.398658,-2.097607,1.129326,-2.045045,-10.974236,43.395717,-17.228121,-1.102936,4.63583E+18,0.068077,0.826093,-0.20205,-0.521644,0
-16.317502,0.679691,-2.949429,-2.232268,1.173773,0.090242,40.954596,16.881196,-12.864486,4.63583E+18,0.731183,0.321821,0.396223,-0.45256,-22.509936,0.027705,5.999183,1.849364,-0.957304,-1.060806,29.872536,35.686051,1.840021,4.63583E+18,0.645824,-0.142994,0.563023,-0.495448,-18.576789,-1.063672,-0.927348,0.33617,-1.954555,-11.243915,44.628744,-13.138007,-1.756449,4.63583E+18,0.040612,0.830486,-0.164461,-0.530656,0
-15.286622,0.739683,-3.545074,-2.22316,1.481867,0.319291,41.251901,17.214282,-11.924617,4.63583E+18,0.732259,0.3182,0.404537,-0.445977,-23.131002,1.437948,4.868438,1.79235,-1.070663,-0.876635,29.657375,35.908588,0.914271,4.63583E+18,0.64741,-0.141975,0.55616,-0.501388,-17.595638,0.021845,0.836072,-0.122066,-1.890053,-11.364401,45.505581,-8.824287,-2.424609,4.63583E+18,0.014416,0.83313,-0.125055,-0.538561,0
-14.319868,0.404773,-3.427006,-2.244772,1.436601,0.551051,41.581459,17.260025,-11.072471,4.63583E+18,0.733777,0.314782,0.412394,-0.438652,-23.831844,2.334641,2.750377,1.572599,-1.083373,-0.693372,29.423675,36.108469,0.163561,4.63583E+18,0.649219,-0.141135,0.549789,-0.506288,-16.28102,1.924182,1.748893,-0.143688,-1.813571,-11.268955,46.065002,-4.588595,-2.998319,4.63583E+18,-0.011484,0.83399,-0.085641,-0.544972,0
-13.443111,-0.653521,-2.002348,-2.259856,1.300509,0.781902,41.779513,17.052934,-10.372624,4.63583E+18,0.735874,0.311427,0.419507,-0.430716,-24.924849,2.513222,-0.54786,1.303316,-0.962223,-0.50076,29.161723,36.352605,-0.299051,4.63583E+18,0.650948,-0.14031,0.544399,-0.510106,-14.572077,5.502238,1.504049,0.149816,-1.647678,-10.969879,46.174023,-0.406076,-3.818172,4.63583E+18,-0.037641,0.83327,-0.047749,-0.549513,0
-12.587524,-1.678954,0.195707,-2.14904,1.380053,1.008738,41.951623,16.886816,-9.700111,4.63583E+18,0.737999,0.308913,0.426318,-0.422118,-26.067959,1.626974,-4.89338,1.230888,-0.748455,-0.319803,29.032017,36.533946,-0.707925,4.63583E+18,0.652501,-0.138809,0.539828,-0.513381,-13.734495,11.018814,-0.914656,0.548343,-1.4584,-10.569827,45.861226,3.599187,-4.783723,4.63583E+18,-0.064152,0.831123,-0.012088,-0.552244,0
-12.017986,-1.727463,0.843873,-2.096964,1.740876,1.17189,42.418555,16.80485,-8.688779,4.63583E+18,0.739596,0.307443,0.433876,-0.412587,-26.690481,-0.069628,-8.529095,1.390964,-0.543616,-0.195224,28.951399,36.556611,-1.366293,4.63583E+18,0.653924,-0.136149,0.535523,-0.51678,-14.575804,18.890763,-4.088005,0.745643,-1.30429,-10.144547,45.256597,7.493094,-5.280172,4.63583E+18,-0.090238,0.827671,0.021631,-0.553488,0
-11.754946,-1.743171,-0.961719,-2.089624,2.106771,1.271241,42.776538,16.523296,-7.638929,4.63583E+18,0.740569,0.306756,0.44235,-0.402224,-25.946356,-0.603983,-10.124221,1.500707,-0.358489,-0.113956,28.878161,36.546143,-2.019421,4.63583E+18,0.655138,-0.132602,0.531512,-0.520294,-16.603907,27.018056,-7.164631,0.712028,-1.170868,-9.64621,44.397826,11.041198,-5.466558,4.63583E+18,-0.114916,0.823145,0.053622,-0.553491,0
-11.566899,-1.822386,-2.783182,-2.006815,2.203236,1.398677,42.975777,15.922228,-6.39202,4.63583E+18,0.741335,0.306667,0.450739,-0.391423,-24.641821,0.819204,-10.036393,1.26547,-0.056972,-0.025738,28.867686,36.597794,-2.423082,4.63583E+18,0.655717,-0.128844,0.528865,-0.523198,-19.53856,35.371278,-10.820031,0.434039,-1.07111,-8.941603,43.300425,14.087748,-5.939024,4.63583E+18,-0.136862,0.817877,0.08371,-0.552575,0
-10.90152,-1.82015,-2.001854,-1.925507,2.038325,1.627881,43.158885,15.429949,-5.297854,4.63583E+18,0.742541,0.306938,0.45811,-0.380206,-23.732904,2.893721,-10.120951,0.721844,0.316191,0.056915,28.890368,36.530196,-2.711232,4.63583E+18,0.655349,-0.125575,0.528454,-0.524867,-22.670457,44.70797,-14.744824,-0.05032,-1.028539,-7.919199,42.04542,17.036101,-6.622594,4.63583E+18,-0.154648,0.812308,0.111302,-0.551228,0
-9.994851,-1.851789,-0.390347,-2.068876,1.786678,1.811648,43.407788,15.019581,-4.322145,4.63583E+18,0.744565,0.306664,0.464611,-0.368397,-22.767625,4.001849,-9.935071,0.052139,0.445983,-0.054312,28.812295,36.359293,-2.765064,4.63583E+18,0.654097,-0.124097,0.529798,-0.525424,-24.559395,52.255446,-17.706959,-0.452283,-1.062945,-6.576823,40.857895,19.718695,-7.046845,4.63583E+18,-0.16783,0.806776,0.135193,-0.550154,0
-8.848086,-1.932242,-0.899226,-2.073626,1.270278,1.987007,43.817524,14.33187,-3.51139,4.63583E+18,0.74773,0.305871,0.469211,-0.356629,-24.911293,3.761175,-7.546995,-0.872897,0.17467,-0.46621,28.722024,36.323571,-2.327295,4.63583E+18,0.652059,-0.126642,0.53221,-0.524913,-23.800597,57.405798,-19.505126,-0.6509,-0.990514,-5.040715,39.819075,21.777785,-7.088136,4.63583E+18,-0.17676,0.801913,0.154243,-0.549454,0
-6.667704,-2.357479,-0.242233,-1.623371,0.770443,2.183297,44.168096,13.677336,-3.05762,4.63583E+18,0.751473,0.306078,0.471262,-0.345711,-33.738915,-4.552972,-7.219378,-1.692269,-0.646447,-1.278666,28.527852,36.619936,-1.894987,4.63583E+18,0.649599,-0.135002,0.53373,-0.524335,-21.403845,64.462005,-22.72754,-1.131497,-0.846832,-3.525593,38.916772,23.215312,-7.143401,4.63583E+18,-0.180645,0.798421,0.169172,-0.548883,0
-5.096092,-2.317173,5.858746,-1.302817,0.906949,2.279355,44.422222,12.876886,-2.642564,4.63583E+18,0.754575,0.307636,0.473093,-0.334901,-42.084886,-19.331865,-12.391496,-1.311714,-1.49877,-2.486473,28.026765,37.14203,-1.968805,4.63583E+18,0.646533,-0.146863,0.531371,-0.527324,-18.52918,70.649903,-22.078704,-2.082326,-0.927338,-2.154133,38.139897,24.241994,-7.226783,4.63583E+18,-0.178136,0.79626,0.181738,-0.548825,0
-3.40968,-1.868822,12.15439,-1.139829,1.353035,2.268794,44.688262,11.927565,-1.78918,4.63583E+18,0.75647,0.310268,0.476048,-0.323828,-39.526608,-18.169504,-17.419869,-0.797385,-2.261041,-3.434532,27.050667,37.841117,-2.247549,4.63583E+18,0.643244,-0.161088,0.525132,-0.533409,-18.261489,69.928961,-14.895324,-2.426105,-1.080598,-0.639066,37.673369,24.785266,-7.173599,4.63583E+18,-0.17088,0.795035,0.190151,-0.550056,0
-1.722583,-1.972333,11.324817,-0.71913,1.617171,2.165921,44.956821,11.105662,-0.984477,4.63583E+18,0.757053,0.314339,0.479335,-0.313528,-33.546207,-1.569493,-17.914027,-1.716365,-3.224816,-4.23073,25.652665,38.736993,-2.361151,4.63583E+18,0.63942,-0.181601,0.51761,-0.538743,-17.183817,62.936643,-6.482916,-2.180584,-1.413044,0.899031,37.788181,24.551892,-7.129124,4.63583E+18,-0.160626,0.793993,0.193119,-0.553607,0
-1.353097,-4.389599,5.930623,0.095082,1.828713,1.992413,45.137693,10.442514,-0.278744,4.63583E+18,0.755821,0.32087,0.48239,-0.305085,-34.316025,5.198433,-17.830937,-3.055618,-3.387158,-5.247392,24.088333,39.698294,-2.157947,4.63583E+18,0.63223,-0.208126,0.511551,-0.543401,-15.128896,48.052339,-11.130295,-1.799179,-1.004667,2.026458,38.156685,24.148681,-7.082598,4.63583E+18,-0.149341,0.794438,0.191178,-0.556792,0
-1.790779,-8.925302,5.016897,0.943855,1.914264,1.740975,45.242838,9.938033,0.318386,4.63583E+18,0.752865,0.329639,0.484911,-0.298989,-39.949266,1.142928,-23.612751,-2.60301,-2.641284,-5.427705,22.327002,40.748031,-1.684762,4.63583E+18,0.62295,-0.232,0.505888,-0.549715,-8.156774,-19.321024,-51.753408,-4.027376,-1.372457,0.555947,38.306831,24.254624,-6.791106,4.63583E+18,-0.133764,0.794065,0.19946,-0.558376,0
-4.8238,-7.472403,12.738639,0.917625,0.146869,1.330859,45.263803,9.383945,0.663329,4.63583E+18,0.75294,0.335267,0.48244,-0.296528,-37.300399,1.774214,-28.672818,0.165749,-1.763472,-4.579917,20.516705,41.638649,-1.531168,4.63583E+18,0.616083,-0.244765,0.496702,-0.560195,-63.451577,-104.597796,-35.11891,-4.173712,-1.583265,1.524929,38.492888,24.181153,-6.267482,4.63583E+18,-0.115228,0.793815,0.204925,-0.56088,0
-6.62112,0.967155,36.854007,-2.252633,-1.13612,0.754021,45.330798,9.019638,0.367088,4.63583E+18,0.759246,0.328179,0.480629,-0.291273,-32.785,-3.550673,-28.220522,3.818475,-1.603811,-3.73881,19.003681,42.194039,-2.515229,4.63583E+18,0.614277,-0.245931,0.480033,-0.575978,-99.203388,-61.907535,19.978035,0.724712,1.157262,4.796246,39.153608,23.005268,-5.899733,4.63583E+18,-0.107542,0.800089,0.186725,-0.559845,0
-1.046805,-2.17097,28.898548,-2.042336,0.092248,-0.098557,45.557399,8.842232,0.077631,4.63583E+18,0.761697,0.321508,0.483567,-0.287425,-33.823283,-0.294195,-26.694689,6.405481,-1.853307,-2.887323,17.76508,42.575312,-4.66953,4.63583E+18,0.617203,-0.2392,0.457051,-0.594095,-37.671887,33.63456,23.152158,0.532435,1.344719,3.962609,39.988391,21.435529,-5.651244,4.63583E+18,-0.101266,0.805941,0.171598,-0.557457,0
-8.869709,10.980109,3.695217,-1.478695,0.887055,-2.179015,45.659128,9.198418,0.629438,4.63583E+18,0.759219,0.313354,0.49109,-0.290219,-35.879781,13.627654,-22.205913,7.074643,-1.903977,-1.926369,16.706974,42.707253,-7.315535,4.63583E+18,0.622661,-0.228819,0.432811,-0.610418,-2.512431,41.900079,8.438506,-2.182376,-0.335846,3.297506,40.658826,20.296456,-5.265267,4.63583E+18,-0.086189,0.808328,0.165669,-0.55833,0
-18.285375,23.218006,13.013493,-1.918234,3.019233,-2.779414,45.306386,10.128349,1.594122,4.63583E+18,0.752038,0.305081,0.506551,-0.291155,-37.972596,26.235708,-15.13332,5.942832,-1.825587,-1.034722,15.959859,42.343574,-9.78183,4.63583E+18,0.628626,-0.21938,0.412141,-0.621966,2.640917,40.118031,-28.343424,-1.00861,0.348625,4.440495,41.389773,19.076524,-4.841297,4.63583E+18,-0.072852,0.81242,0.152861,-0.557943,0
-16.808431,6.497292,15.159277,-0.946603,2.85402,-1.372891,44.991212,11.127996,2.770278,4.63583E+18,0.745469,0.302538,0.518389,-0.289862,-36.453323,31.264089,-7.460434,3.324254,-1.410833,-0.330488,15.628684,41.814521,-11.512902,4.63583E+18,0.633014,-0.214419,0.399796,-0.62728,-10.363284,25.616957,-27.953786,-0.566192,-0.002717,4.725991,42.178901,17.525369,-4.815996,4.63583E+18,-0.060099,0.815438,0.138108,-0.558905,0
-18.314444,-10.213925,15.740009,0.329032,1.864959,0.295981,44.894139,11.46086,3.736668,4.63583E+18,0.741348,0.306329,0.523445,-0.287352,-26.735736,28.784707,-0.884355,0.055916,-0.665901,0.568488,15.602669,41.716232,-12.168853,4.63583E+18,0.63551,-0.214608,0.398714,-0.625378,-22.440043,4.715708,6.644328,-0.213096,-0.835414,3.96356,42.784038,16.028074,-5.196367,4.63583E+18,-0.049822,0.815716,0.125285,-0.562521,0
-20.621966,-11.890011,20.967079,0.383797,3.084697,1.204016,44.908532,11.136611,4.709514,4.63583E+18,0.735489,0.313693,0.530977,-0.280563,-16.202881,23.91767,4.007977,-3.144977,0.038864,1.941263,16.079429,41.871395,-11.459166,4.63583E+18,0.637468,-0.21912,0.409016,-0.615083,-8.76443,-2.621262,5.279922,1.127074,-0.477173,3.529643,43.199259,14.636506,-5.500848,4.63583E+18,-0.04529,0.816113,0.110689,-0.565382,0
-14.291105,-10.816691,16.399767,-0.123407,4.140185,0.619278,44.779611,10.746058,5.773514,4.63583E+18,0.727091,0.319367,0.542969,-0.272997,-10.627049,18.256105,5.858906,-6.080011,0.714976,3.415845,17.202745,41.876213,-9.546284,4.63583E+18,0.639033,-0.227049,0.429755,-0.596151,-6.906567,-5.479426,-8.549226,1.372654,-0.353433,3.765978,43.63296,13.410878,-5.678392,4.63583E+18,-0.041082,0.816649,0.094659,-0.567834,0
-3.406246,-11.602806,5.545384,0.215306,1.111667,0.158297,44.775502,10.793519,6.738323,4.63583E+18,0.724451,0.321529,0.545925,-0.271581,-6.766234,12.213745,5.60516,-8.691137,1.630517,4.935766,18.859067,41.75351,-6.76433,4.63583E+18,0.639438,-0.236616,0.460277,-0.568575,-11.474093,4.464254,-7.504894,0.768141,-0.400119,3.548692,44.086953,12.238172,-5.961089,4.63583E+18,-0.035303,0.816883,0.080782,-0.570026,0
-1.490468,-9.691714,3.526939,-0.11982,-1.547854,0.372077,44.853419,10.650223,6.923763,4.63583E+18,0.728526,0.320146,0.540929,-0.27231,-6.712723,5.312265,4.360779,-10.772474,2.409948,6.350556,21.059811,41.134868,-2.998573,4.63583E+18,0.638201,-0.246603,0.498124,-0.53269,-9.761847,5.547072,-3.111388,0.212748,-0.399169,3.088108,44.422314,10.866942,-6.221065,4.63583E+18,-0.02872,0.816883,0.069776,-0.571847,0
-3.046446,-5.770375,5.280937,-0.252537,-0.232498,0.228193,45.004566,10.336981,6.517681,4.63583E+18,0.729633,0.319521,0.540255,-0.271416,-12.072333,-3.863948,3.709246,-11.736621,2.782586,7.643492,23.459019,39.904315,1.111195,4.63583E+18,0.636066,-0.254832,0.538826,-0.490048,-7.795603,2.599107,-2.759301,-0.001312,-0.356311,2.830085,44.604568,9.642133,-6.345494,4.63583E+18,-0.022032,0.816808,0.060143,-0.573342,0
-3.234962,-1.360868,2.460049,-0.015557,1.506708,-0.274627,44.878546,10.160692,6.656082,4.63583E+18,0.725925,0.320445,0.545259,-0.270262,-18.988783,-13.53045,5.857375,-11.469262,2.762443,8.775048,26.059785,37.991138,5.156,4.63583E+18,0.634277,-0.258897,0.578146,-0.443184,-7.804541,4.286137,-0.804616,-0.352322,-0.223738,2.61902,44.66132,8.96754,-6.377833,4.63583E+18,-0.014684,0.816924,0.052046,-0.574205,0
-6.082428,4.912054,1.213834,-0.126133,2.116764,-0.99798,44.719833,10.516713,7.422172,4.63583E+18,0.720113,0.320056,0.553161,-0.270212,-25.746942,-24.339065,8.147742,-10.539555,2.298045,9.714458,28.751885,35.201195,9.017181,4.63583E+18,0.634022,-0.258121,0.613369,-0.393914,-6.594922,3.10804,-0.349497,-0.879215,-0.067221,2.481969,44.454484,8.576925,-6.312525,4.63583E+18,-0.005902,0.817319,0.045661,-0.574344,0
-11.839747,6.870803,0.442965,-0.225415,2.262968,-1.091802,44.572119,11.084971,8.51489,4.63583E+18,0.713916,0.319286,0.561681,-0.269991,-30.270827,-39.990399,6.777552,-8.900057,1.597066,10.668791,31.338733,31.871394,12.177926,4.63583E+18,0.636677,-0.250795,0.642887,-0.344153,-6.864274,-1.474386,-2.219825,-1.060999,0.004313,2.431973,44.030658,8.133186,-6.249123,4.63583E+18,-0.000415,0.818027,0.034489,-0.574144,0
-16.393983,5.913539,-4.625929,0.061964,2.217569,-0.4309,44.283331,11.232941,9.232757,4.63583E+18,0.708115,0.320834,0.568807,-0.26851,-30.999906,-57.886649,3.859551,-5.896832,1.261562,11.523838,34.079577,28.116233,14.358027,4.63583E+18,0.6426,-0.232883,0.666035,-0.298711,-11.78409,-1.782918,-3.770766,-1.066073,0.013917,2.330369,43.831214,7.532095,-6.231346,4.63583E+18,0.008529,0.818372,0.028914,-0.573898,0
-20.973443,6.760641,-7.13807,0.229283,2.607641,0.289091,43.824884,11.1007,10.079317,4.63583E+18,0.701896,0.324986,0.575875,-0.264753,-30.063615,-66.872742,5.168387,-2.521668,1.409978,11.872226,36.627131,24.257599,15.417073,4.63583E+18,0.650056,-0.204129,0.683839,-0.261003,-13.922588,-0.075867,-3.45896,-1.196003,0.122141,2.198184,44.161959,6.623953,-6.066507,4.63583E+18,0.017585,0.818864,0.0241,-0.573212,0
-24.283482,8.273887,-7.54715,-0.270688,2.659026,0.58921,43.644395,11.106215,11.110144,4.63583E+18,0.696474,0.328414,0.583166,-0.258816,-28.986918,-59.911274,11.589216,-0.55556,1.500315,11.587631,38.486804,20.474341,15.964518,4.63583E+18,0.657008,-0.170246,0.697766,-0.229084,-11.939829,-1.369189,-2.454426,-1.108623,0.224806,2.110861,44.408404,5.656946,-5.713803,4.63583E+18,0.026121,0.819514,0.019378,-0.572135,0
-26.996658,7.690893,-9.998912,-0.489069,0.907694,0.866222,43.716838,10.966421,11.744079,4.63583E+18,0.695847,0.329968,0.585185,-0.253921,-28.997188,-50.785654,18.989434,-0.404427,1.367949,10.969693,39.897983,16.715133,16.447977,4.63583E+18,0.662383,-0.137474,0.709137,-0.19868,-12.397369,0.327359,-4.433722,-1.142502,0.203778,1.978775,44.09416,5.042422,-5.516683,4.63583E+18,0.034456,0.820023,0.015183,-0.571091,0
-30.095468,6.860868,-11.471773,-0.847388,-1.31203,1.166164,43.869221,10.358944,11.574688,4.63583E+18,0.70141,0.328852,0.580706,-0.250322,-28.501053,-51.851569,23.489577,-0.924376,1.243692,10.155928,41.205542,13.259128,16.919241,4.63583E+18,0.665845,-0.108362,0.718687,-0.168514,-12.961312,2.575224,-7.802721,-1.440775,0.153186,1.704942,44.160825,4.400749,-5.558617,4.63583E+18,0.043159,0.820279,0.012624,-0.570194,0
-29.578102,6.523379,-8.314865,-0.936361,-2.175645,1.349663,44.027897,9.699824,10.979076,4.63583E+18,0.709307,0.326987,0.573489,-0.247131,-25.981897,-55.630919,25.014267,-1.420354,1.148863,9.077292,42.105335,9.946182,17.421614,4.63582E+18,0.667507,-0.083737,0.726606,-0.139523,-10.721745,2.030126,-7.905834,-1.53437,0.165959,1.378623,45.212276,3.226701,-5.616468,4.63583E+18,0.051503,0.820465,0.011547,-0.569255,0
-28.627199,5.673492,-5.68022,-0.963175,-1.890288,1.372975,44.25226,9.182912,10.333354,4.63583E+18,0.716497,0.325355,0.567044,-0.243387,-23.380945,-57.797296,25.29517,-1.860636,0.869988,7.782151,42.538428,6.794495,17.934985,4.63582E+18,0.66824,-0.064305,0.732571,-0.112514,-9.602961,3.42935,-6.140913,-1.518859,0.153839,1.03858,46.061172,2.231857,-5.52147,4.63583E+18,0.058983,0.820557,0.011592,-0.568395,0
-29.480884,5.031553,-3.636114,-0.991462,-1.649772,1.312348,44.571755,8.529183,9.686361,4.63583E+18,0.723024,0.323707,0.561369,-0.239406,-21.369705,-60.692837,24.305191,-2.105413,0.315925,6.440695,42.834353,3.992691,18.225298,4.63582E+18,0.669333,-0.049847,0.736019,-0.088228,-11.240908,6.042726,-5.352973,-1.613747,0.013442,0.682209,45.965165,1.946551,-5.372595,4.63583E+18,0.065948,0.820233,0.013045,-0.568066,0
-30.061364,4.760466,-2.040314,-1.119898,-2.104658,1.238241,44.890412,7.945333,9.039369,4.63583E+18,0.730634,0.32101,0.554492,-0.235935,-17.503711,-63.804187,21.534191,-2.009,-0.307819,5.093974,43.03999,1.596363,18.166069,4.63582E+18,0.67143,-0.039453,0.736905,-0.067796,-12.711309,5.169631,-5.722265,-1.719294,-0.160115,0.304762,45.786515,2.02721,-5.375494,4.63583E+18,0.072386,0.819407,0.015989,-0.568399,0
-30.936511,4.813085,1.042273,-1.238757,-1.32089,1.117503,45.131193,7.437253,8.392377,4.63583E+18,0.736399,0.318412,0.550222,-0.231484,-11.965639,-64.352957,17.78679,-1.792765,-0.840196,3.700531,43.181661,-0.191303,17.91713,4.63582E+18,0.674532,-0.032871,0.735691,-0.051806,-13.331164,3.791411,-6.777042,-1.741014,-0.322784,-0.07564,45.85418,2.099673,-5.579267,4.63583E+18,0.078005,0.818122,0.020234,-0.569369,0
-30.80141,4.581172,2.364334,-0.860125,0.416167,1.143724,45.089524,7.09001,8.434882,4.63583E+18,0.737662,0.318694,0.550851,-0.225502,-6.99396,-62.6949,14.043927,-1.441364,-1.331741,2.358003,43.368846,-1.442356,17.545348,4.63582E+18,0.678748,-0.029516,0.732654,-0.040589,-14.760966,5.588737,-6.801585,-1.933129,-0.5674,-0.514623,45.841207,2.139464,-5.812542,4.63583E+18,0.083252,0.816108,0.02635,-0.571264,0
-29.910458,4.947268,0.377269,-0.430118,1.271998,1.21815,45.016291,6.694798,9.060266,4.63583E+18,0.736425,0.32126,0.553581,-0.219131,-3.19357,-58.910395,10.198034,-0.804971,-1.868347,1.133058,43.574881,-2.153307,16.91429,4.63582E+18,0.684392,-0.028191,0.727742,-0.03471,-17.443944,5.172149,-5.377492,-2.039049,-0.927807,-0.927961,45.795546,2.471349,-5.902808,4.63583E+18,0.08791,0.813085,0.033998,-0.574464,0
-28.880324,5.769781,1.031608,-0.322406,0.770733,1.696372,45.030583,6.007398,9.678288,4.63583E+18,0.736592,0.324784,0.554002,-0.212201,1.020685,-52.573532,6.538027,-0.116346,-2.384107,0.030463,43.675119,-2.433703,16.075797,4.63583E+18,0.691459,-0.028323,0.721059,-0.034002,-22.309926,3.245521,-2.273345,-1.901371,-1.337368,-1.290819,45.690504,3.100219,-6.01448,4.63583E+18,0.091281,0.808992,0.042392,-0.57914,0
-27.032889,6.494257,3.70693,-0.394578,-0.071687,2.103064,45.109711,5.265266,9.686792,4.63583E+18,0.739109,0.32826,0.551313,-0.204981,6.372946,-42.947724,3.867563,0.402226,-2.847108,-0.926266,43.952823,-2.309876,14.924029,4.63583E+18,0.699756,-0.029901,0.712767,-0.037554,-27.990617,0.863214,-1.46686,-1.86928,-1.765592,-1.780523,45.500773,3.756221,-6.468371,4.63583E+18,0.093426,0.803675,0.052192,-0.585366,0
-24.72035,5.856449,5.623226,-0.375041,0.759629,2.330445,45.195146,4.531715,9.538244,4.63583E+18,0.739816,0.333001,0.550804,-0.195952,11.422908,-30.337678,1.916297,0.7049,-3.227964,-1.738952,44.454456,-1.685594,13.594159,4.63583E+18,0.708957,-0.033064,0.703081,-0.044329,-32.686012,-3.977413,-4.540885,-2.027013,-2.145544,-2.428986,45.292194,4.677164,-7.199451,4.63583E+18,0.094581,0.797063,0.06439,-0.592958,0
-22.3425,3.73922,-0.042296,-0.240569,1.020388,2.584678,45.214954,3.503903,9.915622,4.63583E+18,0.739857,0.338916,0.550571,-0.186063,14.261282,-17.526046,-0.110359,0.896151,-3.44802,-2.41887,44.715332,-0.666549,12.463319,4.63583E+18,0.718504,-0.037684,0.692426,-0.053643,-36.952748,-11.138821,-8.853821,-2.519032,-2.462026,-3.256224,45.026069,5.935183,-8.080117,4.63583E+18,0.095383,0.788995,0.080407,-0.6016,0
-19.39284,1.807586,-0.019978,-0.140172,1.376196,2.168352,45.161515,2.594926,10.508318,4.63583E+18,0.738525,0.344422,0.551876,-0.177165,15.015775,-6.476871,-2.570249,1.088432,-3.460245,-2.884122,44.872489,0.49799,11.343191,4.63583E+18,0.727764,-0.043062,0.681391,-0.064896,-40.535701,-21.635986,-12.559809,-3.368731,-2.700521,-4.505637,44.588322,7.597161,-8.891985,4.63583E+18,0.095878,0.779154,0.102524,-0.610914,0
-19.550551,1.655133,3.845953,-0.343763,2.616542,1.17713,44.947343,1.999321,11.28265,4.63583E+18,0.733805,0.347896,0.558499,-0.169047,16.084549,3.424164,-5.872665,1.192053,-3.272578,-3.057039,45.206481,1.602545,10.137731,4.63583E+18,0.736193,-0.048554,0.670624,-0.076984,-43.30671,-36.990335,-14.209161,-4.484167,-2.799926,-6.061664,43.999215,9.836438,-9.423135,4.63583E+18,0.095992,0.767254,0.1324,-0.620142,0
-17.679637,3.071476,2.89541,-1.166863,2.219758,0.528255,44.660684,1.656535,12.240298,4.63583E+18,0.73065,0.347021,0.565357,-0.16155,18.540187,13.12457,-10.0048,1.127313,-2.925586,-2.97212,45.52724,2.637136,8.952494,4.63583E+18,0.743411,-0.053884,0.660737,-0.08868,-42.223598,-45.265764,-10.223795,-5.04132,-3.017555,-7.445843,43.191093,12.532057,-9.878978,4.63583E+18,0.094306,0.752783,0.167874,-0.629478,0
-11.69178,4.022564,1.301461,-1.91404,0.059575,0.074236,44.630268,1.415745,12.866752,4.63583E+18,0.733292,0.34132,0.566747,-0.156783,20.988532,21.850188,-13.347092,0.932977,-2.506008,-2.65127,45.658288,3.723567,7.873466,4.63583E+18,0.749337,-0.058763,0.652116,-0.098927,-40.055987,-23.649352,-10.125386,-6.308249,-2.698465,-7.630496,41.968385,15.566118,-10.220383,4.63583E+18,0.095729,0.737253,0.207093,-0.63593,0
-6.221746,5.306077,1.955597,-2.222517,-1.37522,-0.40565,44.772454,1.23852,12.676079,4.63583E+18,0.739379,0.332574,0.564585,-0.154778,22.77479,27.541697,-14.342035,0.65228,-2.101804,-2.065039,45.633872,4.776423,6.830219,4.63583E+18,0.754185,-0.062743,0.644894,-0.106674,-32.795992,30.297304,-26.977471,-11.426941,-1.621419,-6.397113,40.607502,18.521212,-9.500264,4.63583E+18,0.114979,0.721824,0.256002,-0.632624,7
-0.774678,9.218322,4.632355,-2.270576,-0.836876,-0.952849,44.931164,1.14417,12.132755,4.63583E+18,0.743825,0.322701,0.564803,-0.153579,24.214764,29.324167,-13.774318,0.278747,-1.721729,-1.259421,45.681512,5.551589,6.007412,4.63583E+18,0.758184,-0.065552,0.639173,-0.110985,-7.549527,75.127509,-43.062405,-16.620009,-1.116811,-4.789302,39.565357,21.086732,-7.177331,4.63583E+18,0.153056,0.704004,0.312929,-0.618893,7
6.465117,13.594009,8.563459,-3.217717,0.860141,-1.410553,44.947659,1.277492,11.985612,4.63583E+18,0.745127,0.309847,0.571404,-0.149257,25.816667,28.706803,-13.155775,-0.263959,-1.35229,-0.329211,45.811383,5.810724,5.541559,4.63583E+18,0.761438,-0.067423,0.635092,-0.111014,10.755387,41.548953,-42.775118,-14.89621,-0.799197,-3.039716,39.040026,22.936044,-4.314631,4.63583E+18,0.189481,0.687146,0.359055,-0.602501,7
12.761738,14.499103,9.542392,-5.047808,1.315788,-1.562214,44.80549,1.381474,12.653503,4.63583E+18,0.747335,0.291121,0.58054,-0.1404,26.905117,27.574658,-12.287409,-1.082713,-1.017348,0.667388,45.839206,5.580251,5.260822,4.63583E+18,0.764011,-0.069097,0.632707,-0.10581,7.621256,-32.953755,-27.041074,-8.102178,-0.089564,-0.855383,38.850957,23.824227,-2.242621,4.63583E+18,0.210412,0.678926,0.38153,-0.590949,7
12.200643,10.887282,5.133935,-6.053604,0.354525,-1.334243,44.723339,1.391644,13.15887,4.63583E+18,0.752776,0.269082,0.58665,-0.129478,25.018242,26.059287,-10.888803,-2.079203,-0.722547,1.640235,45.81178,4.931895,5.02327,4.63583E+18,0.765887,-0.071241,0.631921,-0.094961,-3.666433,-42.35219,-5.919088,-2.931222,0.155476,1.961666,38.940849,23.73831,-1.192661,4.63583E+18,0.223124,0.679863,0.383262,-0.584048,7
6.800076,6.633692,1.300398,-5.553842,0.85941,-1.076662,44.650096,1.249459,13.394345,4.63583E+18,0.756094,0.249349,0.593421,-0.118316,18.53965,23.0915,-9.710142,-3.142472,-0.350823,2.457674,45.932237,4.124762,4.852354,4.63583E+18,0.766646,-0.074462,0.632851,-0.0788,-2.694609,-3.153088,0.427055,-1.118369,0.398049,3.75001,39.388219,22.904217,-0.632842,4.63583E+18,0.234609,0.68577,0.375648,-0.577553,7
0.689015,4.909797,-0.8996,-4.603741,2.459408,-1.041378,44.369106,0.948646,14.115755,4.63583E+18,0.754084,0.233355,0.60441,-0.107661,9.940526,18.106049,-9.305621,-4.091864,0.183127,3.11985,46.14797,2.957373,4.835107,4.63583E+18,0.765649,-0.078767,0.635763,-0.058158,0.723797,3.012889,-7.118362,-0.425234,1.00237,3.952103,40.079104,21.657768,-0.163377,4.63583E+18,0.243588,0.693934,0.366272,-0.570057,7
-3.286152,4.028285,-3.100928,-4.23137,2.470781,-0.959052,43.987389,0.784343,15.1485,4.63583E+18,0.75137,0.218638,0.614907,-0.097619,3.28211,12.256798,-9.956921,-4.664468,0.754182,3.689753,46.147835,1.378007,5.170016,4.63583E+18,0.762691,-0.083207,0.640468,-0.034336,-3.83421,-11.164936,-6.862138,-0.061513,1.383669,3.707725,40.881232,20.219858,0.207763,4.63583E+18,0.250282,0.702805,0.35702,-0.562103,7
-4.724253,1.985505,-4.152797,-4.576008,0.788356,-0.896955,43.673261,0.550353,15.871652,4.63583E+18,0.752995,0.20223,0.619967,-0.087986,-1.080692,6.78179,-11.225513,-4.802218,1.251331,4.194243,45.945115,-0.232914,5.682713,4.63583E+18,0.75793,-0.086608,0.646503,-0.008693,-4.539792,-13.194433,0.541364,-0.273014,1.488402,3.191647,41.671561,19.007706,0.547076,4.63583E+18,0.256167,0.710763,0.349795,-0.55393,7
-4.518303,-3.086125,-2.662671,-4.575728,-0.481408,-0.742536,43.641468,0.240621,15.866327,4.63583E+18,0.757668,0.18568,0.620675,-0.078902,-4.859039,2.250885,-12.351231,-4.767875,1.683273,4.70076,45.816992,-2.053757,6.161837,4.63583E+18,0.751461,-0.088453,0.653565,0.018312,-2.49209,-10.532777,3.080373,-0.807188,1.484742,2.389475,42.249637,18.177823,1.077801,4.63583E+18,0.26174,0.716843,0.346109,-0.545744,7
-2.545199,-7.323078,-3.101212,-4.357299,-1.401582,-0.427792,43.860103,-0.153222,15.452942,4.63583E+18,0.764371,0.170265,0.61793,-0.070066,-8.970859,-1.348325,-13.385194,-4.711293,2.024924,5.195803,45.763788,-4.232146,6.589045,4.63583E+18,0.743402,-0.088723,0.661296,0.046579,-0.463449,-9.490073,2.140118,-1.395173,1.423612,1.5174,42.47162,17.554912,1.948754,4.63583E+18,0.267139,0.720795,0.346251,-0.537775,7
-0.526651,-6.37434,-5.633497,-4.261626,-1.858766,0.116736,43.951203,-0.720027,14.913829,4.63583E+18,0.772059,0.156363,0.613084,-0.060037,-13.515207,-4.292642,-14.372648,-4.385268,2.258821,5.504982,45.507812,-6.656933,7.093036,4.63583E+18,0.734078,-0.087096,0.669292,0.074784,1.286583,-10.125434,2.096658,-2.062009,1.276987,0.640586,42.474111,17.046352,2.799961,4.63583E+18,0.272759,0.722334,0.350318,-0.530201,7
0.732025,-3.93983,-5.844071,-3.599118,-1.477573,0.445978,44.100966,-1.229463,14.364495,4.63583E+18,0.778175,0.145481,0.608886,-0.05037,-18.06329,-6.981309,-15.077903,-3.679814,2.427882,5.522002,44.968926,-9.048197,7.787579,4.63583E+18,0.723879,-0.083239,0.677406,0.100955,2.331139,-11.760316,3.678829,-2.717418,1.03281,-0.282721,42.463968,16.787669,3.417412,4.63583E+18,0.278634,0.721151,0.358289,-0.523386,7
1.947662,-2.570353,-4.501504,-2.964155,-0.528047,0.710848,44.194075,-1.795555,13.990065,4.63583E+18,0.781385,0.1375,0.60734,-0.040867,-22.044767,-8.543427,-14.575916,-2.629145,2.486529,5.45255,44.303632,-11.073202,8.550055,4.63583E+18,0.713335,-0.076368,0.685551,0.123858,2.775205,-12.979131,5.13423,-3.263536,0.783092,-1.181018,42.357028,16.874324,4.144399,4.63583E+18,0.284513,0.71732,0.369794,-0.517453,7
2.19549,-1.304748,-4.291185,-2.764103,-0.14946,0.741916,44.203007,-2.369241,13.974922,4.63583E+18,0.783406,0.130295,0.60688,-0.031543,-23.910338,-7.524783,-12.725567,-1.346553,2.478832,5.438282,43.443446,-13.131435,9.250657,4.63583E+18,0.702737,-0.065672,0.693833,0.142984,2.535309,-11.293717,5.926041,-3.79937,0.608598,-1.984294,42.050236,17.265099,5.050788,4.63583E+18,0.290456,0.711048,0.384547,-0.512026,7
1.368033,-0.472477,-4.492443,-2.71105,-0.512431,0.641956,44.213935,-2.94292,14.086764,4.63583E+18,0.786193,0.122947,0.605196,-0.02287,-22.657102,-5.068848,-10.16542,-0.348545,2.621763,5.40837,42.600718,-15.255543,10.069038,4.63583E+18,0.691567,-0.052186,0.702655,0.159019,2.116289,-7.592952,6.885579,-4.345953,0.462828,-2.707892,41.580174,17.962102,5.997377,4.63583E+18,0.296597,0.70237,0.402282,-0.506829,7
0.580992,-0.172041,-2.002882,-2.700948,-0.504129,0.54796,44.280794,-3.374635,13.946533,4.63583E+18,0.788836,0.115381,0.603502,-0.014521,-20.635255,-2.629296,-7.703659,-0.230241,2.997662,5.302393,41.997803,-17.143189,11.096136,4.63583E+18,0.678953,-0.038882,0.712149,0.174227,1.184487,-3.877868,8.328745,-4.878153,0.257179,-3.339155,41.076171,18.810976,6.843607,4.63583E+18,0.303152,0.691173,0.422521,-0.501851,7
0.44586,0.10487,2.367353,-2.684021,-0.118123,0.512528,44.28846,-3.713147,13.688217,4.63583E+18,0.790393,0.107792,0.603011,-0.006142,-20.13876,-0.551015,-5.73698,-0.844902,3.496677,5.088037,41.133235,-19.020081,12.139429,4.63583E+18,0.664467,-0.028292,0.722084,0.190469,-0.275759,-1.129344,9.339351,-5.287324,-0.009815,-3.816604,40.560406,19.65883,7.653362,4.63583E+18,0.310159,0.677602,0.444369,-0.497186,7
0.821918,0.221699,4.516185,-3.184087,0.033384,0.562094,44.069916,-4.119197,13.430613,4.63583E+18,0.791672,0.098671,0.602915,0.003728,-21.222924,1.117751,-4.295325,-1.846,3.882094,4.862983,39.775293,-20.886333,13.077568,4.63583E+18,0.648416,-0.021442,0.731739,0.208937,-1.547722,0.481115,9.440315,-5.459234,-0.299732,-4.097666,39.891964,20.494524,8.666692,4.63583E+18,0.31737,0.662168,0.46665,-0.492998,7
1.10712,0.406773,0.341242,-3.433164,-0.594667,0.498458,44.197289,-4.818347,13.261677,4.63583E+18,0.794474,0.088561,0.600648,0.013758,-22.143783,2.664513,-3.546277,-3.083379,4.023103,4.633325,38.266516,-22.684995,13.884506,4.63583E+18,0.63153,-0.018746,0.740093,0.230395,-2.461059,1.053938,9.522897,-5.352633,-0.578311,-4.180641,39.109716,21.370888,9.708252,4.63583E+18,0.324407,0.645613,0.488198,-0.489496,7
2.118722,1.651088,-4.978801,-2.690565,-0.792112,0.107833,44.433755,-5.40874,13.004638,4.63583E+18,0.79738,0.079931,0.597808,0.020563,-22.469022,0.528964,-3.61539,-4.132643,4.034797,4.192502,36.89358,-24.467228,14.427148,4.63583E+18,0.614421,-0.020169,0.74679,0.253741,-2.867244,0.80096,10.217366,-4.977834,-0.803255,-4.108461,38.402281,22.293008,10.45529,4.63583E+18,0.330797,0.628761,0.50811,-0.486886,7
2.955053,2.297072,-8.262667,-3.151597,-0.030179,-0.19032,44.601396,-5.698357,12.812584,4.63583E+18,0.798443,0.06895,0.597464,0.027779,-22.744801,-6.635978,-3.915653,-4.278958,4.070726,3.552226,35.749471,-26.114894,14.655589,4.63583E+18,0.597351,-0.023987,0.75272,0.275697,-2.950648,0.066387,11.276891,-4.287843,-0.953354,-3.90935,37.767495,23.17446,10.976113,4.63583E+18,0.335886,0.612562,0.525557,-0.485529,7
3.476719,1.623927,-6.35272,-3.40837,1.076265,-0.43803,44.552498,-5.867322,12.71687,4.63583E+18,0.796694,0.056359,0.600723,0.035126,-21.148203,-10.245672,-3.495796,-3.807142,4.055019,3.083234,34.549905,-27.576505,14.876123,4.63583E+18,0.580471,-0.028077,0.75852,0.294811,-3.282892,-0.288888,12.084429,-3.322029,-1.050763,-3.621177,37.126137,23.891033,11.405866,4.63583E+18,0.339137,0.597833,0.53991,-0.48588,7
4.249038,0.795183,0.256354,-2.880234,2.387391,-0.664336,44.3263,-6.026003,13.144936,4.63583E+18,0.791383,0.044751,0.60832,0.040703,-17.970967,-7.18024,-2.1454,-3.63661,3.899533,2.724482,33.324768,-28.807632,15.266779,4.63583E+18,0.564167,-0.032685,0.763599,0.312353,-3.983248,1.104994,12.156508,-2.304529,-1.155569,-3.324051,36.446157,24.541011,11.743548,4.63583E+18,0.34057,0.584778,0.551115,-0.488179,7
3.230277,1.199621,3.021996,-3.0049,2.810176,-0.654432,43.962015,-6.097286,14.146614,4.63583E+18,0.784804,0.032674,0.617118,0.046701,-15.43943,-3.031895,-0.876071,-4.005708,3.674007,2.268665,32.3282,-29.94588,15.431204,4.63583E+18,0.548791,-0.039302,0.767129,0.329843,-4.384497,4.131028,11.272385,-1.473618,-1.292207,-3.043793,35.757961,25.350291,11.7786,4.63583E+18,0.340774,0.573114,0.559609,-0.49219,7
0.446122,0.700233,0.255247,-3.077792,1.606527,-0.558739,43.638209,-6.103702,14.946466,4.63583E+18,0.781107,0.020831,0.621792,0.053027,-13.359962,-2.629153,-0.14782,-4.505194,3.552137,1.774798,31.414632,-31.03702,15.175938,4.63583E+18,0.534076,-0.048455,0.769137,0.347626,-4.241537,7.345566,9.493098,-0.895021,-1.426879,-2.728552,35.225442,26.146795,11.53597,4.63583E+18,0.340491,0.562614,0.565861,-0.497325,7
-1.417128,-0.872923,-4.850217,-2.700397,-0.200257,-0.425595,43.397263,-6.32221,15.125642,4.63583E+18,0.781894,0.010959,0.620549,0.058646,-10.759592,-5.941976,1.259367,-4.772742,3.519213,1.447124,30.584193,-32.000937,14.838594,4.63583E+18,0.51956,-0.059184,0.770122,0.36533,-3.942981,10.151057,6.994236,-0.422035,-1.496387,-2.339095,34.85009,26.716935,11.302523,4.63583E+18,0.340019,0.553472,0.570035,-0.503106,7
-1.238712,-2.753817,-7.636162,-2.268333,-1.188494,-0.292723,43.580439,-6.64277,14.809491,4.63583E+18,0.785089,0.00308,0.616109,0.063531,-8.2497,-10.929317,4.547337,-4.288237,3.313196,1.316276,29.886927,-32.753002,14.588915,4.63583E+18,0.50573,-0.068942,0.770907,0.381035,-3.901289,12.522327,4.020195,-0.050504,-1.471282,-1.891495,34.554571,27.220493,11.059897,4.63583E+18,0.339531,0.545907,0.572367,-0.509019,7
0.431344,-4.986047,-5.418452,-1.796508,-0.619376,-0.14688,43.746857,-6.753917,14.257532,4.63583E+18,0.786707,-0.003031,0.613597,0.067685,-7.476104,-14.627275,8.842683,-2.959577,2.7515,0.951873,29.337659,-33.468704,14.367344,4.63583E+18,0.494461,-0.076157,0.772185,0.391712,-3.827538,14.929575,1.040767,0.067873,-1.407376,-1.424078,34.331294,27.81048,10.667759,4.63583E+18,0.339586,0.539714,0.573428,-0.514364,7
2.796215,-6.306126,-0.68153,-1.621219,0.72959,0.052121,43.687081,-6.697365,13.858604,4.63583E+18,0.784776,-0.008437,0.615523,0.072023,-6.710675,-15.828193,11.8797,-1.523972,1.982,0.265749,28.846079,-34.010208,14.19721,4.63583E+18,0.487146,-0.081362,0.773844,0.396529,-3.42778,16.918321,-1.009029,-0.149909,-1.388235,-0.971963,34.235155,28.266725,10.343757,4.63583E+18,0.341035,0.534302,0.573933,-0.518476,7
3.903817,-6.029164,0.616812,-1.851162,1.220282,0.333661,43.612552,-6.90811,14.168305,4.63583E+18,0.781438,-0.014019,0.618948,0.077852,-4.525647,-14.435848,12.209635,-0.339455,1.259741,-0.413366,28.563475,-34.05385,14.307814,4.63583E+18,0.483647,-0.085163,0.775707,0.396373,-3.112403,17.724092,-2.039033,-0.694906,-1.449862,-0.521325,34.183285,28.446291,10.201335,4.63583E+18,0.344803,0.529034,0.574498,-0.520755,7
2.911764,-5.140584,-1.006826,-1.93824,0.595225,0.493262,43.473772,-7.436247,14.580787,4.63583E+18,0.779592,-0.019267,0.620268,0.084456,-2.491828,-9.583433,10.220304,0.169162,0.756974,-1.073916,28.566797,-33.734981,14.593385,4.63583E+18,0.483031,-0.089242,0.777141,0.393408,-3.224697,17.1731,-2.519234,-1.427593,-1.56538,-0.044327,34.144108,28.400564,10.057424,4.63583E+18,0.351476,0.523573,0.575399,-0.520818,7
1.05751,-4.05862,-2.049577,-1.808428,0.044852,0.524686,43.316361,-8.00871,14.395093,4.63583E+18,0.779114,-0.023815,0.619805,0.090867,-1.841099,-2.015055,6.184402,-0.286804,0.412082,-1.706474,28.855337,-33.597735,14.694017,4.63583E+18,0.48438,-0.095714,0.776869,0.390755,-3.665611,14.857457,-2.947393,-2.018658,-1.677272,0.403715,34.276275,28.168174,9.920582,4.63583E+18,0.360647,0.518029,0.576384,-0.519,7
0.5378,-2.403083,-1.580594,-1.659521,0.050478,0.492195,43.441636,-8.363969,14.379035,4.63583E+18,0.778604,-0.027963,0.619376,0.096784,-1.669874,5.267727,1.310824,-1.407918,0.179883,-2.186963,29.40607,-33.377687,14.426611,4.63583E+18,0.486778,-0.105619,0.77405,0.390818,-4.018711,11.951905,-3.263414,-2.272319,-1.743827,0.803877,34.566681,27.81673,9.87579,4.63583E+18,0.371342,0.512851,0.576876,-0.516046,7
0.609702,-1.741273,-0.410811,-1.6649,0.320439,0.443236,43.534795,-8.69353,14.565959,4.63583E+18,0.777375,-0.032361,0.619782,0.10252,-1.824993,9.077556,-2.130314,-2.787548,0.131569,-2.541133,30.048209,-32.887975,14.004951,4.63583E+18,0.489221,-0.119365,0.768597,0.394556,-4.001566,9.777807,-3.876459,-2.142697,-1.746834,1.176381,34.982157,27.346828,9.869182,4.63583E+18,0.382513,0.508687,0.576199,-0.512754,7
0.524288,-1.553569,0.516465,-1.72567,0.558784,0.387294,43.25986,-9.088687,14.434953,4.63583E+18,0.775503,-0.037198,0.620891,0.108195,-2.171935,8.717125,-3.826625,-3.745533,0.145208,-2.724544,30.726252,-32.460632,13.257104,4.63583E+18,0.491304,-0.13564,0.761275,0.400852,-4.051721,8.378826,-4.245726,-1.845081,-1.752681,1.495458,35.510069,26.85598,9.810726,4.63583E+18,0.393691,0.505676,0.574112,-0.509602,7
-0.131561,-1.78929,0.271854,-1.771711,0.637672,0.308712,43.008016,-9.502413,14.438783,4.63583E+18,0.773407,-0.042419,0.622182,0.113719,-1.01103,5.43814,-3.96544,-4.084196,0.104659,-2.724245,31.437259,-32.311166,12.14806,4.63583E+18,0.493142,-0.152492,0.753011,0.408082,-4.412781,8.645777,-4.533718,-1.774726,-1.774056,1.758019,36.117858,26.278775,9.812171,4.63583E+18,0.405269,0.503286,0.571198,-0.506155,7
-1.124782,-2.091896,-0.816352,-1.711358,0.585809,0.196003,43.069624,-9.830102,14.801708,4.63583E+18,0.771463,-0.047709,0.623276,0.118726,0.945041,2.724196,-2.941416,-4.109594,0.092491,-2.633919,32.096428,-32.112589,11.098273,4.63583E+18,0.494657,-0.169034,0.744431,0.415409,-4.554943,8.602798,-6.041042,-1.823994,-1.722397,1.947293,36.685535,25.416839,9.805132,4.63583E+18,0.417159,0.501291,0.567981,-0.502079,7
-2.008154,-2.255109,-1.649666,-1.560392,0.608552,0.037551,42.927069,-9.940011,14.844202,4.63583E+18,0.769527,-0.052933,0.624452,0.122823,2.46005,0.7679,-2.450052,-4.014452,0.178733,-2.525102,32.750775,-31.696134,10.048512,4.63583E+18,0.495596,-0.185129,0.735979,0.422429,-4.207287,6.032025,-7.994856,-1.769401,-1.575444,2.044091,37.179406,24.535789,9.660236,4.63583E+18,0.428719,0.499844,0.564605,-0.497571,7
-2.667354,-1.910318,-1.842621,-1.393502,0.698975,-0.152602,42.625181,-10.025453,14.767784,4.63583E+18,0.767456,-0.05816,0.625932,0.125853,2.823051,-1.017178,-2.322005,-3.737537,0.2871,-2.388967,33.364105,-31.217078,8.993921,4.63583E+18,0.496006,-0.200365,0.72808,0.428639,-3.717403,3.117223,-9.329973,-1.638626,-1.390566,2.068336,37.753573,23.859199,9.517761,4.63583E+18,0.439553,0.498992,0.561146,-0.492864,7
-2.963683,-1.12548,-1.768201,-1.264982,0.652899,-0.328722,42.526138,-10.099978,14.933398,4.63583E+18,0.765597,-0.063408,0.627263,0.127991,2.157058,-1.928988,-2.398467,-3.244562,0.38417,-2.15407,33.930407,-30.857101,8.04724,4.63583E+18,0.49597,-0.213993,0.721241,0.433626,-3.218523,1.692189,-10.088549,-1.4854,-1.218013,2.058775,38.360896,23.122377,9.420108,4.63583E+18,0.449583,0.498683,0.557626,-0.488103,7
-2.641482,-0.164299,-1.572283,-1.244228,0.39501,-0.478966,42.660302,-10.184147,15.128735,4.63583E+18,0.76447,-0.068842,0.627721,0.129662,1.361195,-1.742404,-2.7553,-2.616665,0.475769,-1.826986,34.37446,-30.63437,7.431887,4.63583E+18,0.495523,-0.225468,0.715862,0.437222,-2.490912,1.677616,-10.219798,-1.441877,-1.042863,2.039777,38.888383,22.27451,9.322454,4.63583E+18,0.459017,0.498704,0.55431,-0.483052,7
-1.825271,0.69204,-1.048289,-1.389437,0.200093,-0.623476,42.753482,-10.116783,15.062074,4.63583E+18,0.763862,-0.075009,0.627413,0.131304,1.003609,-0.659793,-3.400667,-2.036903,0.567275,-1.469262,34.647414,-30.429853,7.163944,4.63583E+18,0.494628,-0.234819,0.711962,0.439675,-1.803495,1.637194,-9.737907,-1.49159,-0.838024,2.027169,39.376678,21.557675,9.224794,4.63583E+18,0.467999,0.498953,0.551443,-0.477425,7
-0.827601,1.326967,-0.268485,-1.604428,0.228265,-0.713239,42.620652,-10.184127,15.139039,4.63583E+18,0.763126,-0.082105,0.627019,0.13321,1.003206,0.591871,-4.064434,-1.589886,0.64703,-1.123627,34.993595,-30.077475,7.027875,4.63583E+18,0.493261,-0.242346,0.709321,0.44139,-1.503119,0.573848,-8.816622,-1.466678,-0.644577,2.035608,39.831928,20.901122,9.338444,4.63583E+18,0.476447,0.499597,0.548819,-0.471381,7
0.283838,1.71906,-0.117628,-1.865643,0.404863,-0.750717,42.527441,-10.182268,15.324009,4.63583E+18,0.761811,-0.090222,0.626988,0.135612,0.967797,1.617342,-4.465888,-1.227865,0.713782,-0.794162,35.297794,-29.706628,6.870974,4.63583E+18,0.491433,-0.248263,0.707779,0.442615,-1.459284,-0.737106,-7.521937,-1.305234,-0.498525,2.087764,40.206343,20.205339,9.472945,4.63583E+18,0.484273,0.500913,0.545996,-0.465246,7
0.632008,1.801516,-0.655494,-2.039918,0.641873,-0.758887,42.594772,-10.115499,15.333793,4.63583E+18,0.759754,-0.099039,0.627555,0.138346,0.706078,1.931781,-4.627013,-0.95276,0.771459,-0.520196,35.367859,-29.670174,6.773319,4.63583E+18,0.489198,-0.252909,0.70712,0.443513,-1.603541,-1.685529,-6.246527,-1.025374,-0.383373,2.197339,40.667993,19.423684,9.367305,4.63583E+18,0.491414,0.503215,0.542575,-0.459238,7
0.681027,2.079538,-1.189526,-2.164207,0.792691,-0.73176,42.66932,-10.10773,15.168793,4.63583E+18,0.757163,-0.108256,0.628479,0.141418,0.290647,1.438282,-4.388357,-0.718876,0.833335,-0.309115,35.253609,-29.706648,6.637262,4.63583E+18,0.486622,-0.256572,0.707222,0.44408,-1.51659,-2.058442,-5.368779,-0.710183,-0.268478,2.317475,41.116272,18.615433,9.383254,4.63583E+18,0.497812,0.506603,0.538477,-0.453408,7
0.672702,2.428345,-0.874129,-2.377403,0.881998,-0.686464,42.677082,-10.173205,15.323988,4.63583E+18,0.754133,-0.118066,0.629507,0.145138,-0.073381,0.286397,-3.731627,-0.415703,0.888255,-0.125094,35.152521,-29.569349,6.595564,4.63583E+18,0.483858,-0.25918,0.708179,0.444061,-1.197591,-1.857424,-4.828435,-0.456028,-0.128811,2.416111,41.378847,17.800202,9.63137,4.63583E+18,0.503495,0.510951,0.533923,-0.447604,7
0.289519,2.029452,-0.49186,-2.62651,0.640699,-0.552591,42.611614,-10.257352,15.682949,4.63583E+18,0.751437,-0.128146,0.629612,0.150035,-0.496799,-0.91953,-2.689473,0.00714,0.889671,0.028888,35.145115,-29.555906,6.978106,4.63583E+18,0.481255,-0.260476,0.710078,0.443096,-1.120459,-1.447979,-4.593601,-0.323087,0.022028,2.482644,41.73259,16.866471,9.666907,4.63583E+18,0.508627,0.515953,0.529237,-0.441587,7
-0.541533,1.355602,-0.058833,-2.789819,0.16317,-0.455164,42.538365,-10.408285,15.734048,4.63583E+18,0.749744,-0.138165,0.628084,0.155903,-1.046132,-2.428308,-1.299475,0.481721,0.807772,0.116596,35.11151,-29.648765,7.534299,4.63583E+18,0.479243,-0.260404,0.712776,0.440984,-1.364311,-1.534573,-4.558969,-0.2817,0.157295,2.525684,42.181255,15.984333,9.53661,4.63583E+18,0.513395,0.521331,0.524609,-0.435231,7
-0.78754,0.125203,0.762479,-2.943504,-0.196446,-0.415821,42.596058,-10.654255,15.320722,4.63583E+18,0.748768,-0.148304,0.625261,0.162482,-1.379437,-4.251875,-0.337418,1.014091,0.640877,0.123125,35.026057,-29.667008,7.879123,4.63583E+18,0.478278,-0.258938,0.71611,0.437479,-1.643726,-1.875667,-4.526963,-0.298364,0.25281,2.569159,42.517089,15.163505,9.754744,4.63583E+18,0.518008,0.526881,0.520058,-0.428489,7
-0.543826,-1.092389,1.803769,-3.043852,-0.390383,-0.391302,42.669303,-10.757854,14.758648,4.63583E+18,0.7481,-0.158536,0.621679,0.169496,-0.947483,-5.534544,-0.892913,1.544067,0.437238,-0.008627,34.974209,-29.581564,8.244066,4.63583E+18,0.478711,-0.256431,0.719836,0.432338,-1.845644,-2.169979,-4.194351,-0.483289,0.266139,2.64685,42.792251,14.269389,10.131839,4.63583E+18,0.523073,0.532161,0.515631,-0.421098,7
-0.065363,-1.91904,2.24389,-2.989869,-0.398599,-0.379259,42.600705,-11.061525,14.370386,4.63583E+18,0.747358,-0.168534,0.618013,0.176387,0.218191,-3.316718,-2.399425,1.753829,0.252586,-0.199259,34.969411,-29.433755,8.758467,4.63583E+18,0.480236,-0.25373,0.723331,0.426365,-2.878006,-3.267653,-2.7496,-0.4981,0.277662,2.796558,43.105997,13.295495,10.273025,4.63583E+18,0.528336,0.53768,0.510853,-0.413268,7
-0.197671,-2.154749,1.780942,-2.872491,-0.29521,-0.409626,42.526173,-11.620191,14.026022,4.63583E+18,0.746341,-0.178293,0.614636,0.182783,1.243078,2.952873,-4.644153,1.619782,0.131228,-0.361884,35.019574,-29.156023,9.289036,4.63583E+18,0.482246,-0.251555,0.726137,0.420576,-3.63484,-4.2574,-1.257398,-0.32553,0.401097,3.019759,43.408197,12.203159,10.338016,4.63583E+18,0.533253,0.544185,0.505469,-0.404975,7
-1.146926,-2.063836,1.284918,-2.82698,-0.324101,-0.48973,42.660192,-11.682485,13.727889,4.63583E+18,0.745383,-0.188065,0.611053,0.188811,0.719431,8.960892,-5.061477,1.01242,0.096236,-0.648712,35.166064,-28.860007,9.647367,4.63583E+18,0.484208,-0.251394,0.727483,0.416068,-3.416437,-4.998726,-1.244796,-0.134163,0.453676,3.286767,43.597582,10.997269,10.447883,4.63583E+18,0.53798,0.55167,0.499182,-0.396302,7
-1.715498,-1.96358,0.796628,-2.797345,-0.710769,-0.519823,42.94978,-11.540681,13.260387,4.63583E+18,0.745348,-0.197487,0.606177,0.194947,-2.657846,11.367639,-0.5043,0.039862,-0.073203,-1.143892,35.350925,-28.611073,9.8043,4.63583E+18,0.48651,-0.254397,0.726266,0.413676,-3.615633,-6.516905,-1.435224,0.216962,0.32286,3.626725,43.798816,9.752195,10.511561,4.63583E+18,0.542617,0.560317,0.491132,-0.387815,7
-1.51916,-1.86591,0.504647,-2.627226,-1.19153,-0.550961,43.124089,-11.752884,12.619308,4.63583E+18,0.746582,-0.206038,0.599827,0.200925,-6.225829,4.234666,4.122332,-0.985519,-0.336436,-1.967672,35.748534,-28.191664,9.633362,4.63583E+18,0.489916,-0.261506,0.721839,0.412971,-3.410634,-6.573104,-1.972454,0.503563,0.320419,3.969651,44.120137,8.296015,10.582152,4.63583E+18,0.547003,0.570166,0.481686,-0.379048,7
-1.020309,-1.73555,1.16322,-2.408844,-1.324444,-0.571547,43.206404,-12.074629,12.13475,4.63583E+18,0.751101,-0.205373,0.596118,0.195733,-5.425354,-2.28497,3.687134,-2.238251,-0.575767,-2.914278,36.450428,-27.481924,8.937134,4.63583E+18,0.494232,-0.273566,0.713626,0.414288,-1.969318,-4.446883,-3.192209,0.483956,0.500439,4.208531,44.440182,6.78556,10.797565,4.63583E+18,0.551286,0.580564,0.471967,-0.369157,7
-0.146395,-1.688524,2.728443,-2.234391,-1.049729,-0.477209,43.279647,-12.044305,11.659975,4.63583E+18,0.752175,-0.212562,0.590588,0.200639,-3.149895,-0.218772,1.372901,-3.922252,-0.848208,-3.85441,37.222494,-26.717708,8.032114,4.63583E+18,0.498879,-0.291315,0.700606,0.418815,-0.174261,-2.608355,-3.774056,0.454376,0.604451,4.26452,44.635188,5.381799,11.049963,4.63583E+18,0.555341,0.590977,0.462243,-0.358711,7
0.976507,-2.284553,3.82162,-2.089467,-0.619718,-0.343545,43.571055,-12.047407,11.00931,4.63583E+18,0.752135,-0.21931,0.586586,0.205212,-4.812938,4.688906,-1.518555,-6.158311,-1.054549,-4.677768,38.038627,-25.826596,6.765658,4.63583E+18,0.502468,-0.315528,0.681712,0.428062,1.539309,0.041798,-3.506314,0.350197,0.717973,4.328349,44.717683,3.80655,11.217906,4.63583E+18,0.559344,0.601246,0.452623,-0.34752,7
1.709441,-3.130404,2.611075,-1.413943,-0.332035,-0.211606,43.746633,-12.048707,10.839673,4.63583E+18,0.751853,-0.22385,0.58415,0.208273,-13.266119,-11.741542,12.449797,-6.865115,-2.250724,-4.769718,39.036476,-24.689683,4.653674,4.63583E+18,0.508112,-0.338993,0.65814,0.440179,2.813987,2.192821,-4.802466,0.617083,0.801344,4.33127,44.812672,2.256873,11.4445,4.63583E+18,0.562331,0.612058,0.442648,-0.336499,0
0.898852,-4.596977,-0.589234,-2.13586,-0.685083,-0.080226,43.610849,-12.201399,10.675276,4.63583E+18,0.751598,-0.230008,0.580068,0.213816,-45.091977,-123.415385,67.857132,-6.835391,-6.078672,-5.424952,40.148511,-23.296987,1.654182,4.63583E+18,0.524684,-0.356631,0.624537,0.455494,7.157758,37.663619,-12.642915,-1.637155,0.580999,5.014718,44.90738,0.602658,11.861729,4.63583E+18,0.572195,0.618286,0.433386,-0.320144,0
-3.917574,-6.821974,0.574554,-4.631191,-1.649514,0.345992,43.581731,-12.743061,9.490205,4.63583E+18,0.750706,-0.242056,0.570994,0.227628,-93.39618,-147.905248,27.630824,-5.534157,-7.073913,-8.07335,41.275599,-21.346099,-1.218511,4.63583E+18,0.54951,-0.375804,0.585801,0.462219,-11.38135,89.911835,-16.539988,-8.274606,-0.892339,4.818232,44.922267,-1.647323,11.81407,4.63583E+18,0.600953,0.605731,0.429516,-0.295739,0
-4.316561,-20.207114,12.685569,0.313461,-3.549091,1.105049,43.645853,-13.328946,8.347725,4.63583E+18,0.758355,-0.234948,0.561243,0.233889,-97.742967,69.560079,-53.799012,-1.55629,-1.700828,-5.905346,42.214238,-19.069534,-2.792998,4.63583E+18,0.562699,-0.389956,0.569718,0.45467,-68.088317,46.677889,4.368345,-10.797899,-2.404118,4.62995,44.930814,-4.262638,10.887023,4.63583E+18,0.637322,0.583432,0.424563,-0.270506,0
-12.30121,-21.429051,-0.904302,4.813825,-4.609442,2.225202,43.642771,-13.478761,7.551685,4.63583E+18,0.771379,-0.20984,0.553313,0.234065,-26.268356,94.048192,-22.298854,-6.430687,-0.049671,-3.230797,42.970265,-17.093161,-3.935071,4.63583E+18,0.558369,-0.412232,0.552034,0.462111,-92.84329,-37.494499,15.494807,-8.465514,-1.643755,3.34468,45.000391,-6.45007,9.703225,4.63583E+18,0.663977,0.564755,0.421278,-0.250424,0
-41.577694,-16.229275,4.717608,5.110621,-7.965285,4.260106,43.685087,-14.252535,4.86462,4.63583E+18,0.78937,-0.175508,0.53592,0.242655,27.522697,-35.817497,-34.957604,-5.478104,-1.893756,-3.244663,43.434715,-15.646016,-5.34315,4.63583E+18,0.559491,-0.428446,0.53142,0.470103,-51.28285,-74.169119,4.006492,-3.476658,-0.294561,2.025864,45.012364,-7.947873,9.053768,4.63583E+18,0.671347,0.563974,0.411823,-0.248252,0
-62.689376,-24.543445,36.558965,0.052303,-14.153829,4.782213,43.712103,-16.011974,0.802469,4.63583E+18,0.814667,-0.149916,0.491906,0.268089,-29.679607,-45.348473,-11.518164,0.308746,-2.241392,-1.738539,43.596961,-14.715045,-6.60896,4.63583E+18,0.56851,-0.426975,0.523776,0.469199,-16.736963,-67.80314,18.822498,1.956614,0.150227,2.56489,44.832692,-9.03485,9.047863,4.63583E+18,0.669117,0.573859,0.404509,-0.243598,0
-46.166185,-21.958864,44.544617,0.353295,1.365136,2.015594,43.431252,-17.083616,0.146871,4.63583E+18,0.809832,-0.145993,0.498164,0.273295,-100.826127,8.081259,2.197357,1.355122,-1.012801,-1.476685,43.732458,-14.11552,-7.130534,4.63583E+18,0.576129,-0.42481,0.521493,0.464389,-32.199199,-26.9246,28.20451,4.071211,0.021386,2.561674,44.50581,-9.776086,9.360815,4.63583E+18,0.661686,0.589599,0.394213,-0.243189,0
-68.987555,6.442326,8.469959,3.913738,4.712974,0.018438,43.201081,-17.242535,1.397624,4.63583E+18,0.802192,-0.137936,0.518374,0.262202,-104.514733,40.574213,-19.104701,0.235292,0.189696,-3.109956,44.084121,-13.421301,-6.909112,4.63583E+18,0.582238,-0.431153,0.516975,0.455898,-50.229465,19.206701,16.274468,2.645829,-0.321406,2.187383,44.258216,-10.245344,9.552778,4.63583E+18,0.657732,0.600265,0.385214,-0.24224,0
-62.774754,11.480168,-16.166688,3.362637,-7.491126,-0.896924,43.308411,-16.976508,0.689072,4.63583E+18,0.820852,-0.120239,0.496193,0.256001,-44.020534,15.852941,-8.678379,-0.902975,0.362493,-3.976205,44.582913,-12.154352,-6.714545,4.63583E+18,0.58744,-0.442352,0.509048,0.447336,-47.276568,22.916513,10.281795,0.5173,-0.79512,1.817898,44.151263,-10.761178,9.360717,4.63583E+18,0.659396,0.603941,0.377934,-0.240039,0
-22.76834,0.726222,18.882035,2.36011,-5.637138,-0.98747,43.367726,-16.812924,-1.203713,4.63583E+18,0.834501,-0.108053,0.47877,0.250425,4.369307,-21.121477,2.345442,-0.104265,0.66428,-2.527762,44.840424,-10.786301,-6.643937,4.63583E+18,0.590654,-0.448998,0.505919,0.439971,-39.60346,0.592336,6.603874,0.467102,-1.065722,1.910176,44.163674,-11.383716,8.994519,4.63583E+18,0.661649,0.607305,0.369698,-0.238169,0
4.753024,7.39241,30.137775,0.620161,2.237921,-1.200968,43.36199,-16.437273,-1.601572,4.63583E+18,0.831551,-0.110518,0.486627,0.24393,11.07433,-23.612401,10.988947,0.722062,0.721133,-1.411148,44.753773,-10.071818,-6.486674,4.63583E+18,0.593191,-0.451324,0.506494,0.433469,-31.18933,-2.509489,3.061218,1.164339,-0.892045,2.139588,44.209594,-12.006259,8.733723,4.63583E+18,0.662036,0.613046,0.360644,-0.236263,0
-11.51435,7.15926,9.014495,0.544576,4.955598,-1.90313,43.677117,-15.794433,-0.052389,4.63583E+18,0.823522,-0.117379,0.503357,0.233806,17.89267,-9.639592,14.144625,1.052597,0.932308,-0.592412,44.666409,-9.697714,-6.098452,4.63583E+18,0.594394,-0.451464,0.509704,0.427875,-21.785185,5.593163,-0.239813,1.294497,-0.652405,1.922977,44.182275,-12.635424,8.661637,4.63583E+18,0.661584,0.618775,0.353011,-0.234112,0
-36.944755,17.275527,3.048322,0.462216,1.11363,-2.424625,44.009306,-15.046658,1.203552,4.63583E+18,0.82376,-0.121832,0.506418,0.223867,6.189589,-3.039011,11.577656,0.717696,0.921085,-0.367533,44.765728,-9.430356,-5.596535,4.63583E+18,0.594569,-0.451918,0.512697,0.423556,-14.133193,8.948027,-1.621291,1.225742,-0.329484,1.45304,43.989501,-13.138427,8.72654,4.63583E+18,0.660316,0.623894,0.347523,-0.232306,0
-41.368047,16.060788,1.721467,0.781126,0.006823,-1.817254,44.18617,-14.30063,1.385168,4.63583E+18,0.825848,-0.122861,0.506241,0.215872,-10.51467,-2.986387,7.395744,0.427001,1.110743,-0.201871,44.924424,-9.326456,-5.248973,4.63583E+18,0.59348,-0.453061,0.515946,0.419902,-10.150298,10.199443,-2.052044,1.375498,0.009153,0.812647,43.638227,-13.410487,8.889092,4.63583E+18,0.657365,0.629012,0.344079,-0.232003,0
-35.968824,8.221497,3.128017,0.323883,1.125151,-0.784225,44.268475,-13.708804,1.533488,4.63583E+18,0.824367,-0.12429,0.510003,0.211819,-17.853155,-6.373886,1.979036,0.296622,1.339912,0.136794,45.0879,-9.422164,-4.772014,4.63583E+18,0.59104,-0.454184,0.520158,0.416922,-8.423668,14.046894,-1.753427,1.240087,0.002542,0.137041,43.464941,-13.403557,9.083445,4.63583E+18,0.654099,0.632761,0.342505,-0.233365,0
-34.921975,-1.42507,6.930199,-0.113118,0.898351,-0.143862,44.352618,-13.495143,2.139459,4.63583E+18,0.822546,-0.125678,0.512915,0.211047,-13.063032,-10.049058,-0.059569,0.479843,1.468779,0.518839,45.220518,-9.6041,-4.033826,4.63583E+18,0.587978,-0.454232,0.525709,0.414227,-6.610301,16.596769,0.373619,0.532919,-0.206097,-0.521483,43.595689,-13.244871,9.161174,4.63583E+18,0.652342,0.633426,0.342779,-0.236058,0
-32.2801,-6.055108,5.942834,-0.065492,0.403958,0.328335,44.372615,-13.771529,2.482276,4.63583E+18,0.821392,-0.125437,0.514423,0.212015,-8.129735,-6.955043,0.441629,0.566289,1.535604,0.875379,45.29855,-9.823545,-3.395899,4.63583E+18,0.584285,-0.453376,0.532219,0.412072,-4.844158,15.352551,2.744949,-0.12072,-0.349138,-1.090749,43.860541,-13.00058,9.043609,4.63583E+18,0.651944,0.631351,0.344806,-0.239739,0
-27.727918,-6.471223,4.388767,0.044789,-0.038114,0.063038,44.297555,-13.948379,2.438368,4.63583E+18,0.821476,-0.124993,0.514375,0.212065,-8.204526,-3.233808,1.7026,0.508092,1.623065,1.126462,45.259607,-10.245969,-2.810014,4.63583E+18,0.579817,-0.452223,0.539281,0.410467,-4.742047,13.008224,4.895377,-0.387929,-0.412908,-1.527474,44.028405,-12.558073,8.737308,4.63583E+18,0.651883,0.627837,0.348063,-0.244382,0
-25.008186,-6.044512,5.892685,0.138695,-0.017572,-0.417229,44.22301,-13.747109,2.418365,4.63583E+18,0.821987,-0.125278,0.514229,0.210264,-8.496422,-4.218272,2.132512,0.537129,1.648227,1.329988,44.994202,-10.699255,-2.228885,4.63583E+18,0.574951,-0.450548,0.546793,0.409213,-5.940661,11.642412,6.218799,-0.460241,-0.401418,-1.859835,44.082854,-11.962687,8.445459,4.63583E+18,0.65162,0.623621,0.352277,-0.249778,0
-23.380907,-3.779512,6.82233,0.120794,0.539195,-0.78209,44.280663,-13.361158,2.39525,4.63583E+18,0.821598,-0.126914,0.515774,0.206992,-8.707616,-5.207334,2.194353,0.767271,1.637672,1.492733,44.772468,-11.269394,-1.573788,4.63583E+18,0.570209,-0.447891,0.554926,0.407814,-7.723395,11.263595,6.25075,-0.546012,-0.373924,-2.136097,44.309434,-11.242352,8.389365,4.63583E+18,0.651205,0.618748,0.357347,-0.255707,0
-21.92043,-1.366857,5.665879,0.043049,0.695244,-1.106559,44.50662,-13.165565,2.469007,4.63583E+18,0.821093,-0.129645,0.517605,0.202691,-11.217773,-2.746349,1.847845,0.877124,1.700182,1.615899,44.704008,-11.933363,-0.792531,4.63583E+18,0.565258,-0.444746,0.563565,0.406299,-9.508981,11.106685,5.278982,-0.735912,-0.346045,-2.402498,44.68128,-10.455455,8.304606,4.63583E+18,0.650891,0.612932,0.363348,-0.261979,0
-19.802597,-0.042018,5.266893,-0.064116,0.62111,-1.273434,44.598046,-12.929239,2.641703,4.63583E+18,0.820812,-0.133014,0.518992,0.198047,-13.845949,-1.738456,0.122725,0.906394,1.857606,1.739924,44.638196,-12.604703,0.022141,4.63583E+18,0.559711,-0.441452,0.572785,0.404674,-10.803455,10.201408,3.882763,-0.954667,-0.28711,-2.704966,45.001402,-9.667648,8.038808,4.63583E+18,0.650636,0.606052,0.370475,-0.268555,0
