Accelerometer-X,Accelerometer-Y,Accelerometer-Z,Gyroscope-X,Gyroscope-Y,Gyroscope-Z,Magnetometer-X,Magnetometer-Y,Magnetometer-Z,Barometer-pressure,Orientation-S,Orientation-X,Orientation-Y,Orientation-Z,Accelerometer-X,Accelerometer-Y,Accelerometer-Z,Gyroscope-X,Gyroscope-Y,Gyroscope-Z,Magnetometer-X,Magnetometer-Y,Magnetometer-Z,Barometer-pressure,Orientation-S,Orientation-X,Orientation-Y,Orientation-Z,Accelerometer-X,Accelerometer-Y,Accelerometer-Z,Gyroscope-X,Gyroscope-Y,Gyroscope-Z,Magnetometer-X,Magnetometer-Y,Magnetometer-Z,Barometer-pressure,Orientation-S,Orientation-X,Orientation-Y,Orientation-Z,jump
-8.105457,-1.759857,2.028161,-0.02231,0.072323,0.05421,45.364441,-1.597352,8.489081,4.63583E+18,0.79353,-0.048153,0.603302,0.063384,-9.441868,0.929233,-0.84009,0.001555,0.013433,0.195763,39.820549,-19.165623,13.474017,4.63582E+18,0.573481,-0.360797,0.626851,0.384712,-9.398096,-0.224072,0.33594,0.075683,0.148283,0.190896,40.481354,19.553694,-3.34547,4.63583E+18,-0.454105,-0.52538,-0.464351,0.549675,0
-8.365275,-1.500125,2.045563,0.009424,0.075695,0.015901,45.350678,-1.649817,8.726648,4.63583E+18,0.793301,-0.048106,0.603603,0.063422,-9.581326,0.929248,-0.935896,-0.02667,0.006571,0.173332,39.827947,-19.261797,13.381167,4.63582E+18,0.573115,-0.36038,0.627107,0.385231,-9.587777,-0.338349,0.125858,0.029919,0.126212,0.182739,40.727236,19.191132,-3.320414,4.63583E+18,-0.454136,-0.526077,-0.464139,0.549162,0
-8.626996,-1.16343,2.099586,0.043317,0.069119,-0.013711,45.204014,-1.562723,8.627259,4.63583E+18,0.793104,-0.04802,0.603884,0.063277,-9.740022,0.748358,-1.062779,-0.045574,0.001262,0.154138,39.78837,-19.427892,13.46106,4.63582E+18,0.572765,-0.360049,0.62729,0.385762,-9.586272,0.135975,0.133955,-0.066522,0.114869,0.165157,40.715803,18.913382,-3.175231,4.63583E+18,-0.45436,-0.526531,-0.464163,0.54852,0
-8.778657,-0.957465,2.181567,0.062541,0.076881,-0.032499,45.216123,-1.405679,8.532975,4.63583E+18,0.792896,-0.047915,0.604193,0.063014,-9.809941,0.693596,-1.17744,-0.041143,-0.00906,0.138344,39.700344,-19.3473,13.708123,4.63582E+18,0.572474,-0.359733,0.627432,0.386257,-9.634129,0.722634,0.400588,-0.224771,0.103695,0.143547,40.384669,19.04507,-3.052495,4.63583E+18,-0.454904,-0.526618,-0.464576,0.547636,0
-8.975583,-0.910369,2.228768,0.081463,0.098554,-0.033736,45.29984,-1.342814,8.532975,4.63583E+18,0.792633,-0.047802,0.604574,0.062754,-9.807357,0.663659,-1.213345,-0.031366,-0.025307,0.125333,39.706223,-19.147545,13.70046,4.63582E+18,0.572261,-0.359401,0.627532,0.386721,-9.728642,0.721555,0.887516,-0.349357,0.09723,0.121119,40.456822,18.932196,-3.172607,4.63583E+18,-0.455681,-0.526409,-0.465308,0.546568,0
-9.259832,-0.858177,2.190414,0.097495,0.113526,-0.021994,45.374817,-1.330707,8.545083,4.63583E+18,0.792337,-0.047568,0.605014,0.062433,-9.795149,0.671765,-1.149365,-0.023663,-0.037869,0.109052,39.794264,-19.22809,13.394188,4.63582E+18,0.572118,-0.359073,0.627588,0.387144,-9.762788,0.226859,1.406463,-0.365942,0.102484,0.108215,40.461937,18.927081,-3.213682,4.63583E+18,-0.456455,-0.526155,-0.466115,0.545478,0
-9.554591,-0.706537,2.145049,0.105293,0.113244,-0.002026,45.436072,-1.269453,8.618426,4.63583E+18,0.792038,-0.047257,0.605458,0.062156,-9.819916,0.74019,-1.162637,-0.019001,-0.055893,0.08918,39.832756,-19.376083,13.30419,4.63582E+18,0.572062,-0.358757,0.62758,0.387534,-9.82943,-0.226145,1.901029,-0.288275,0.120555,0.104953,40.089302,19.28157,-2.929302,4.63583E+18,-0.457015,-0.526082,-0.466786,0.544505,0
-9.765807,-0.535514,2.13618,0.100275,0.100708,0.029253,45.328161,-1.342814,8.620154,4.63583E+18,0.79176,-0.046883,0.605866,0.062001,-9.787412,0.769066,-1.196326,-0.009748,-0.07292,0.067594,39.73664,-19.409771,13.571893,4.63582E+18,0.572099,-0.358447,0.627513,0.387874,-9.942088,-0.529169,2.17157,-0.157197,0.141123,0.11976,40.565746,19.007497,-2.768618,4.63583E+18,-0.45728,-0.526334,-0.467166,0.543713,0
-9.830526,-0.451674,2.212996,0.085008,0.104508,0.060099,45.153125,-1.330717,8.628906,4.63583E+18,0.791463,-0.046479,0.606287,0.061979,-9.746321,0.835617,-1.166748,-0.001685,-0.085092,0.048396,39.718429,-19.461533,13.66936,4.63582E+18,0.572211,-0.358149,0.627401,0.388164,-9.855498,-0.725187,2.022139,-0.027815,0.166184,0.139263,41.670966,18.310111,-2.837397,4.63583E+18,-0.457257,-0.526926,-0.467256,0.54308,0
-9.774678,-0.458577,2.228778,0.073272,0.120354,0.073713,45.374789,-1.269442,8.632232,4.63583E+18,0.791115,-0.046132,0.606757,0.062093,-9.771084,0.81978,-1.088343,-0.014234,-0.094253,0.031306,39.702941,-19.443464,13.517363,4.63582E+18,0.572356,-0.357911,0.627222,0.38846,-9.769383,-0.678328,1.563008,0.077317,0.181774,0.154521,42.099221,18.061343,-2.86874,4.63583E+18,-0.457008,-0.527783,-0.467105,0.542588,0
-9.755441,-0.502229,2.186977,0.055868,0.146012,0.062461,45.413644,-1.341088,8.729894,4.63583E+18,0.790706,-0.045833,0.607307,0.062149,-9.805123,0.810845,-1.042444,-0.032555,-0.101729,0.016805,39.622311,-19.313666,13.4921,4.63582E+18,0.572516,-0.357742,0.626973,0.388781,-9.817225,-0.383881,0.983699,0.134297,0.182408,0.161261,41.904063,18.042542,-2.796157,4.63583E+18,-0.456647,-0.528763,-0.46681,0.542192,0
-9.781465,-0.516165,2.11718,0.043502,0.157622,0.026766,45.193652,-1.342696,8.843104,4.63583E+18,0.790274,-0.045669,0.607884,0.062117,-9.770399,0.85228,-1.096766,-0.046215,-0.113734,0.003988,39.692099,-19.450663,13.414921,4.63582E+18,0.572709,-0.35762,0.626654,0.389124,-9.839167,-0.175036,0.430917,0.141299,0.171265,0.165534,41.895143,17.806659,-2.698501,4.63583E+18,-0.456301,-0.529738,-0.466467,0.541826,0
-9.889594,-0.540577,2.087337,0.033437,0.161894,-0.017789,45.165282,-1.416059,9.033349,4.63583E+18,0.78984,-0.045654,0.608464,0.061965,-9.719337,0.733699,-1.150069,-0.051271,-0.128686,-0.003008,39.766904,-19.728482,13.290959,4.63582E+18,0.572944,-0.357504,0.62628,0.389486,-9.766587,-0.197788,0.048022,0.128814,0.162142,0.176951,41.974656,17.725149,-2.673421,4.63583E+18,-0.456026,-0.530691,-0.46611,0.541432,0
-9.968275,-0.578785,2.16071,0.021224,0.166619,-0.059455,45.397338,-1.403988,9.118794,4.63583E+18,0.789402,-0.045787,0.609048,0.061707,-9.749226,0.528751,-1.122753,-0.051918,-0.146226,-0.003626,39.668258,-19.721362,13.30897,4.63582E+18,0.573225,-0.357363,0.625862,0.389873,-9.705223,-0.274161,-0.208977,0.109098,0.143554,0.182898,42.047895,17.725149,-2.673421,4.63583E+18,-0.455845,-0.531575,-0.465747,0.54103,0
-9.921299,-0.711219,2.153809,0.013886,0.174248,-0.093649,45.521538,-1.308178,9.178373,4.63583E+18,0.788953,-0.046032,0.609648,0.061352,-9.792911,0.414721,-1.128229,-0.047812,-0.16028,-0.003204,39.748628,-19.602185,13.342691,4.63582E+18,0.573548,-0.357188,0.625417,0.390272,-9.683607,-0.184126,-0.205066,0.082974,0.124298,0.183721,42.075782,17.616298,-2.673421,4.63583E+18,-0.45576,-0.532367,-0.465404,0.540617,0
-9.811457,-0.885823,2.108436,0.016147,0.180229,-0.121264,45.415433,-1.159853,9.108296,4.63583E+18,0.788495,-0.046341,0.610262,0.060898,-9.7656,0.420192,-1.140107,-0.031932,-0.17096,-0.002558,39.992741,-19.568468,13.172747,4.63582E+18,0.573922,-0.356956,0.624974,0.390646,-9.743967,-0.010425,-0.010763,0.048852,0.106933,0.178959,42.024494,17.515165,-2.66435,4.63583E+18,-0.455774,-0.533046,-0.465115,0.540185,0
-9.694714,-0.934649,2.085744,0.031716,0.172876,-0.147062,45.216221,-1.084737,9.219719,4.63583E+18,0.788065,-0.046663,0.61085,0.06032,-9.719342,0.409912,-1.113123,-0.024792,-0.177762,-0.00149,39.88962,-19.568468,13.002812,4.63582E+18,0.574321,-0.356693,0.624526,0.391014,-9.829412,0.045692,0.293716,0.029204,0.092225,0.174932,41.951256,17.49321,-2.525166,4.63583E+18,-0.45585,-0.533646,-0.464851,0.539755,0
-9.537728,-0.980037,2.075258,0.046041,0.181847,-0.166153,45.204165,-1.051861,9.39955,4.63583E+18,0.787619,-0.04699,0.611467,0.059643,-9.690109,0.457132,-1.08389,-0.020464,-0.184621,-0.003008,39.663464,-19.620186,12.905156,4.63582E+18,0.574748,-0.356412,0.624067,0.391377,-9.733471,-0.13256,0.587028,0.054998,0.095798,0.167759,41.93243,17.429723,-2.405547,4.63583E+18,-0.455847,-0.534289,-0.464551,0.53938,0
-9.398148,-0.994127,2.059778,0.070439,0.201293,-0.176395,45.118731,-0.881154,9.443704,4.63583E+18,0.78713,-0.047266,0.61215,0.058863,-9.65831,0.522664,-1.000383,-0.015798,-0.187994,-0.001687,39.696845,-19.653919,12.866603,4.63582E+18,0.575188,-0.356111,0.623608,0.391736,-9.68361,-0.18625,0.758952,0.115147,0.102237,0.153661,41.751062,17.580057,-2.307896,4.63583E+18,-0.455665,-0.535034,-0.464158,0.539134,0
-9.30048,-0.94013,1.963671,0.099748,0.190144,-0.177915,45.045319,-0.693782,9.26714,4.63583E+18,0.786675,-0.047443,0.612803,0.058,-9.643848,0.544513,-0.907855,-0.009137,-0.187994,0.001939,39.759514,-19.557887,12.866603,4.63582E+18,0.575632,-0.355784,0.623165,0.392085,-9.762073,0.31557,0.902284,0.153871,0.102817,0.12812,41.216802,17.975174,-2.273717,4.63583E+18,-0.455339,-0.535803,-0.463736,0.539009,0
-9.197672,-0.856407,1.941146,0.124478,0.184775,-0.181435,45.081435,-0.8645,9.332661,4.63583E+18,0.786233,-0.047609,0.613437,0.057142,-9.643848,0.519782,-0.805056,-0.010512,-0.187348,0.000619,39.663472,-19.495224,12.807501,4.63582E+18,0.576074,-0.355465,0.62272,0.392434,-9.853811,0.823799,1.021579,0.140661,0.096988,0.097692,40.572913,18.372468,-2.261509,4.63583E+18,-0.454985,-0.536475,-0.4634,0.538929,0
-9.080588,-0.793481,1.853974,0.144607,0.190897,-0.179464,45.301674,-1.039855,9.680302,4.63583E+18,0.785783,-0.047659,0.614099,0.056177,-9.65862,0.552205,-0.779017,-0.010655,-0.181756,-0.0043,39.748534,-19.591241,12.717242,4.63582E+18,0.576509,-0.355168,0.622279,0.392762,-9.748852,0.894635,1.077037,0.104958,0.099032,0.06513,40.460906,18.4154,-2.330905,4.63583E+18,-0.454634,-0.53702,-0.46322,0.538837,0
-9.070101,-0.791761,1.761474,0.169942,0.188159,-0.170783,45.265557,-0.783668,9.724478,4.63583E+18,0.785342,-0.047599,0.614759,0.055171,-9.660878,0.637655,-0.756553,-0.008545,-0.175796,-0.006409,39.896664,-19.653919,12.683492,4.63582E+18,0.576935,-0.354882,0.621852,0.39307,-9.623287,0.761068,0.986727,0.076819,0.105166,0.036779,40.71548,18.342158,-2.356029,4.63583E+18,-0.45427,-0.537471,-0.463178,0.53873,0
-9.076979,-0.765797,1.717635,0.191184,0.182352,-0.153106,45.045319,-0.512541,9.534152,4.63583E+18,0.784915,-0.047421,0.615407,0.054166,-9.64867,0.531068,-0.688127,-0.011777,-0.168938,-0.00447,39.878712,-19.602216,12.735196,4.63582E+18,0.577335,-0.354609,0.62144,0.393381,-9.61315,0.665844,0.870588,0.054633,0.105228,0.008491,40.615833,18.731259,-2.29257,4.63583E+18,-0.453893,-0.537826,-0.463248,0.538633,0
-9.137832,-0.645631,1.778665,0.197908,0.183374,-0.125487,45.057347,-0.608294,9.501979,4.63583E+18,0.784479,-0.047156,0.616064,0.053238,-9.614307,0.432081,-0.644429,-0.014532,-0.159101,-0.00062,39.844963,-19.568468,12.717246,4.63582E+18,0.5777,-0.354349,0.621051,0.393694,-9.719162,0.674191,0.815112,0.022956,0.099125,-0.014798,40.308206,19.0993,-2.261511,4.63583E+18,-0.453546,-0.538062,-0.46343,0.538533,0
-9.287576,-0.486578,1.825956,0.200044,0.200812,-0.099986,45.13249,-0.720597,9.806979,4.63583E+18,0.783992,-0.046825,0.616782,0.05239,-9.624558,0.405105,-0.686479,-0.016246,-0.15682,-0.002163,39.896657,-19.66447,12.624413,4.63582E+18,0.578058,-0.354101,0.620663,0.394004,-9.762781,0.629222,0.796623,-0.017843,0.096408,-0.032986,40.413767,18.833343,-2.25837,4.63583E+18,-0.453256,-0.53818,-0.463738,0.538395,0
-9.531698,-0.470938,1.784187,0.200678,0.200061,-0.083332,45.13096,-0.53941,10.116693,4.63583E+18,0.783502,-0.046446,0.617499,0.051589,-9.651234,0.567872,-0.742391,-0.016444,-0.158732,-0.002334,40.026418,-19.682855,12.585833,4.63582E+18,0.578422,-0.353851,0.620269,0.394316,-9.774987,0.420003,0.793481,-0.052636,0.094547,-0.042938,40.787963,18.369476,-2.194914,4.63583E+18,-0.453024,-0.538208,-0.464143,0.538212,0
-9.770695,-0.434316,1.736696,0.19033,0.196072,-0.076756,45.045507,-0.30728,10.008543,4.63583E+18,0.783019,-0.046081,0.618202,0.050833,-9.66344,0.646695,-0.742091,-0.021191,-0.153985,-0.004945,40.133416,-19.550544,12.46769,4.63582E+18,0.57877,-0.353626,0.619874,0.394626,-9.750934,0.218038,0.711895,-0.071196,0.09717,-0.044862,40.831346,18.304459,-2.172918,4.63583E+18,-0.452826,-0.538204,-0.464599,0.53799,0
-9.969637,-0.392543,1.834544,0.167765,0.200795,-0.077341,44.972073,-0.158885,9.922902,4.63583E+18,0.782519,-0.04579,0.618914,0.05013,-9.719947,0.593044,-0.739828,-0.023921,-0.160299,-0.008769,40.16974,-19.483015,12.279764,4.63582E+18,0.579137,-0.353408,0.619453,0.394944,-9.732444,-0.046632,0.665487,-0.068426,0.097476,-0.045655,40.510238,18.549913,-2.163854,4.63583E+18,-0.452618,-0.538204,-0.46505,0.537775,0
-10.11269,-0.336467,1.869259,0.13921,0.209774,-0.090425,44.960056,-0.107769,9.914128,4.63583E+18,0.781993,-0.045621,0.619646,0.049446,-9.679882,0.625431,-0.641285,-0.030606,-0.154356,-0.006383,40.174564,-19.578999,12.207403,4.63582E+18,0.579475,-0.353209,0.619039,0.395275,-9.819937,-0.103947,0.650136,-0.052743,0.094822,-0.041172,40.343059,18.68288,-2.16071,4.63583E+18,-0.452392,-0.538235,-0.46545,0.537588,0
-10.219312,-0.40073,1.953184,0.118767,0.222978,-0.116693,44.898631,-0.23214,9.950351,4.63583E+18,0.781433,-0.045588,0.620411,0.048726,-9.675931,0.622292,-0.58113,-0.037832,-0.145044,-0.006856,40.174564,-19.693383,12.266456,4.63582E+18,0.579779,-0.353045,0.618635,0.39561,-9.887629,-0.043277,0.619801,-0.045687,0.09479,-0.037142,40.629215,18.42077,-1.952247,4.63583E+18,-0.452158,-0.538288,-0.465825,0.537407,0
-10.204072,-0.555996,1.951469,0.097554,0.21024,-0.134084,44.984081,-0.126103,10.160909,4.63583E+18,0.780895,-0.045797,0.621117,0.048168,-9.771317,0.502206,-0.585955,-0.03823,-0.142908,-0.007899,40.174564,-19.675495,12.305062,4.63582E+18,0.580079,-0.352887,0.618233,0.395939,-9.873016,-0.069728,0.61037,-0.048827,0.093479,-0.031559,40.86298,18.205499,-1.816502,4.63583E+18,-0.451947,-0.538343,-0.466191,0.537212,0
-10.008962,-0.685127,1.932402,0.07846,0.222325,-0.151659,45.057526,0.052664,10.5136,4.63583E+18,0.780334,-0.045997,0.621862,0.04745,-9.770466,0.5428,-0.615479,-0.029635,-0.140126,-0.00231,40.218851,-19.545759,12.246015,4.63582E+18,0.580375,-0.352699,0.617859,0.396256,-9.791084,-0.103576,0.592246,-0.043859,0.095308,-0.021186,40.653268,18.626786,-1.866986,4.63583E+18,-0.451745,-0.538431,-0.466526,0.537003,0
-9.743875,-0.781055,1.878227,0.066863,0.222194,-0.158685,45.03526,-0.107499,10.68319,4.63583E+18,0.779771,-0.046258,0.622601,0.046746,-9.741508,0.61037,-0.686448,-0.023276,-0.138859,0.000422,40.203527,-19.483015,12.14836,4.63582E+18,0.580672,-0.35249,0.617503,0.396561,-9.756861,-0.227675,0.567831,-0.030557,0.094547,-0.011022,40.438332,19.131556,-1.892148,4.63583E+18,-0.451537,-0.538562,-0.466807,0.536802,0
-9.504844,-0.8768,1.872875,0.05798,0.219215,-0.163258,44.886832,-0.283113,10.691971,4.63583E+18,0.779214,-0.046566,0.623326,0.046057,-9.734128,0.529195,-0.720237,-0.01662,-0.141442,0,40.026974,-19.534672,12.16878,4.63582E+18,0.580987,-0.352263,0.617151,0.396851,-9.762775,-0.259503,0.552481,-0.006885,0.091619,-0.000618,41.001316,18.508157,-1.892148,4.63583E+18,-0.451306,-0.538751,-0.467005,0.536635,0
-9.311032,-1.025211,1.882076,0.061466,0.229237,-0.167268,44.813377,-0.040683,10.693474,4.63583E+18,0.778632,-0.046872,0.624083,0.045341,-9.714544,0.520357,-0.66859,-0.005716,-0.140549,0.003873,39.886147,-19.620114,12.148379,4.63582E+18,0.581309,-0.352,0.616824,0.39712,-9.756863,-0.183873,0.504032,0.005549,0.091585,0.008479,42.000442,17.398398,-1.828725,4.63583E+18,-0.451067,-0.538981,-0.467154,0.536474,0
-9.211452,-1.108941,1.743946,0.072765,0.167884,-0.157636,44.813377,0.160409,10.79433,4.63583E+18,0.778209,-0.047103,0.624644,0.044635,-9.69013,0.490313,-0.62003,-0.001068,-0.137568,0.005118,39.953079,-19.602277,11.932685,4.63582E+18,0.581628,-0.351728,0.616514,0.397376,-9.726534,-0.185878,0.497357,0.007477,0.091861,0.017024,42.337662,17.111632,-1.815756,4.63583E+18,-0.450843,-0.539232,-0.46728,0.536301,0
-9.185104,-1.159925,1.740301,0.08116,0.21578,-0.153982,44.825364,0.158917,10.975946,4.63583E+18,0.777662,-0.047308,0.625361,0.043911,-9.687848,0.451674,-0.617748,-0.003005,-0.137368,0.003627,40.111776,-19.56109,11.647085,4.63582E+18,0.581946,-0.351464,0.616198,0.397632,-9.689914,-0.186259,0.527682,0.015404,0.095824,0.024776,41.87047,17.567759,-1.88232,4.63583E+18,-0.450611,-0.539521,-0.467378,0.53612,0
-9.211457,-1.060796,1.76004,0.088935,0.250768,-0.145479,44.886854,0.119669,11.071883,4.63583E+18,0.777022,-0.047474,0.626193,0.04319,-9.663168,0.481184,-0.659465,-0.004273,-0.140373,0.001268,40.226207,-19.556259,11.535996,4.63582E+18,0.582274,-0.351205,0.615869,0.397891,-9.743878,-0.020064,0.537126,0.017366,0.095616,0.028289,40.92149,18.286754,-1.886239,4.63583E+18,-0.450384,-0.539821,-0.467463,0.535936,0
-9.193642,-0.891382,1.642388,0.098398,0.183721,-0.12681,44.803121,0.365497,11.157325,4.63583E+18,0.776555,-0.047547,0.626812,0.042514,-9.629095,0.566893,-0.683615,-0.002982,-0.145291,-0.002582,40.260017,-19.556259,11.595009,4.63582E+18,0.582623,-0.350944,0.615525,0.398143,-9.820262,0.081906,0.555239,0.018675,0.091895,0.031217,40.052911,18.989182,-1.807487,4.63583E+18,-0.450167,-0.54012,-0.46753,0.535757,0
-9.293001,-0.805938,1.757866,0.106644,0.19,-0.124375,44.738423,0.584247,11.203478,4.63583E+18,0.776073,-0.047584,0.627453,0.041818,-9.619433,0.662002,-0.676239,-0.009236,-0.14805,-0.006209,40.208385,-19.607892,11.751672,4.63582E+18,0.582976,-0.350704,0.615157,0.398406,-9.712379,-0.00196,0.552484,0.030321,0.092377,0.034422,40.026089,19.047892,-1.709831,4.63583E+18,-0.449931,-0.540448,-0.467565,0.535595,0
-9.385784,-0.71535,1.744191,0.112903,0.223648,-0.119654,44.727924,0.561782,10.982502,4.63583E+18,0.775502,-0.047598,0.628204,0.041119,-9.656309,0.607321,-0.627156,-0.015822,-0.151054,-0.011349,40.27044,-19.590086,11.887975,4.63582E+18,0.583335,-0.350487,0.614764,0.398678,-9.650151,-0.009453,0.531221,0.04369,0.092136,0.036041,40.695885,18.499774,-1.693678,4.63583E+18,-0.449669,-0.540804,-0.467565,0.535455,0
-9.38041,-0.608662,1.673872,0.116002,0.194232,-0.112775,44.705719,0.490004,10.698059,4.63583E+18,0.775008,-0.047563,0.628861,0.040418,-9.702595,0.578831,-0.605537,-0.0158,-0.15339,-0.017758,40.480751,-19.504638,11.867637,4.63582E+18,0.583711,-0.350284,0.614355,0.398937,-9.661959,0.01811,0.552084,0.054129,0.090276,0.034732,41.024726,18.386699,-1.633443,4.63583E+18,-0.449384,-0.541172,-0.467541,0.535343,0
-9.420449,-0.603287,1.768115,0.106366,0.198398,-0.108375,44.55898,0.522709,10.989328,4.63583E+18,0.7745,-0.047548,0.62953,0.039755,-9.724467,0.664526,-0.617744,-0.018825,-0.157039,-0.024166,40.533167,-19.522423,11.710995,4.63582E+18,0.584103,-0.350097,0.613922,0.399193,-9.713538,0.133073,0.543431,0.056612,0.090517,0.032596,40.947992,18.580806,-1.4665,4.63583E+18,-0.449089,-0.541541,-0.467516,0.535239,0
-9.478068,-0.633077,1.827695,0.102266,0.188785,-0.097672,44.518184,0.648953,11.230811,4.63583E+18,0.774014,-0.047517,0.630169,0.039139,-9.773539,0.708029,-0.615204,-0.020718,-0.157864,-0.030575,40.305092,-19.556259,11.515686,4.63582E+18,0.584505,-0.349931,0.613474,0.39944,-9.792685,0.189013,0.56429,0.04552,0.087623,0.032837,40.970391,18.522992,-1.416059,4.63583E+18,-0.448826,-0.541884,-0.46751,0.535119,0
-9.516389,-0.634515,1.799874,0.092057,0.180368,-0.092206,44.678558,0.574018,11.271741,4.63583E+18,0.773533,-0.047724,0.630762,0.038841,-9.780428,0.678541,-0.588254,-0.02094,-0.158953,-0.036338,40.122958,-19.460421,11.438337,4.63582E+18,0.584918,-0.349778,0.613015,0.399674,-9.769478,0.050441,0.619022,0.044035,0.088105,0.033113,40.983404,18.482008,-1.560936,4.63583E+18,-0.448566,-0.542225,-0.467506,0.534994,0
-9.554983,-0.713149,1.757866,0.078618,0.180793,-0.080283,44.813638,0.51245,11.563042,4.63583E+18,0.773058,-0.047748,0.631371,0.038375,-9.72906,0.651827,-0.514768,-0.019428,-0.157642,-0.040389,40.243934,-19.390192,11.320377,4.63582E+18,0.585338,-0.349633,0.612554,0.399892,-9.699393,-0.081484,0.571409,0.057537,0.090241,0.03232,40.916877,18.482008,-1.674754,4.63583E+18,-0.44827,-0.542594,-0.467478,0.534893,0
-9.542514,-0.742945,1.749335,0.068683,0.186375,-0.07268,44.71795,0.62008,11.777259,4.63583E+18,0.772565,-0.047784,0.631997,0.037956,-9.734378,0.624873,-0.424477,-0.012997,-0.154014,-0.042303,40.492928,-19.436968,11.132422,4.63582E+18,0.58576,-0.349484,0.612111,0.400083,-9.725737,-0.019333,0.48596,0.071459,0.091585,0.032044,40.903855,18.364315,-1.624402,4.63583E+18,-0.447939,-0.542992,-0.467421,0.534816,0
-9.612059,-0.73074,1.686605,0.062896,0.171177,-0.060114,44.569508,0.842031,11.607537,4.63583E+18,0.772108,-0.0478,0.632575,0.037591,-9.738973,0.521914,-0.339038,-0.006388,-0.14694,-0.038211,40.493788,-19.470808,11.059907,4.63582E+18,0.586167,-0.34932,0.611701,0.400257,-9.786774,0.148008,0.518202,0.071602,0.088692,0.028084,40.907009,18.323313,-1.59917,4.63583E+18,-0.447605,-0.543375,-0.467367,0.534753,0
-9.734145,-0.720237,1.626995,0.054798,0.184223,-0.064489,44.495983,0.915555,11.624317,4.63583E+18,0.771618,-0.047836,0.633193,0.037207,-9.71456,0.441771,-0.312555,-0.000403,-0.141197,-0.032024,40.276147,-19.374997,11.170459,4.63582E+18,0.586559,-0.349136,0.611323,0.400421,-9.820649,0.267737,0.528073,0.055448,0.082836,0.024327,40.907009,18.386678,-1.59917,4.63583E+18,-0.447311,-0.543708,-0.467346,0.534679,0
-9.835757,-0.701484,1.639475,0.049457,0.20811,-0.079813,44.485755,0.915555,11.819628,4.63583E+18,0.771065,-0.047933,0.633884,0.036781,-9.675405,0.405149,-0.324763,0.002136,-0.136058,-0.031198,40.277746,-19.407924,11.250389,4.63582E+18,0.586939,-0.348951,0.610963,0.400574,-9.808856,0.265822,0.470607,0.03357,0.078803,0.019539,40.916061,18.463075,-1.318561,4.63583E+18,-0.447064,-0.543982,-0.467377,0.53458,0
-9.818157,-0.579145,1.590367,0.04233,0.174853,-0.079762,44.432955,0.927473,11.97405,4.63583E+18,0.770598,-0.048047,0.634466,0.036381,-9.656056,0.486437,-0.359077,0.002136,-0.133518,-0.0314,40.441269,-19.573978,11.31418,4.63582E+18,0.587313,-0.348772,0.610609,0.400722,-9.775389,0.165836,0.43357,0.019851,0.074015,0.017366,40.919216,18.482008,-1.084962,4.63583E+18,-0.446853,-0.544215,-0.467434,0.53447,0
-9.835759,-0.543941,1.609674,0.024617,0.181238,-0.091985,44.507909,1.001007,11.890011,4.63583E+18,0.770099,-0.048485,0.635044,0.036269,-9.685534,0.541964,-0.459495,0.000847,-0.130939,-0.0342,40.504166,-19.641712,11.411842,4.63582E+18,0.587683,-0.348607,0.610255,0.400862,-9.747821,0.052824,0.400107,0.01709,0.072634,0.016298,40.85586,18.482008,-1.245798,4.63583E+18,-0.446649,-0.544437,-0.467496,0.534359,0
-9.797719,-0.584252,1.595763,0.01011,0.189584,-0.09904,44.581436,0.989084,11.903637,4.63583E+18,0.769588,-0.048781,0.635661,0.035918,-9.749106,0.566606,-0.520081,0.001935,-0.133115,-0.036962,40.555755,-19.53853,11.391583,4.63582E+18,0.588066,-0.348443,0.609892,0.400996,-9.732457,0.042516,0.381586,0.018674,0.07105,0.017606,40.888067,18.364353,-1.52656,4.63583E+18,-0.446448,-0.544662,-0.467549,0.534253,0
-9.685874,-0.590758,1.578157,-0.003423,0.171998,-0.096457,44.559323,0.917256,12.014886,4.63583E+18,0.769119,-0.049114,0.636219,0.035616,-9.800235,0.578587,-0.51755,0.006428,-0.136944,-0.035451,40.633826,-19.470808,11.293938,4.63582E+18,0.588462,-0.348257,0.60953,0.401127,-9.711199,0.012628,0.432732,0.020019,0.068914,0.019742,40.907009,18.205656,-1.59917,4.63583E+18,-0.446253,-0.544888,-0.467589,0.53415,0
-9.638742,-0.712845,1.602574,-0.026951,0.16452,-0.09052,44.432954,0.949892,12.194904,4.63583E+18,0.768665,-0.049505,0.63675,0.035398,-9.770544,0.522171,-0.446398,0.011124,-0.135857,-0.034825,40.714438,-19.470808,11.08576,4.63582E+18,0.588861,-0.34806,0.609179,0.401246,-9.704885,0.045247,0.478822,0.019503,0.070737,0.021878,40.861761,18.164616,-1.391035,4.63583E+18,-0.44606,-0.545122,-0.467629,0.534038,0
-9.615737,-0.833215,1.632095,-0.0427,0.158533,-0.080758,44.507898,1.110288,12.266738,4.63583E+18,0.768221,-0.049918,0.637261,0.03525,-9.748877,0.503033,-0.380738,0.013463,-0.131363,-0.030091,40.652519,-19.470808,10.856556,4.63582E+18,0.589244,-0.347853,0.608849,0.401364,-9.75013,0.160576,0.560688,0.011309,0.073149,0.021639,40.909314,18.227959,-1.173616,4.63583E+18,-0.445881,-0.545345,-0.467691,0.533904,0
-9.666563,-0.919259,1.672716,-0.051665,0.157719,-0.067994,44.56953,1.257362,12.242627,4.63583E+18,0.767776,-0.050324,0.63777,0.035165,-9.731612,0.424297,-0.336751,0.018399,-0.122154,-0.020902,40.493834,-19.470808,10.830711,4.63582E+18,0.589595,-0.347627,0.608563,0.401478,-9.774971,0.213416,0.558808,0.002211,0.074494,0.023738,41.094305,18.313411,-1.204522,4.63583E+18,-0.445726,-0.545558,-0.467771,0.533747,0
-9.649253,-0.849718,1.600871,-0.06774,0.133125,-0.044442,44.473873,1.233551,12.173881,4.63583E+18,0.767389,-0.050717,0.638202,0.035204,-9.687628,0.322024,-0.310026,0.028453,-0.112984,-0.01,40.43092,-19.470808,10.923519,4.63582E+18,0.58992,-0.347363,0.608331,0.40158,-9.723842,0.183542,0.449806,-0.000792,0.073187,0.023776,41.033533,18.389807,-1.368666,4.63583E+18,-0.44558,-0.545762,-0.467855,0.533586,0
-9.605526,-0.742951,1.624982,-0.071391,0.123746,-0.035398,44.327085,1.08816,12.309255,4.63583E+18,0.767026,-0.051073,0.638607,0.035256,-9.63143,0.300344,-0.312552,0.038269,-0.106152,-0.000829,40.43092,-19.470808,10.903315,4.63582E+18,0.590226,-0.347063,0.608146,0.40167,-9.713933,0.179951,0.396957,-0.002651,0.072634,0.024291,40.983411,18.463049,-1.488439,4.63583E+18,-0.44544,-0.545963,-0.46794,0.533422,0
-9.584824,-0.732444,1.695443,-0.077501,0.160574,-0.034533,44.275939,1.11056,12.586905,4.63583E+18,0.766564,-0.051452,0.639129,0.035318,-9.621964,0.34203,-0.310024,0.043592,-0.098452,0.008584,40.423551,-19.367642,10.746685,4.63582E+18,0.590505,-0.346739,0.608002,0.401757,-9.744236,0.246444,0.372542,-0.009538,0.071051,0.022984,41.052632,18.373438,-1.441338,4.63583E+18,-0.445317,-0.546145,-0.46804,0.533251,0
-9.52517,-0.742631,1.594399,-0.082368,0.144787,-0.022756,44.371568,1.172233,12.717363,4.63583E+18,0.76613,-0.05199,0.639586,0.035647,-9.624271,0.425183,-0.305185,0.042283,-0.087327,0.015397,40.521894,-19.248313,10.617679,4.63582E+18,0.590742,-0.34642,0.607893,0.401849,-9.69039,0.241424,0.339083,-0.018082,0.072081,0.022431,41.141237,18.154591,-1.207991,4.63583E+18,-0.445211,-0.546312,-0.468162,0.533061,0
-9.541096,-0.820968,1.482513,-0.090022,0.110161,-0.017267,44.484426,1.108852,12.510164,4.63583E+18,0.765795,-0.052384,0.639945,0.035842,-9.626804,0.471251,-0.312555,0.04059,-0.078378,0.02096,40.685428,-19.266043,10.64278,4.63582E+18,0.590945,-0.346106,0.607811,0.401945,-9.650171,0.177664,0.320554,-0.024252,0.071843,0.02164,41.054812,18.091372,-0.990552,4.63583E+18,-0.445117,-0.546466,-0.468299,0.532862,0
-9.507871,-0.918948,1.44217,-0.092009,0.077826,-0.011156,44.257557,1.229589,12.293886,4.63583E+18,0.765546,-0.052735,0.640203,0.036034,-9.64638,0.46135,-0.324762,0.044458,-0.06939,0.026078,40.696728,-19.299904,10.792017,4.63582E+18,0.591123,-0.345785,0.607764,0.402031,-9.625758,0.013977,0.380707,-0.023261,0.077897,0.024529,40.953561,18.208957,-0.93997,4.63583E+18,-0.445017,-0.54664,-0.468438,0.532645,0
-9.507539,-0.948452,1.45777,-0.092335,0.075274,-0.006586,43.719435,1.632765,12.463426,4.63583E+18,0.765303,-0.053075,0.640454,0.036243,-9.656056,0.436935,-0.3296,0.056671,-0.058064,0.03551,40.618643,-19.351492,10.754045,4.63582E+18,0.591273,-0.34543,0.60778,0.402092,-9.637523,-0.108979,0.439023,-0.001063,0.082485,0.031967,40.931423,18.250069,-1.075639,4.63583E+18,-0.444873,-0.54688,-0.468518,0.532447,0
-9.58587,-1.004399,1.485911,-0.086875,0.059517,-0.000326,43.422401,1.940309,12.535307,4.63583E+18,0.765089,-0.053611,0.640636,0.036736,-9.641318,0.360936,-0.307492,0.070758,-0.049539,0.043814,40.589615,-19.481157,10.511984,4.63582E+18,0.591409,-0.345032,0.607851,0.402126,-9.707161,-0.107148,0.451674,0.036482,0.08015,0.034972,40.86811,18.250069,-1.050724,4.63583E+18,-0.444656,-0.547191,-0.468504,0.532323,0
-9.710976,-1.032201,1.485225,-0.075097,0.031685,0.003679,43.207456,2.133224,12.536659,4.63583E+18,0.76496,-0.053938,0.640746,0.037031,-9.624272,0.295286,-0.292978,0.081641,-0.043775,0.051733,40.589615,-19.49984,10.511238,4.63582E+18,0.591532,-0.344598,0.607966,0.402143,-9.756434,0.028965,0.388362,0.051747,0.080626,0.035249,40.791704,18.304336,-0.889753,4.63583E+18,-0.444403,-0.547531,-0.468456,0.532226,0
-9.903591,-1.072558,1.602909,-0.069016,0.074357,0.000593,42.763237,2.462795,12.595004,4.63583E+18,0.764719,-0.054261,0.640991,0.03729,-9.64154,0.383932,-0.307715,0.087386,-0.039723,0.056188,40.589615,-19.419228,10.642768,4.63582E+18,0.591646,-0.344145,0.608106,0.402151,-9.793053,0.19081,0.384309,0.043912,0.079597,0.032875,40.772728,18.323313,-0.842311,4.63583E+18,-0.444166,-0.547849,-0.468428,0.532121,0
-9.919535,-1.055265,1.552035,-0.05863,0.060857,0.002938,42.661801,2.734803,12.500381,4.63583E+18,0.764517,-0.054543,0.641195,0.037532,-9.685527,0.495881,-0.346864,0.08092,-0.039098,0.051454,40.685398,-19.333782,10.681478,4.63582E+18,0.591758,-0.343721,0.60823,0.402162,-9.820631,0.25907,0.390637,0.025555,0.078252,0.030462,40.826985,18.323313,-0.977958,4.63583E+18,-0.443968,-0.548126,-0.468443,0.531988,0
-9.881224,-1.016601,1.57948,-0.049789,0.03344,-0.006674,42.933791,2.649361,12.502074,4.63583E+18,0.764391,-0.054819,0.64131,0.037726,-9.756456,0.650161,-0.380957,0.069392,-0.042745,0.042265,40.799883,-19.395678,10.62254,4.63582E+18,0.591877,-0.343344,0.608313,0.402184,-9.82696,0.23239,0.372551,0.005261,0.074018,0.029908,40.90023,18.323313,-1.097767,4.63583E+18,-0.443824,-0.548355,-0.468496,0.531825,0
-9.815476,-1.042706,1.686314,-0.039257,0.02884,-0.016287,42.861884,2.553763,12.539664,4.63583E+18,0.764281,-0.055088,0.641409,0.037862,-9.790338,0.784015,-0.43484,0.057421,-0.047441,0.034586,40.73799,-19.561742,10.642756,4.63582E+18,0.592005,-0.343007,0.608352,0.402224,-9.836,0.056996,0.321017,-0.001582,0.070261,0.03149,40.928257,18.323313,-1.059794,4.63583E+18,-0.443707,-0.548566,-0.468554,0.531655,0
-9.65641,-1.081025,1.683283,-0.02905,0.028099,-0.025901,43.007864,2.337482,12.723146,4.63583E+18,0.764178,-0.05535,0.641506,0.037942,-9.760872,0.766332,-0.404951,0.04396,-0.043978,0.027533,40.579306,-19.681069,10.622547,4.63582E+18,0.592116,-0.342727,0.608367,0.402276,-9.803006,-0.099442,0.259984,0.012102,0.067057,0.033626,40.931423,18.20579,-0.965308,4.63583E+18,-0.443569,-0.548798,-0.46857,0.531515,0
-9.579428,-1.138307,1.594094,-0.013686,0.022759,-0.034181,43.94035,1.740117,12.821157,4.63583E+18,0.764098,-0.055507,0.641592,0.037862,-9.734143,0.592512,-0.329398,0.039742,-0.037367,0.028434,40.612115,-19.560294,10.5249,4.63582E+18,0.592203,-0.342467,0.608393,0.402331,-9.781297,-0.08004,0.226068,0.030538,0.064643,0.037345,40.994705,17.992853,-1.003251,4.63583E+18,-0.443403,-0.549067,-0.468532,0.53141,0
-9.561778,-1.231257,1.557475,0.01088,0.018011,-0.034329,44.486214,1.064851,12.830353,4.63583E+18,0.76403,-0.055701,0.641656,0.037854,-9.692475,0.419487,-0.275724,0.043812,-0.026871,0.03871,40.76345,-19.259742,10.486159,4.63582E+18,0.592252,-0.342188,0.608465,0.402386,-9.841403,0.101667,0.219733,0.038413,0.059343,0.041617,41.080148,17.878441,-1.025422,4.63583E+18,-0.443239,-0.549347,-0.468456,0.531324,0
-9.596344,-1.219049,1.525925,0.033821,0.018274,-0.035101,44.337654,0.88835,12.743204,4.63583E+18,0.763971,-0.055748,0.641731,0.037691,-9.631439,0.314668,-0.241626,0.054308,-0.014919,0.054749,40.725813,-19.232109,10.603997,4.63582E+18,0.59226,-0.341863,0.608607,0.402436,-9.827427,0.258122,0.264927,0.040312,0.056098,0.037981,41.102325,17.913664,-0.889841,4.63583E+18,-0.443069,-0.549616,-0.468379,0.531256,0
-9.690606,-1.210222,1.510722,0.047375,0.024453,-0.034181,44.264046,1.120627,12.670903,4.63583E+18,0.7639,-0.055746,0.641828,0.037488,-9.585134,0.192399,-0.209848,0.078503,-0.006171,0.07484,40.57449,-19.454554,10.740392,4.63582E+18,0.592246,-0.341443,0.60884,0.402462,-9.769559,0.329133,0.271732,0.02319,0.05238,0.035526,41.039056,18.104411,-0.697691,4.63583E+18,-0.442941,-0.54984,-0.468337,0.531168,0
-9.760478,-1.237646,1.400844,0.066867,0.012653,-0.034477,44.230235,1.257362,12.758053,4.63583E+18,0.763865,-0.055679,0.641891,0.037231,-9.577968,0.134281,-0.151138,0.104967,0.001306,0.096201,40.464828,-19.600441,10.779137,4.63582E+18,0.592215,-0.340915,0.609166,0.402463,-9.690452,0.21528,0.358939,0.010764,0.05048,0.032086,40.962649,18.22788,-0.719293,4.63583E+18,-0.442837,-0.550031,-0.468327,0.531066,0
-9.802545,-1.354645,1.311263,0.094046,-0.019095,-0.036169,44.019897,1.247222,12.828667,4.63583E+18,0.763924,-0.055493,0.641858,0.036866,-9.604902,0.1711,-0.136801,0.124601,0.013937,0.118854,40.482466,-19.577958,10.720227,4.63582E+18,0.592141,-0.340303,0.609587,0.402451,-9.650189,0.044382,0.372562,0.019616,0.051784,0.03493,40.997855,18.132584,-0.81695,4.63583E+18,-0.442717,-0.550246,-0.468293,0.530973,0
-9.794106,-1.424891,1.359691,0.117688,-0.047668,-0.034363,44.05365,1.182431,12.731028,4.63583E+18,0.764064,-0.055224,0.641739,0.036449,-9.63416,0.32786,-0.220123,0.14298,0.026738,0.139131,40.560552,-19.595597,10.681478,4.63582E+18,0.592027,-0.339615,0.610099,0.402424,-9.707109,-0.009037,0.33911,0.033779,0.049967,0.037899,41.080135,18.037148,-0.842311,4.63583E+18,-0.442575,-0.550489,-0.468218,0.530906,0
-9.741508,-1.385285,1.473328,0.141518,-0.064714,-0.027806,44.274172,1.19554,12.658684,4.63583E+18,0.764242,-0.055065,0.641551,0.03624,-9.643848,0.43714,-0.268563,0.166071,0.038707,0.157288,40.596977,-19.681045,10.74038,4.63582E+18,0.591885,-0.338844,0.610704,0.402365,-9.828698,0.005865,0.320564,0.039757,0.047553,0.040035,41.219798,17.963911,-0.842311,4.63583E+18,-0.442429,-0.550742,-0.468119,0.530853,0
-9.744885,-1.247615,1.53437,0.159416,-0.062987,-0.021659,44.34911,1.354636,12.732322,4.63583E+18,0.764429,-0.054661,0.641388,0.035795,-9.665937,0.348594,-0.268563,0.193639,0.044438,0.176091,40.498743,-19.619239,10.889579,4.63582E+18,0.591735,-0.337967,0.611395,0.402274,-9.863582,-0.005864,0.272214,0.039008,0.04937,0.042171,41.143557,18.053312,-0.842311,4.63583E+18,-0.442286,-0.551002,-0.46802,0.530789,0
-9.76086,-1.104123,1.597088,0.169324,-0.069725,-0.025124,44.422741,1.428266,12.718821,4.63583E+18,0.764639,-0.0542,0.641206,0.035275,-9.702554,0.221882,-0.290646,0.210237,0.044862,0.194671,40.276338,-19.409039,11.131552,4.63582E+18,0.591576,-0.337002,0.61214,0.402185,-9.836474,0.023936,0.319606,0.0345,0.043878,0.045098,41.039077,18.145586,-0.914597,4.63583E+18,-0.442171,-0.551247,-0.467914,0.530724,0
-9.727613,-1.063732,1.658519,0.181664,-0.071861,-0.037316,44.410927,1.416453,12.622849,4.63583E+18,0.764859,-0.053735,0.641015,0.034685,-9.753892,0.212551,-0.408224,0.193022,0.040354,0.189644,40.181924,-19.51083,11.13262,4.63582E+18,0.591412,-0.336084,0.612837,0.402133,-9.82696,0.136004,0.278564,0.032322,0.042448,0.043559,41.016876,18.0562,-0.93997,4.63583E+18,-0.44206,-0.551481,-0.467814,0.530661,0
-9.713719,-1.087749,1.65981,0.198128,-0.074588,-0.052122,44.337288,1.331004,12.535713,4.63583E+18,0.765089,-0.053292,0.640812,0.034048,-9.807566,0.666122,-0.660064,0.170434,0.036097,0.162912,40.186771,-19.737379,11.001035,4.63582E+18,0.591271,-0.335283,0.613447,0.402078,-9.799857,0.170904,0.274424,0.028092,0.042726,0.040354,41.02591,17.900681,-0.795421,4.63583E+18,-0.441952,-0.551702,-0.46773,0.530595,0
-9.690993,-1.18539,1.741876,0.216614,-0.080848,-0.064973,44.337288,1.269157,12.451551,4.63583E+18,0.765342,-0.052826,0.640586,0.033325,-9.885827,1.195006,-0.722406,0.134877,0.039112,0.133868,40.14262,-19.800407,11.021115,4.63582E+18,0.591122,-0.334649,0.613964,0.402037,-9.808406,0.134766,0.307873,0.029866,0.041145,0.041102,40.920672,17.850396,-0.600102,4.63583E+18,-0.441845,-0.551925,-0.467637,0.530535,0
-9.673728,-1.271256,1.794488,0.230354,-0.084862,-0.070498,44.337288,1.352929,12.438065,4.63583E+18,0.765609,-0.052331,0.640348,0.032548,-9.990845,1.207853,-0.580597,0.08703,0.041014,0.114467,40.157677,-19.800407,11.00104,4.63582E+18,0.590933,-0.334185,0.614378,0.402068,-9.832819,0.230473,0.28126,0.024653,0.037428,0.040077,40.990994,17.973689,-0.621599,4.63583E+18,-0.441756,-0.552127,-0.467552,0.530474,0
-9.621543,-1.300291,1.792805,0.243463,-0.077645,-0.069761,44.325507,1.439621,12.352209,4.63583E+18,0.765861,-0.051753,0.640137,0.031687,-9.916751,0.94163,-0.490636,0.063854,0.042521,0.108951,40.19413,-19.903426,10.969607,4.63582E+18,0.590718,-0.333795,0.614748,0.402142,-9.839167,0.1963,0.268563,0.017689,0.031575,0.039521,41.083279,18.189752,-0.728288,4.63583E+18,-0.441693,-0.552302,-0.467472,0.530415,0
-9.55335,-1.429514,1.762097,0.260623,-0.05157,-0.064127,44.273704,1.575189,12.328229,4.63583E+18,0.766045,-0.051108,0.640011,0.030793,-9.736161,0.675595,-0.424586,0.072473,0.047013,0.108307,40.147475,-19.919809,11.143679,4.63582E+18,0.590504,-0.333393,0.615143,0.402186,-9.78497,-0.054918,0.32276,0.038153,0.029118,0.043473,41.102325,18.250069,-0.756859,4.63583E+18,-0.441597,-0.552517,-0.467333,0.530393,0
-9.531874,-1.513718,1.61896,0.291456,-0.02582,-0.056944,44.434099,1.513293,12.257491,4.63583E+18,0.766156,-0.050571,0.639955,0.030098,-9.67562,0.500178,-0.331781,0.094917,0.050422,0.116251,40.157668,-19.88586,11.255226,4.63582E+18,0.590299,-0.332922,0.615594,0.402187,-9.729796,-0.080091,0.242458,0.07359,0.030421,0.049604,41.048136,18.078464,-0.603319,4.63583E+18,-0.441431,-0.552812,-0.467104,0.530426,0
-9.596702,-1.512035,1.506986,0.319596,-0.021915,-0.052045,44.569655,1.610525,12.36693,4.63583E+18,0.766269,-0.049752,0.639928,0.029128,-9.673114,0.378104,-0.256193,0.117553,0.056421,0.132069,40.341268,-19.9815,11.144872,4.63582E+18,0.590084,-0.332364,0.616119,0.40216,-9.744188,0.083465,0.207526,0.088847,0.027025,0.051271,41.146491,17.900719,-0.558365,4.63583E+18,-0.44124,-0.55313,-0.46683,0.530494,0
-9.605545,-1.48133,1.453116,0.336685,-0.03484,-0.050939,44.484211,1.767957,12.497887,4.63583E+18,0.766419,-0.048872,0.639861,0.028116,-9.646198,0.307534,-0.254006,0.142131,0.066896,0.147226,40.39164,-20.051911,11.189798,4.63582E+18,0.58985,-0.331724,0.616732,0.402092,-9.771778,0.233627,0.288808,0.088422,0.027216,0.049691,41.305186,17.85943,-0.706043,4.63583E+18,-0.441046,-0.553445,-0.466562,0.530563,0
-9.598383,-1.336522,1.364301,0.355099,-0.054694,-0.057162,44.420624,1.83111,12.289115,4.63583E+18,0.766626,-0.047948,0.63973,0.027039,-9.624286,0.315042,-0.283273,0.170121,0.075427,0.161111,40.254706,-20.005279,11.377757,4.63582E+18,0.589609,-0.330994,0.617431,0.401973,-9.7691,0.376927,0.371574,0.070995,0.01829,0.049925,41.22908,17.922643,-0.684616,4.63583E+18,-0.440911,-0.553709,-0.466314,0.530618,0
-9.626159,-1.212334,1.271251,0.380478,-0.071489,-0.068765,44.473688,1.84288,12.063402,4.63583E+18,0.766882,-0.046975,0.639544,0.025864,-9.722411,0.425221,-0.315044,0.199606,0.081836,0.174354,40.186771,-19.919823,11.3917,4.63582E+18,0.58937,-0.330169,0.618212,0.401802,-9.711743,0.261543,0.327427,0.057256,0.013374,0.050993,41.133598,17.999063,-0.514721,4.63583E+18,-0.44082,-0.553938,-0.466085,0.530655,0
-9.676659,-1.149629,1.298568,0.395655,-0.084237,-0.077975,44.420608,1.950143,12.22846,4.63583E+18,0.767175,-0.045975,0.639315,0.024619,-9.760922,0.61331,-0.344307,0.221145,0.08374,0.183953,40.091173,-19.937336,11.235226,4.63582E+18,0.589139,-0.329268,0.619046,0.401596,-9.674618,0.063047,0.260035,0.065537,0.015188,0.056012,41.168713,18.018127,-0.60836,4.63583E+18,-0.440718,-0.554196,-0.465829,0.530696,0
-9.72762,-1.066295,1.403851,0.39886,-0.081404,-0.079004,44.483776,2.172472,12.193961,4.63583E+18,0.767459,-0.044965,0.639093,0.023358,-9.667973,0.791417,-0.354015,0.23395,0.084602,0.194004,39.983955,-20.07426,11.275222,4.63582E+18,0.588906,-0.328311,0.619917,0.401378,-9.740494,0.048323,0.253177,0.0797,0.010492,0.06242,41.124576,17.954926,-0.722402,4.63583E+18,-0.440606,-0.554482,-0.465518,0.530762,0
-9.713733,-0.93493,1.390411,0.402506,-0.069871,-0.084129,44.461935,2.246162,12.123185,4.63583E+18,0.767712,-0.043959,0.638905,0.022069,-9.619433,0.83981,-0.354015,0.251067,0.086095,0.207041,39.998955,-20.193694,11.529382,4.63582E+18,0.58867,-0.32728,0.620836,0.401146,-9.77495,0.042982,0.202191,0.095954,0.007755,0.067248,41.048163,17.878511,-0.672433,4.63583E+18,-0.440473,-0.554801,-0.465155,0.530858,0
-9.692678,-0.901669,1.304514,0.409208,-0.074397,-0.075251,44.31333,2.256234,12.207403,4.63583E+18,0.767977,-0.04287,0.638705,0.020745,-9.560608,0.660981,-0.309896,0.284653,0.08652,0.224143,40.035429,-20.271786,11.645863,4.63582E+18,0.588449,-0.326124,0.621834,0.400867,-9.787157,0.090784,0.174084,0.111464,0.008267,0.07468,41.09227,17.805269,-0.646992,4.63583E+18,-0.440319,-0.555165,-0.464741,0.530968,0
-9.694356,-0.88443,1.299017,0.417458,-0.08692,-0.071713,44.249693,2.342892,12.167142,4.63583E+18,0.768274,-0.041743,0.638464,0.019412,-9.53648,0.394929,-0.185187,0.341105,0.085233,0.253019,39.937348,-20.256796,11.528222,4.63582E+18,0.588258,-0.324751,0.62296,0.400513,-9.790338,0.245272,0.216039,0.111411,0.006176,0.075327,41.105506,18.011861,-0.719208,4.63583E+18,-0.440172,-0.555524,-0.464321,0.531082,0
-9.704885,-0.833918,1.342357,0.423427,-0.100246,-0.073515,44.324624,2.47856,11.914426,4.63583E+18,0.768606,-0.040601,0.638178,0.018059,-9.568244,0.204757,-0.077964,0.417618,0.080524,0.287622,39.773807,-20.279129,11.509358,4.63582E+18,0.588124,-0.323091,0.624246,0.400049,-9.80839,0.374211,0.268044,0.098173,0.00771,0.069242,41.102325,18.037216,-0.816859,4.63583E+18,-0.440039,-0.555851,-0.463946,0.531177,0
-9.696499,-0.776242,1.437865,0.425897,-0.128977,-0.080657,44.410068,2.383053,11.954683,4.63583E+18,0.769004,-0.039793,0.637776,0.017073,-9.619567,0.175893,-0.144394,0.502859,0.061251,0.310866,39.806248,-20.357226,11.776088,4.63582E+18,0.588112,-0.321129,0.625655,0.399444,-9.814753,0.384793,0.271745,0.077413,0.003017,0.068873,41.643858,17.332186,-0.914515,4.63583E+18,-0.439962,-0.556128,-0.46361,0.531244,0
-9.625397,-0.731233,1.583142,0.424348,-0.145643,-0.091967,44.483776,2.267968,12.193984,4.63583E+18,0.769453,-0.038742,0.637334,0.015724,-9.710001,0.371724,-0.310429,0.568149,0.03734,0.314667,39.920831,-20.386364,11.985435,4.63582E+18,0.588241,-0.318955,0.627115,0.398707,-9.814753,0.315258,0.196367,0.047877,0.001858,0.06943,42.078432,16.864753,-0.948995,4.63583E+18,-0.439958,-0.55635,-0.463335,0.531255,0
-9.487764,-0.620158,1.632438,0.424577,-0.133266,-0.100659,44.472036,2.416598,12.069492,4.63583E+18,0.769867,-0.037714,0.636927,0.014343,-9.761065,0.863128,-0.540122,0.593694,0.016621,0.300105,39.756391,-20.437811,12.024292,4.63582E+18,0.588477,-0.31672,0.628542,0.397892,-9.841825,0.067376,0.216024,0.038732,-0.001022,0.074957,41.731215,17.416865,-0.943153,4.63583E+18,-0.439993,-0.55656,-0.463062,0.531245,0
-9.347519,-0.44497,1.608025,0.411362,-0.125707,-0.109684,44.396651,2.500366,11.789952,4.63583E+18,0.770259,-0.036706,0.636543,0.01291,-9.743874,1.39751,-0.683741,0.597738,-0.002387,0.274241,39.382693,-20.530613,12.083089,4.63582E+18,0.588807,-0.314509,0.62989,0.397024,-9.950639,-0.093424,0.177796,0.04556,-0.011612,0.083223,41.704754,17.585554,-0.876802,4.63583E+18,-0.440051,-0.556774,-0.462735,0.531257,0
-9.321428,-0.402844,1.573555,0.388637,-0.131194,-0.115025,44.419638,2.585341,11.606365,4.63583E+18,0.77066,-0.035784,0.636137,0.011521,-9.744,1.63841,-0.68598,0.576941,-0.014758,0.240899,39.317932,-20.569475,12.232196,4.63582E+18,0.589194,-0.312414,0.631125,0.396142,-9.994679,-0.004775,0.095535,0.051225,-0.017323,0.090978,42.471158,16.826569,-0.863541,4.63583E+18,-0.440125,-0.557001,-0.462366,0.531279,0
-9.304915,-0.402844,1.492655,0.361871,-0.138043,-0.119339,44.630268,2.745711,11.523311,4.63583E+18,0.771069,-0.035198,0.635691,0.010478,-9.761065,1.598918,-0.649358,0.535261,-0.023303,0.20201,39.43253,-20.613573,12.363859,4.63582E+18,0.58961,-0.310508,0.632215,0.395282,-9.961773,0.072713,0.082267,0.044444,-0.028422,0.100034,42.789069,16.339881,-0.866726,4.63583E+18,-0.440256,-0.557209,-0.461971,0.531297,0
-9.41477,-0.402844,1.510369,0.322751,-0.147948,-0.116324,44.620221,2.881434,11.597034,4.63583E+18,0.771501,-0.034537,0.635221,0.009317,-9.78062,1.454806,-0.627436,0.472615,-0.023489,0.157565,39.422442,-20.642719,12.461511,4.63582E+18,0.590016,-0.308872,0.633141,0.394476,-9.903921,0.238836,0.157633,0.021131,-0.03915,0.107279,42.567752,16.485827,-0.929884,4.63583E+18,-0.440478,-0.557364,-0.46159,0.531281,0
-9.517939,-0.384426,1.49935,0.291671,-0.156474,-0.107779,44.555348,2.795982,11.585312,4.63583E+18,0.77195,-0.033956,0.634722,0.00827,-9.746249,1.531259,-0.65197,0.384129,-0.007861,0.104782,39.488817,-20.59863,12.559166,4.63582E+18,0.590352,-0.307617,0.633889,0.393752,-9.90604,0.392214,0.228219,-0.015321,-0.044026,0.11053,42.481762,16.565447,-1.02435,4.63583E+18,-0.440801,-0.557447,-0.461273,0.5312,0
-9.580648,-0.253497,1.572592,0.251314,-0.144139,-0.098795,44.544815,2.733969,11.511581,4.63583E+18,0.772359,-0.033485,0.634261,0.007361,-9.731788,1.763183,-0.752227,0.301938,-0.000861,0.057175,39.551987,-20.613559,12.598041,4.63582E+18,0.590641,-0.306701,0.634457,0.393118,-9.894371,0.328038,0.289248,-0.039053,-0.04723,0.117401,42.608045,16.394065,-0.977676,4.63583E+18,-0.441202,-0.557493,-0.460987,0.531069,0
-9.650535,-0.157025,1.620747,0.199863,-0.129875,-0.085731,44.534785,2.819405,11.50991,4.63583E+18,0.772721,-0.033145,0.633845,0.006628,-9.792928,1.782067,-0.739576,0.235523,-0.003422,0.018736,39.353649,-20.650065,12.539273,4.63582E+18,0.590915,-0.306046,0.634859,0.392568,-9.806809,0.067459,0.332247,-0.029586,-0.04412,0.131472,42.706791,16.216235,-0.952177,4.63583E+18,-0.441605,-0.55759,-0.460652,0.530922,0
-9.687657,-0.139793,1.520903,0.15202,-0.125205,-0.06451,44.469895,2.914916,11.47259,4.63583E+18,0.773065,-0.032852,0.633447,0.006026,-9.819615,1.667344,-0.681131,0.17829,0.000869,-0.011152,39.222385,-20.552093,12.559143,4.63582E+18,0.591152,-0.305618,0.63514,0.392089,-9.68793,-0.075348,0.287687,-0.002468,-0.03799,0.145126,42.49139,16.28305,-1.015318,4.63583E+18,-0.441964,-0.557776,-0.460237,0.530787,0
-9.644296,-0.10606,1.479223,0.092173,-0.107196,-0.044205,44.492964,3.063611,11.277174,4.63583E+18,0.773352,-0.0327,0.633108,0.005645,-9.770681,1.586858,-0.708133,0.142235,0.001059,-0.034217,39.413363,-20.337117,12.766981,4.63582E+18,0.591381,-0.30534,0.635333,0.391648,-9.719194,0.055675,0.295622,0.020336,-0.034739,0.153997,41.822239,16.655026,-0.884295,4.63583E+18,-0.442284,-0.558029,-0.459756,0.530672,0
-9.565568,-0.170448,1.411022,0.033098,-0.067226,-0.023325,44.715262,3.137303,11.133919,4.63583E+18,0.773523,-0.032927,0.632886,0.005778,-9.668073,1.364274,-0.688383,0.127952,-0.011349,-0.049151,39.583839,-20.18847,12.820063,4.63582E+18,0.59165,-0.305116,0.635452,0.391224,-9.750527,0.200053,0.314204,0.041418,-0.031024,0.159895,41.434667,16.890215,-0.830103,4.63583E+18,-0.442561,-0.558339,-0.459221,0.530578,0
-9.533982,-0.230717,1.366006,-0.022259,-0.051938,0.001977,44.755387,3.125551,11.320388,4.63583E+18,0.773648,-0.03307,0.632725,0.005898,-9.604747,1.064054,-0.622484,0.126258,-0.019444,-0.057263,39.517561,-20.205825,12.612257,4.63582E+18,0.59195,-0.304906,0.635537,0.390794,-9.744697,0.403287,0.218192,0.04542,-0.02833,0.155767,41.713582,16.877559,-0.983413,4.63583E+18,-0.442815,-0.558655,-0.458691,0.530492,0
-9.542375,-0.119631,1.273384,-0.084611,-0.041257,0.032178,44.511242,3.030029,11.460765,4.63583E+18,0.773735,-0.033338,0.632601,0.006281,-9.609706,0.966865,-0.598163,0.120041,-0.022223,-0.063029,39.410265,-20.283938,12.38288,4.63582E+18,0.59226,-0.304721,0.635598,0.390369,-9.741508,0.662258,0.183111,0.017247,-0.02935,0.149079,41.663444,16.912527,-1.100749,4.63583E+18,-0.443121,-0.558904,-0.458237,0.530367,0
-9.611793,0.043798,1.225772,-0.155289,-0.034246,0.063632,44.322472,2.881413,11.178347,4.63583E+18,0.773793,-0.033701,0.632504,0.006889,-9.663491,1.057364,-0.656906,0.07424,-0.026069,-0.084432,39.476542,-20.31312,12.422549,4.63582E+18,0.592556,-0.3047,0.635548,0.390018,-9.714454,0.804587,0.237218,-0.025663,-0.027541,0.130045,41.305241,17.039883,-1.041921,4.63583E+18,-0.443482,-0.559041,-0.457925,0.53019,0
-9.733867,0.015562,1.267427,-0.22118,-0.049241,0.091551,44.492909,2.807703,10.952464,4.63583E+18,0.773881,-0.034202,0.63236,0.007763,-9.677995,1.382507,-0.761895,0.002032,-0.016851,-0.11583,39.53978,-20.261729,12.500381,4.63582E+18,0.592788,-0.304956,0.635362,0.389768,-9.72292,0.857155,0.256355,-0.059477,-0.024337,0.11207,41.91234,16.69042,-1.031249,4.63583E+18,-0.443876,-0.559089,-0.457735,0.529975,0
-9.839167,0.046684,1.330607,-0.292262,-0.056465,0.120243,44.68171,2.807703,11.161191,4.63583E+18,0.773971,-0.035109,0.632179,0.009226,-9.660922,1.709382,-0.827714,-0.061819,-0.008329,-0.137171,39.392945,-20.235008,12.441647,4.63582E+18,0.59295,-0.30544,0.635067,0.389624,-9.684217,0.758525,0.319473,-0.075183,-0.018765,0.096837,42.822594,16.048301,-1.11878,4.63583E+18,-0.444262,-0.55909,-0.457625,0.529744,0
-9.844191,0.113216,1.332282,-0.365407,-0.055104,0.147277,44.523045,2.807703,11.413922,4.63583E+18,0.774048,-0.035929,0.632017,0.01066,-9.736812,1.329503,-0.812945,-0.135774,-0.015186,-0.167542,39.391069,-20.188484,12.402721,4.63582E+18,0.593086,-0.306176,0.634595,0.389609,-9.668263,0.603019,0.296724,-0.076397,-0.023402,0.082672,42.875176,15.752406,-1.138479,4.63583E+18,-0.44463,-0.559052,-0.457542,0.529548,0
-9.885844,0.137633,1.34449,-0.430339,-0.05102,0.170003,44.397849,2.784243,11.402192,4.63583E+18,0.774101,-0.036899,0.631865,0.012338,-9.72427,1.108646,-0.69805,-0.193602,-0.011302,-0.202991,39.64519,-20.103037,12.512834,4.63582E+18,0.593195,-0.307154,0.633993,0.389653,-9.686295,0.534494,0.226676,-0.075838,-0.020902,0.065632,42.640065,15.882225,-1.063163,4.63583E+18,-0.444953,-0.558988,-0.457502,0.529378,0
-9.949034,0.126886,1.336605,-0.508115,-0.04507,0.193396,44.493334,2.603314,11.341864,4.63583E+18,0.774122,-0.038058,0.63173,0.014295,-9.68047,1.568269,-0.532025,-0.219633,-0.006625,-0.216408,39.72768,-20.120351,12.585833,4.63582E+18,0.593278,-0.30824,0.633342,0.389726,-9.737755,0.642117,0.189495,-0.078994,-0.018438,0.046685,42.813821,15.888777,-1.046645,4.63583E+18,-0.445238,-0.558887,-0.457517,0.529232,0
-9.955726,-0.09332,1.225759,-0.59069,-0.059231,0.209416,44.631941,2.382613,11.452897,4.63583E+18,0.774151,-0.039795,0.631521,0.016958,-9.739185,1.412766,-0.375809,-0.24764,-0.010046,-0.218761,39.603064,-20.154423,12.475742,4.63582E+18,0.593338,-0.309396,0.632633,0.389872,-9.681593,0.755737,0.246218,-0.076956,-0.015792,0.023515,42.896816,15.752425,-1.040821,4.63583E+18,-0.445462,-0.558752,-0.457587,0.529126,0
-9.989499,-0.238136,1.274092,-0.66808,-0.050567,0.223828,44.630764,2.329444,11.59468,4.63583E+18,0.774145,-0.041439,0.63135,0.019496,-9.785469,0.87841,-0.332071,-0.25977,-0.020098,-0.218754,39.635191,-20.103047,12.461436,4.63582E+18,0.593408,-0.310564,0.631878,0.390061,-9.601971,0.844373,0.24152,-0.071895,-0.016532,-0.001839,42.419064,16.161638,-1.109743,4.63583E+18,-0.44562,-0.558576,-0.457702,0.529079,0
-9.936827,-0.364053,1.396166,-0.741635,-0.014103,0.228101,44.545311,2.370902,11.414419,4.63583E+18,0.774023,-0.043262,0.631288,0.022173,-9.687586,0.876835,-0.356486,-0.249501,-0.025636,-0.206985,39.793886,-20.017595,12.610471,4.63582E+18,0.593485,-0.311667,0.631139,0.390259,-9.600839,0.965878,0.195885,-0.072075,-0.015513,-0.033784,41.889271,16.835086,-1.063178,4.63583E+18,-0.445706,-0.558341,-0.457894,0.529088,0
-9.926789,-0.442316,1.496492,-0.813391,0.021086,0.232374,44.471569,2.200496,11.34235,4.63583E+18,0.773787,-0.045308,0.631327,0.025046,-9.619433,0.878735,-0.417585,-0.238401,-0.03013,-0.194607,39.85717,-19.932156,12.624791,4.63582E+18,0.593568,-0.312703,0.630423,0.390463,-9.607226,1.100159,0.22818,-0.088408,-0.018898,-0.068753,41.824623,16.89994,-0.893408,4.63583E+18,-0.44576,-0.558002,-0.458197,0.529138,0
-9.851872,-0.537126,1.446488,-0.877712,0.039229,0.237378,44.473242,1.954679,11.381322,4.63583E+18,0.77348,-0.04755,0.63141,0.028101,-9.678126,0.644287,-0.503029,-0.234993,-0.042742,-0.186705,39.805816,-19.846713,12.358403,4.63582E+18,0.593674,-0.313688,0.62969,0.390693,-9.517099,1.144301,0.325263,-0.104249,-0.013197,-0.100056,41.792902,16.741258,-0.842311,4.63583E+18,-0.445771,-0.557586,-0.458618,0.529203,0
-9.751386,-0.543812,1.327264,-0.930924,0.035923,0.24816,44.505506,1.723422,11.547038,4.63583E+18,0.773157,-0.049933,0.631469,0.03133,-9.687744,0.676535,-0.5518,-0.234351,-0.055555,-0.179869,39.727696,-19.863977,12.090006,4.63582E+18,0.593803,-0.314633,0.628934,0.390955,-9.467127,1.093422,0.345002,-0.121289,-0.003584,-0.123655,41.467313,17.042197,-0.905397,4.63583E+18,-0.445751,-0.557114,-0.459148,0.529257,0
-9.564427,-0.597655,1.321234,-0.989671,0.027142,0.266026,44.664202,1.625109,11.437682,4.63583E+18,0.772804,-0.052917,0.631447,0.035336,-9.741625,0.710377,-0.532196,-0.255749,-0.072655,-0.180522,39.698475,-19.94942,12.012085,4.63582E+18,0.593949,-0.315604,0.628099,0.391293,-9.487775,0.921041,0.31477,-0.138659,0.001298,-0.141863,41.295596,17.334844,-0.855664,4.63583E+18,-0.445722,-0.556586,-0.459767,0.5293,0
-9.43684,-0.694788,1.412719,-1.048705,0.030639,0.282777,44.79115,1.35876,11.296341,4.63583E+18,0.772431,-0.055637,0.631451,0.039049,-9.849024,0.774109,-0.476032,-0.2696,-0.074118,-0.180086,39.889209,-19.829465,12.129459,4.63582E+18,0.594078,-0.316606,0.627238,0.391669,-9.506371,0.704523,0.323208,-0.156536,0.007656,-0.157375,41.399388,17.341482,-0.694934,4.63583E+18,-0.445687,-0.556009,-0.460473,0.529322,0
-9.364748,-0.865691,1.388304,-1.10769,0.03408,0.304579,44.727924,1.040851,11.403384,4.63583E+18,0.772014,-0.058492,0.631447,0.042988,-9.90267,0.834974,-0.532375,-0.293567,-0.076491,-0.187368,40.155262,-19.624453,12.148712,4.63582E+18,0.594193,-0.317681,0.62632,0.392093,-9.509567,0.529851,0.392676,-0.169963,0.020652,-0.165233,41.381057,17.376371,-0.719079,4.63583E+18,-0.445641,-0.555419,-0.461251,0.529302,0
-9.376956,-1.038265,1.375579,-1.152204,0.023635,0.328269,44.737945,0.830103,11.400562,4.63583E+18,0.77159,-0.061423,0.631392,0.047121,-9.83172,0.881452,-0.57862,-0.357261,-0.072835,-0.217084,40.255146,-19.658958,12.05106,4.63582E+18,0.594262,-0.318997,0.625266,0.392603,-9.590655,0.380178,0.49614,-0.162003,0.026932,-0.166631,41.358681,17.39555,-0.81673,4.63583E+18,-0.445562,-0.554856,-0.462025,0.529285,0
-9.389163,-1.211354,1.436615,-1.181044,0.005295,0.345405,44.80284,0.785018,11.34465,4.63583E+18,0.771182,-0.064393,0.631261,0.051384,-9.770795,1.27497,-0.581083,-0.413836,-0.068577,-0.239916,40.164661,-19.727163,11.953405,4.63582E+18,0.594279,-0.320519,0.624097,0.393196,-9.772575,0.341807,0.479877,-0.154145,0.033289,-0.168208,41.367692,17.224391,-0.770244,4.63583E+18,-0.445448,-0.554317,-0.462796,0.529271,0
-9.408042,-1.321208,1.475956,-1.208859,0.012917,0.356231,44.791689,0.433769,11.553819,4.63583E+18,0.770723,-0.067426,0.631134,0.055754,-9.817261,1.081006,-0.556619,-0.436881,-0.07328,-0.238189,40.049981,-19.675825,11.855753,4.63582E+18,0.594273,-0.322084,0.622878,0.393859,-9.899023,0.278752,0.499913,-0.155898,0.038402,-0.167191,41.361881,17.280713,-0.744652,4.63583E+18,-0.445331,-0.553788,-0.463578,0.52924,0
-9.474074,-1.417726,1.373306,-1.229344,0.01869,0.366375,44.654682,-0.009465,11.730185,4.63583E+18,0.770218,-0.070501,0.631006,0.060212,-9.800046,0.470845,-0.449134,-0.426388,-0.07648,-0.231358,40.067196,-19.74437,11.765438,4.63582E+18,0.594275,-0.323599,0.621675,0.394514,-9.834539,0.085204,0.494695,-0.145195,0.045039,-0.163478,41.358681,17.493456,-0.672588,4.63583E+18,-0.445183,-0.5533,-0.464339,0.529206,0
-9.570065,-1.419932,1.247361,-1.243131,0.006941,0.365354,44.654682,-0.158157,11.620859,4.63583E+18,0.769717,-0.073617,0.630817,0.064702,-9.795251,0.249023,-0.419965,-0.367819,-0.083322,-0.212971,40.196637,-19.761291,11.672658,4.63582E+18,0.594341,-0.32491,0.620574,0.39507,-9.775524,-0.02062,0.398227,-0.121293,0.051727,-0.159994,41.358681,17.554245,-0.646992,4.63583E+18,-0.444976,-0.552878,-0.465052,0.529197,0
-9.665499,-1.368895,1.182453,-1.249539,-0.003059,0.356566,44.644689,-0.26525,11.47774,4.63583E+18,0.769218,-0.07677,0.630574,0.06918,-9.814753,0.163495,-0.351482,-0.279583,-0.088871,-0.175576,40.31134,-19.675839,11.574999,4.63582E+18,0.594479,-0.325895,0.619653,0.395498,-9.864994,-0.009603,0.348209,-0.100895,0.05656,-0.152849,41.358681,17.608285,-0.583947,4.63583E+18,-0.444727,-0.552518,-0.465711,0.529202,0
-9.82751,-1.38443,1.158596,-1.255947,-0.003593,0.339186,44.581436,-0.509376,11.574283,4.63583E+18,0.768701,-0.079986,0.630303,0.073617,-9.822084,0.043886,-0.322302,-0.20783,-0.095498,-0.142049,40.396786,-19.788336,11.484678,4.63582E+18,0.594674,-0.326604,0.618878,0.395831,-9.927224,0.054039,0.431872,-0.092981,0.052164,-0.14588,41.295637,17.690536,-0.624586,4.63583E+18,-0.444485,-0.552176,-0.466328,0.52922,0
-9.998981,-1.421056,1.060926,-1.260754,-0.015733,0.319374,44.581436,-0.75355,11.573166,4.63583E+18,0.768196,-0.083263,0.629966,0.078006,-9.797637,0.263901,-0.327146,-0.148228,-0.101262,-0.110215,40.130365,-19.64395,11.501859,4.63582E+18,0.594913,-0.327075,0.618229,0.396097,-9.900805,0.064239,0.42786,-0.055614,0.062023,-0.146564,41.219198,17.703937,-0.574949,4.63583E+18,-0.444135,-0.551923,-0.466882,0.529288,0
-10.078319,-1.466003,0.978257,-1.255122,-0.035346,0.296167,44.571445,-1.021003,11.529348,4.63583E+18,0.767735,-0.086523,0.629549,0.082246,-9.756138,0.380822,-0.398029,-0.099531,-0.105108,-0.083946,39.365961,-18.691311,11.506674,4.63582E+18,0.595185,-0.32735,0.617687,0.396307,-9.806951,0.007007,0.306991,0.01243,0.073317,-0.149768,41.145957,17.8178,-0.414258,4.63583E+18,-0.4436,-0.551815,-0.467314,0.529469,0
-10.043367,-1.566967,0.983812,-1.245901,-0.040689,0.275682,44.498217,-1.401052,11.732409,4.63583E+18,0.767276,-0.089803,0.629093,0.086397,-9.697529,0.121916,-0.459004,-0.059586,-0.110663,-0.070066,38.836522,-17.871427,11.362561,4.63582E+18,0.595502,-0.327482,0.617216,0.396457,-9.697085,-0.183303,-0.001588,0.143932,0.10972,-0.169519,41.117736,17.85943,-0.438262,4.63583E+18,-0.442648,-0.551991,-0.467567,0.529858,0
-10.015626,-1.692369,0.925571,-1.224296,-0.030536,0.261164,44.456566,-1.538133,11.816767,4.63583E+18,0.766783,-0.093053,0.628654,0.090438,-9.660935,0.180801,-0.368603,-0.021349,-0.108735,-0.057247,38.888003,-17.822902,11.228337,4.63582E+18,0.595845,-0.327489,0.616829,0.396537,-9.668263,-0.397197,-0.034639,0.283766,0.153279,-0.186485,41.168551,17.85943,-0.670947,4.63583E+18,-0.441252,-0.552488,-0.46763,0.530449,0
-9.963466,-1.823894,0.751868,-1.194822,-0.054472,0.250432,44.615273,-1.583055,11.80512,4.63583E+18,0.766291,-0.096595,0.628073,0.094826,-9.685369,0.361362,-0.2832,0.010263,-0.104464,-0.043576,38.851211,-18.067032,11.252815,4.63582E+18,0.596198,-0.327389,0.616524,0.396563,-9.623248,-0.478683,0.185863,0.373733,0.185765,-0.182253,41.187778,17.85943,-0.744652,4.63583E+18,-0.439593,-0.553229,-0.467542,0.531131,0
-9.886914,-1.855525,0.743494,-1.168124,-0.100443,0.246451,44.754003,-1.902619,11.719686,4.63583E+18,0.765957,-0.099724,0.627385,0.09876,-9.682903,0.302705,-0.261235,0.039316,-0.099122,-0.033965,38.611953,-18.21591,11.291848,4.63582E+18,0.596561,-0.327202,0.616293,0.396532,-9.535207,-0.434281,0.328375,0.437978,0.220117,-0.17551,41.070747,17.976463,-0.600612,4.63583E+18,-0.437732,-0.554174,-0.467357,0.531844,0
-9.794237,-1.857187,0.901109,-1.142583,-0.137203,0.24417,44.752919,-2.145687,11.620941,4.63583E+18,0.76571,-0.10276,0.626573,0.102634,-9.800161,0.258803,-0.292994,0.082688,-0.101904,-0.02777,38.565651,-18.301362,11.240554,4.63582E+18,0.59698,-0.326886,0.616134,0.396407,-9.518569,-0.081974,0.561063,0.438209,0.230439,-0.155204,40.984071,18.07214,-0.342285,4.63583E+18,-0.435895,-0.55518,-0.467141,0.532494,0
-9.724882,-1.869395,0.98101,-1.124423,-0.153813,0.24082,44.679096,-2.30606,11.437814,4.63583E+18,0.765497,-0.105739,0.6257,0.106454,-9.800065,0.583652,-0.332048,0.118357,-0.097411,-0.016659,38.695069,-18.232932,11.089154,4.63582E+18,0.597418,-0.326461,0.616061,0.396213,-9.494768,0.009616,0.373724,0.447566,0.233083,-0.143746,41.139085,18.154386,-0.277565,4.63583E+18,-0.434054,-0.556228,-0.46688,0.533133,0
-9.61445,-1.869974,1.089781,-1.106703,-0.153523,0.237274,44.679096,-2.486909,11.29459,4.63583E+18,0.765274,-0.108667,0.624819,0.110216,-9.748835,0.405162,-0.481016,0.118561,-0.1034,-0.022221,39.051578,-18.311151,11.077019,4.63582E+18,0.59788,-0.32604,0.615964,0.396012,-9.458146,-0.054013,0.217756,0.451319,0.240226,-0.138125,41.253999,18.293851,-0.352787,4.63583E+18,-0.432201,-0.557308,-0.466607,0.533749,0
-9.572851,-1.786776,1.100914,-1.091024,-0.151677,0.238052,44.669136,-2.719416,11.417727,4.63583E+18,0.765035,-0.111542,0.623938,0.113935,-9.673127,0.417558,-0.485834,0.116643,-0.110446,-0.033754,39.847552,-18.848336,11.076987,4.63582E+18,0.598377,-0.325642,0.615831,0.395796,-9.601548,-0.019238,0.168315,0.445245,0.247195,-0.130422,41.093211,18.389526,-0.513445,4.63583E+18,-0.430364,-0.558404,-0.46634,0.534321,0
-9.507906,-1.638613,1.047596,-1.073489,-0.154002,0.237129,44.60585,-2.891414,11.585406,4.63583E+18,0.764794,-0.114358,0.623043,0.117603,-9.62676,0.825275,-0.383302,0.120915,-0.111301,-0.03824,40.548185,-19.33169,10.945133,4.63582E+18,0.598889,-0.325243,0.615697,0.395559,-9.782065,-0.216015,0.032687,0.483447,0.244941,-0.135266,40.903073,18.462767,-0.561541,4.63583E+18,-0.428429,-0.559552,-0.465992,0.534977,0
-9.505659,-1.466655,1.122492,-1.07436,-0.171817,0.236693,44.60419,-3.146084,11.473406,4.63583E+18,0.76458,-0.117169,0.622077,0.121279,-9.660939,0.661641,-0.339366,0.121128,-0.114078,-0.03824,40.601825,-19.363383,10.70101,4.63582E+18,0.599408,-0.324839,0.615555,0.395324,-9.781956,-0.193971,0.032796,0.525321,0.233299,-0.131491,40.984188,18.428004,-0.354526,4.63583E+18,-0.426426,-0.560753,-0.465518,0.535732,0
-9.560056,-1.210304,1.207943,-1.08164,-0.194248,0.233779,44.593643,-3.368653,11.219194,4.63583E+18,0.764405,-0.119998,0.621021,0.124976,-9.775684,0.224625,-0.388193,0.130314,-0.123691,-0.037385,40.452896,-19.351174,10.752274,4.63582E+18,0.599963,-0.324394,0.615405,0.395081,-9.756923,0.093291,0.04883,0.496556,0.198941,-0.121371,41.155076,18.29177,-0.136777,4.63583E+18,-0.424577,-0.561843,-0.465021,0.53649,0
-9.563972,-0.965586,1.290068,-1.094311,-0.213484,0.232856,44.60525,-3.454095,11.132094,4.63583E+18,0.764256,-0.122855,0.619882,0.128707,-9.853816,0.183115,-0.55178,0.149541,-0.133732,-0.036744,40.469986,-19.43663,10.981784,4.63582E+18,0.600568,-0.323883,0.615262,0.394804,-9.861705,0.480084,0.138821,0.395398,0.156497,-0.095729,41.199986,18.250069,-0.229439,4.63583E+18,-0.423103,-0.562707,-0.464612,0.537104,0
-9.515146,-0.806297,1.331215,-1.10548,-0.210822,0.234596,44.700638,-3.551138,11.009588,4.63583E+18,0.764075,-0.12574,0.618733,0.132467,-9.900201,0.314946,-0.649433,0.172184,-0.14185,-0.03824,40.599375,-19.317007,11.118498,4.63582E+18,0.601227,-0.323306,0.615133,0.394475,-9.828219,0.361003,0.215894,0.302826,0.125585,-0.075778,41.083011,18.304057,-0.28077,4.63583E+18,-0.42195,-0.563375,-0.464307,0.537574,0
-9.481237,-0.749027,1.239121,-1.113683,-0.202065,0.247125,44.8494,-3.72206,10.742055,4.63583E+18,0.763842,-0.128622,0.6176,0.136281,-9.931942,0.390631,-0.556674,0.182226,-0.151676,-0.04657,40.655538,-19.067987,11.150243,4.63582E+18,0.601938,-0.322709,0.614984,0.394112,-9.70357,0.1638,0.213945,0.229748,0.098882,-0.072353,40.861336,18.440282,-0.343754,4.63583E+18,-0.421027,-0.563861,-0.46411,0.537958,0
-9.56217,-0.877732,1.118107,-1.130563,-0.222347,0.258677,44.900031,-3.902909,10.585477,4.63583E+18,0.763626,-0.131513,0.616383,0.140184,-9.966119,0.722629,-0.400417,0.164711,-0.16428,-0.063446,40.555452,-19.021567,11.145359,4.63582E+18,0.602685,-0.322178,0.614751,0.393768,-9.533298,0.311026,0.07256,0.135125,0.062731,-0.067123,40.734157,18.482008,-0.366222,4.63583E+18,-0.420408,-0.56411,-0.464049,0.538234,0
-9.76636,-1.015481,1.093086,-1.175024,-0.262208,0.276055,44.742401,-4.135434,10.597683,4.63583E+18,0.763457,-0.134475,0.615007,0.144274,-10.117459,1.220658,-0.327163,0.142494,-0.178165,-0.081817,40.594471,-19.150947,11.094102,4.63582E+18,0.603467,-0.321727,0.614421,0.393453,-9.49415,0.387427,0.04241,0.072454,0.017698,-0.080903,40.774674,18.365039,-0.438204,4.63583E+18,-0.419992,-0.564121,-0.464081,0.538518,0
-9.942842,-0.904134,1.143572,-1.229262,-0.292528,0.298906,44.700633,-4.307381,10.608233,4.63583E+18,0.763301,-0.137525,0.613499,0.148587,-10.227354,1.240335,-0.317392,0.108747,-0.176674,-0.099547,40.70679,-19.163201,10.942758,4.63582E+18,0.60423,-0.321408,0.614016,0.393177,-9.632309,0.678529,-0.203076,0.041711,-0.033232,-0.08652,40.914097,18.386289,-0.391908,4.63583E+18,-0.419735,-0.563954,-0.464106,0.538873,0
-10.077107,-0.498851,1.184739,-1.273884,-0.29146,0.347727,44.860964,-4.56205,10.596647,4.63583E+18,0.763061,-0.140588,0.611975,0.153162,-10.139518,1.2695,-0.280788,0.08759,-0.182221,-0.138203,40.78003,-18.931336,10.806021,4.63582E+18,0.60504,-0.321233,0.613508,0.392865,-9.743444,0.745289,-0.81476,0.075395,-0.065891,-0.05582,40.838887,18.516718,-0.294252,4.63583E+18,-0.41953,-0.563831,-0.463926,0.539316,0
-10.179951,0.221939,1.081103,-1.309908,-0.288365,0.414,44.985542,-4.829328,10.474818,4.63583E+18,0.762724,-0.143594,0.610457,0.158033,-10.195538,1.813716,-0.117286,0.077766,-0.227489,-0.171323,40.853267,-18.704248,10.708374,4.63582E+18,0.606007,-0.321093,0.612826,0.392554,-9.630979,-0.113202,-0.965022,0.175526,-0.049806,-0.03699,40.725171,18.609231,-0.412503,4.63583E+18,-0.419102,-0.563956,-0.463504,0.539881,0
-10.07733,0.852393,0.871293,-1.346693,-0.274659,0.469909,44.827868,-5.222879,10.130727,4.63583E+18,0.762264,-0.146583,0.608969,0.163167,-10.483562,1.811807,-0.017096,0.05022,-0.31527,-0.190336,40.838681,-18.684618,10.669271,4.63582E+18,0.607192,-0.320927,0.611849,0.392383,-9.555826,-0.738877,-0.250555,0.29824,0.000844,-0.038903,40.753454,18.745434,-0.742731,4.63583E+18,-0.418283,-0.564405,-0.462898,0.540566,0
-9.966201,1.34257,0.718195,-1.405452,-0.282527,0.502621,44.786045,-5.477572,9.876422,4.63583E+18,0.761735,-0.149663,0.607413,0.168552,-10.700949,1.589421,-0.06344,0.000667,-0.398387,-0.232829,40.765435,-18.765181,10.552169,4.63582E+18,0.608589,-0.320858,0.610523,0.39234,-9.780053,-0.278853,0.341801,0.357885,0.020744,-0.029571,40.763733,18.850158,-0.851306,4.63583E+18,-0.417306,-0.565019,-0.46217,0.541302,0
-10.016025,1.596218,0.531172,-1.500673,-0.340866,0.55074,44.923244,-5.756341,9.779431,4.63583E+18,0.761227,-0.152875,0.605609,0.174359,-10.703496,2.013835,-0.185475,-0.152417,-0.428112,-0.310143,40.780012,-18.7994,10.364182,4.63582E+18,0.609982,-0.321324,0.608765,0.392528,-10.052426,0.475305,0.508844,0.31551,0.00276,-0.020128,40.83246,18.818689,-0.638695,4.63583E+18,-0.416483,-0.565537,-0.461482,0.541982,0
-10.148655,1.743357,0.418354,-1.611126,-0.445199,0.628601,44.878667,-6.255193,9.583762,4.63583E+18,0.760814,-0.156158,0.603412,0.180751,-10.588779,2.592578,-0.412448,-0.36732,-0.414029,-0.404985,40.904475,-18.696957,10.232302,4.63582E+18,0.611202,-0.322598,0.606559,0.392999,-10.164896,0.914187,0.408024,0.203318,-0.015288,-0.030747,40.858177,18.682507,-0.489606,4.63583E+18,-0.415936,-0.565798,-0.46104,0.542505,0
-10.262473,1.8166,0.449371,-1.72117,-0.541004,0.718525,44.593643,-6.700561,9.252864,4.63583E+18,0.760471,-0.15943,0.600865,0.18769,-10.41791,3.00281,-0.561505,-0.548936,-0.396077,-0.498132,41.063172,-18.526054,10.134643,4.63582E+18,0.612278,-0.324597,0.603971,0.393664,-10.315852,0.884113,-0.092362,0.058899,-0.04283,-0.047837,40.804228,18.52381,-0.598759,4.63583E+18,-0.415743,-0.565714,-0.460917,0.542845,0
-10.343298,1.850249,0.544052,-1.812328,-0.54669,0.803333,44.60519,-6.871447,9.069773,4.63583E+18,0.759893,-0.162972,0.598186,0.195384,-10.368937,2.922698,-0.220129,-0.718749,-0.398624,-0.576967,41.273074,-18.260048,9.861394,4.63582E+18,0.613252,-0.327218,0.600981,0.394553,-10.471988,0.941221,-0.409217,-0.099578,-0.081169,-0.0547,40.721991,18.535959,-0.718927,4.63583E+18,-0.415982,-0.565255,-0.461102,0.542983,0
-10.580515,1.582679,0.764446,-1.910281,-0.525268,0.890055,44.690643,-7.108332,8.863568,4.63583E+18,0.759117,-0.166445,0.595553,0.203355,-10.637242,3.012507,0.558479,-0.910989,-0.424885,-0.645329,41.517208,-18.025571,9.419564,4.63582E+18,0.614128,-0.330452,0.597503,0.395776,-10.627454,1.030537,-0.373974,-0.24748,-0.108381,-0.05161,40.699482,18.609198,-0.744652,4.63583E+18,-0.416629,-0.564484,-0.461566,0.542895,0
-10.950041,1.022127,0.902687,-1.984445,-0.584593,0.967626,44.753002,-7.757634,8.509553,4.63583E+18,0.758303,-0.169898,0.592672,0.211782,-10.884027,3.883572,1.259405,-1.17155,-0.472936,-0.725637,41.615036,-17.95709,9.002003,4.63582E+18,0.614879,-0.334463,0.593343,0.397496,-10.588357,0.555366,-0.458682,-0.373301,-0.118225,-0.03919,40.753425,18.69143,-0.753642,4.63583E+18,-0.417617,-0.563495,-0.462268,0.542566,0
-10.869214,0.564183,0.996387,-2.003412,-0.68064,1.015462,44.657652,-8.320496,8.167085,4.63583E+18,0.757597,-0.173192,0.589449,0.220457,-10.864683,4.709166,1.71607,-1.517335,-0.537225,-0.823036,41.615036,-17.95709,8.733327,4.63582E+18,0.615439,-0.339478,0.588281,0.399893,-10.397577,-0.31383,-0.401609,-0.469334,-0.135366,-0.017156,40.763738,18.776881,-0.891715,4.63583E+18,-0.418913,-0.56234,-0.463103,0.542052,0
-10.269402,0.232273,1.187413,-1.999919,-0.765688,1.017194,44.518752,-8.758641,7.860583,4.63583E+18,0.757004,-0.176431,0.585889,0.229241,-10.837703,4.863539,1.992079,-1.839331,-0.646332,-0.908293,41.710126,-17.752284,8.369784,4.63582E+18,0.61591,-0.345324,0.582243,0.402988,-10.321692,-1.037974,-0.321276,-0.516013,-0.148861,0.029433,40.706584,18.790411,-0.868056,4.63583E+18,-0.420447,-0.561161,-0.46391,0.541396,0
-9.688735,-0.082457,1.668433,-1.99227,-0.817682,0.999151,44.508194,-9.344577,7.311268,4.63583E+18,0.756505,-0.179566,0.582119,0.237894,-11.400968,5.32173,3.25289,-2.111727,-0.824228,-0.958954,41.971225,-17.564081,7.835179,4.63582E+18,0.616448,-0.351661,0.575164,0.406833,-10.126488,-1.379322,-0.287207,-0.511876,-0.125722,0.098851,40.63334,18.73326,-0.698488,4.63583E+18,-0.422082,-0.560173,-0.464583,0.54057,0
-9.309706,-0.668001,2.102001,-1.966818,-0.825385,1.003363,44.508194,-9.918885,6.762049,4.63583E+18,0.755964,-0.182587,0.578296,0.246484,-11.928836,6.088424,4.508721,-2.463852,-0.98237,-1.009559,42.249605,-17.42744,7.144455,4.63582E+18,0.616859,-0.358712,0.566937,0.411574,-10.112834,-1.512385,-0.100992,-0.474336,-0.10463,0.177554,40.560097,18.651027,-0.646992,4.63583E+18,-0.423764,-0.559448,-0.465022,0.539626,0
-8.935364,-1.111726,2.03699,-1.924405,-0.955098,1.011596,44.496668,-10.407863,6.212716,4.63583E+18,0.755683,-0.185304,0.574058,0.255074,-12.124256,6.48196,3.732285,-2.900025,-1.155758,-1.065322,42.442552,-17.205354,6.265731,4.63582E+18,0.61702,-0.36666,0.557341,0.417394,-10.257974,-1.690926,0.017305,-0.483742,-0.056365,0.278892,40.774469,18.637486,-0.584078,4.63583E+18,-0.4256,-0.559008,-0.46533,0.538371,0
-8.071382,-1.641294,2.054418,-1.895685,-1.04838,1.002678,44.411216,-10.822907,5.688088,4.63583E+18,0.755581,-0.187833,0.569494,0.263614,-11.868529,7.820527,3.785514,-3.294689,-1.376839,-1.085027,42.659753,-17.00019,5.364744,4.63582E+18,0.616993,-0.375204,0.54634,0.424328,-10.294061,-2.734278,0.566882,-0.447309,0.030187,0.394131,40.984003,18.523868,-0.489641,4.63583E+18,-0.427439,-0.559047,-0.465438,0.536777,0
-6.947977,-2.03094,2.225728,-1.856766,-1.020467,0.986969,44.34716,-11.260957,5.31038,4.63583E+18,0.755386,-0.190286,0.564995,0.271963,-11.233966,9.74214,5.691207,-3.634362,-1.581099,-1.068815,42.908778,-16.924356,4.446896,4.63582E+18,0.616705,-0.384123,0.534093,0.432284,-9.841468,-3.492908,1.080407,-0.362328,0.105873,0.499045,41.03807,18.248334,-0.320082,4.63583E+18,-0.429166,-0.559607,-0.465244,0.534981,0
-6.068271,-2.324631,2.105407,-1.836697,-0.987734,0.991003,44.42206,-11.835447,4.845486,4.63583E+18,0.755052,-0.192686,0.560572,0.280227,-10.701478,10.366706,7.384033,-4.004252,-1.759258,-1.079644,43.101721,-16.619723,3.377862,4.63582E+18,0.61604,-0.393572,0.520532,0.441182,-9.312029,-2.532482,0.702075,-0.350116,0.177374,0.579784,40.996357,17.993876,-0.124781,4.63583E+18,-0.430903,-0.560499,-0.46496,0.532893,0
-5.27907,-2.488386,1.580227,-1.826677,-0.932216,1.027536,44.472936,-12.303011,4.319218,4.63583E+18,0.754483,-0.195015,0.556314,0.288513,-9.745405,9.074807,7.74466,-4.372825,-1.91375,-1.127048,43.26042,-16.068031,2.223028,4.63582E+18,0.614955,-0.403633,0.50562,0.450841,-9.377659,-1.219725,0.192437,-0.445047,0.235853,0.629896,41.034168,17.878759,-0.019329,4.63583E+18,-0.432856,-0.561443,-0.464869,0.53039,0
-4.639971,-2.283241,0.960854,-1.825731,-0.895745,1.104262,44.26919,-12.580687,3.917847,4.63583E+18,0.753668,-0.197185,0.552184,0.296977,-8.222338,7.667351,7.181262,-4.638942,-2.038539,-1.155724,43.375249,-15.723342,0.902517,4.63582E+18,0.613465,-0.414023,0.489617,0.460999,-9.834881,0.106184,-0.178333,-0.661428,0.299476,0.685701,41.116393,17.805521,0.071879,4.63583E+18,-0.43531,-0.562237,-0.465235,0.527211,0
-4.300725,-2.00478,0.766468,-1.813859,-0.881744,1.156577,43.900159,-13.007299,3.368457,4.63583E+18,0.752663,-0.199251,0.548085,0.305616,-6.818064,6.763906,6.229481,-4.816096,-2.137046,-1.131225,43.468008,-15.59872,-0.52568,4.63582E+18,0.611524,-0.424424,0.472826,0.471528,-10.13517,1.533039,-0.484191,-1.038722,0.332963,0.730074,41.390515,17.498682,0.304303,4.63583E+18,-0.43867,-0.562493,-0.466376,0.523129,0
-4.053291,-1.618565,0.654958,-1.819245,-0.798285,1.14941,43.846654,-13.519308,2.832292,4.63583E+18,0.751398,-0.201437,0.544184,0.314147,-5.753317,4.900779,4.497477,-4.912767,-2.210986,-1.062057,43.551041,-15.257452,-1.961153,4.63582E+18,0.609105,-0.434572,0.455537,0.482312,-10.579517,3.533776,-0.920921,-1.626013,0.319735,0.769314,41.66943,17.170937,0.728826,4.63583E+18,-0.443499,-0.561697,-0.468661,0.517843,0
-3.746952,-0.96202,0.524678,-1.850197,-0.730162,1.153784,43.898525,-14.093697,2.406964,4.63583E+18,0.749906,-0.203726,0.54043,0.322603,-4.801185,1.828232,2.017702,-4.862368,-2.266119,-0.983222,43.573121,-14.605902,-3.350397,4.63582E+18,0.606405,-0.444104,0.438115,0.493051,-10.655209,4.284601,-1.867428,-2.439692,0.301175,0.824558,41.701173,16.910674,1.276791,4.63583E+18,-0.450349,-0.559417,-0.472499,0.510866,0
-3.163102,-0.43171,0.358004,-1.869301,-0.772088,1.127038,43.780198,-14.572832,2.109516,4.63583E+18,0.748458,-0.206056,0.536448,0.331021,-3.827082,-1.507036,-1.004123,-4.66343,-2.260896,-0.906744,43.619383,-14.051275,-4.639641,4.63582E+18,0.603603,-0.452783,0.421038,0.503366,-11.036903,4.094299,-1.981042,-3.343229,0.189256,0.851637,41.706248,16.504846,1.787604,4.63583E+18,-0.45951,-0.555165,-0.477912,0.502238,0
-2.367287,-0.087324,0.346272,-1.903214,-0.850781,1.068825,43.483472,-14.912991,1.534837,4.63583E+18,0.747131,-0.208548,0.532052,0.339446,-2.648258,-5.641038,-5.332968,-4.350812,-2.106046,-0.852859,43.660983,-13.777497,-6.001734,4.63582E+18,0.600733,-0.460703,0.40492,0.51275,-11.181981,4.06691,-1.772833,-4.134916,0.106592,0.934974,41.910323,15.978098,2.266901,4.63583E+18,-0.470723,-0.549245,-0.484508,0.491937,0
-1.659561,0.330744,0.661272,-1.94957,-0.91742,0.990179,43.421021,-15.255688,0.903631,4.63583E+18,0.745946,-0.211242,0.527264,0.347754,-1.736592,-10.412601,-10.804664,-3.951329,-1.823457,-0.918674,43.709748,-13.357974,-7.384028,4.63582E+18,0.598064,-0.46816,0.390081,0.520559,-10.79571,3.784056,-2.448871,-4.793014,0.04992,0.994124,42.178888,15.545544,2.877736,4.63583E+18,-0.483505,-0.541837,-0.492033,0.480145,0
-1.192322,0.552418,1.052789,-2.000566,-0.861043,0.943255,43.493335,-15.681261,0.450363,4.63583E+18,0.744622,-0.214203,0.522507,0.355868,-1.382027,-15.712985,-17.432743,-3.255678,-1.497853,-1.017235,43.731812,-12.676865,-8.507646,4.63582E+18,0.59626,-0.474614,0.377256,0.526206,-10.594189,3.252275,-3.19507,-5.326154,0.005384,0.968975,42.33066,15.217816,3.54586,4.63583E+18,-0.497309,-0.532963,-0.500366,0.467192,0
-1.369836,0.334665,1.553478,-2.036742,-0.710711,0.950364,43.459802,-16.096306,-0.036479,4.63583E+18,0.742853,-0.217462,0.518118,0.363914,-1.903511,-22.664817,-24.194376,-2.055488,-1.114866,-1.016706,43.668408,-12.129635,-9.191753,4.63582E+18,0.59612,-0.478841,0.367949,0.529118,-10.625501,2.687527,-3.441096,-5.754516,-0.055638,0.943418,42.332744,14.670137,4.29808,4.63583E+18,-0.511867,-0.522735,-0.509192,0.453281,0
-2.402389,-0.332267,2.201125,-1.890857,-0.640435,0.952674,43.300393,-16.49,-0.649879,4.63583E+18,0.74099,-0.220352,0.514123,0.371559,-4.050256,-27.159466,-28.384722,-0.385525,-0.748426,-0.928108,43.629261,-11.816983,-9.504511,4.63582E+18,0.598513,-0.479559,0.363384,0.528922,-10.72569,2.682845,-3.071713,-6.157993,-0.152291,0.925542,42.296123,14.035352,4.998519,4.63583E+18,-0.527153,-0.511095,-0.518294,0.438478,0
-4.142366,-1.392253,2.899287,-1.677912,-0.76705,0.991529,43.205122,-16.746329,-1.098076,4.63583E+18,0.739474,-0.222285,0.510062,0.378952,-8.961271,-25.490948,-24.981436,1.410949,-0.607575,-0.638522,43.673133,-11.616737,-9.582811,4.63582E+18,0.603621,-0.475651,0.363694,0.526426,-10.736761,2.788341,-3.082446,-6.602579,-0.274812,0.896384,42.421152,13.409604,5.598023,4.63583E+18,-0.543214,-0.497822,-0.52763,0.422728,0
-6.102997,-2.216415,4.359852,-1.396023,-0.900072,1.08369,43.034962,-17.023976,-1.391206,4.63583E+18,0.738303,-0.222923,0.506087,0.386121,-14.402348,-15.62177,-12.545189,2.522091,-0.645944,-0.26162,43.753691,-11.599391,-9.641311,4.63582E+18,0.610113,-0.468254,0.367061,0.523227,-10.1466,2.690961,-3.460587,-7.011579,-0.349554,0.89156,42.738959,12.733165,6.243594,4.63583E+18,-0.559834,-0.483071,-0.537098,0.4059,0
-8.226457,-3.856804,5.554521,-1.00721,-0.926709,1.196013,42.800644,-17.439021,-1.869074,4.63583E+18,0.737321,-0.222071,0.502729,0.392816,-18.263972,-0.992034,1.334975,2.560098,-0.771041,-0.042427,43.744082,-11.728713,-9.731656,4.63582E+18,0.61632,-0.460097,0.370575,0.520706,-9.371079,2.514305,-3.63963,-7.2823,-0.342237,0.856827,42.86272,11.974483,6.995822,4.63583E+18,-0.576417,-0.467186,-0.54663,0.388171,0
-10.598644,-6.97119,6.668164,-0.696997,-0.703827,1.316233,42.629756,-17.865491,-2.491462,4.63583E+18,0.735921,-0.22037,0.500648,0.399009,-22.105511,14.429882,12.107,1.818808,-1.035537,-0.201936,43.524611,-11.843533,-9.9414,4.63582E+18,0.621798,-0.45347,0.371458,0.519375,-9.015116,2.950764,-4.80256,-7.478369,-0.206267,0.728344,42.79159,11.238173,7.633362,4.63583E+18,-0.592312,-0.450308,-0.556537,0.36967,0
-12.890259,-10.102938,6.891858,-0.537589,-0.325201,1.276843,42.460476,-18.343107,-2.88988,4.63583E+18,0.73391,-0.218885,0.499936,0.404388,-20.634088,22.872474,15.91604,0.717847,-1.225914,-0.672952,43.346144,-11.826629,-10.234356,4.63582E+18,0.626474,-0.449986,0.368553,0.518856,-8.044411,1.113875,-6.352851,-7.250695,0.086467,0.5949,42.78947,10.356343,8.219299,4.63583E+18,-0.606333,-0.433705,-0.566541,0.35113,0
-13.582486,-11.899495,4.304426,-0.602541,-0.208021,1.071296,42.290369,-18.674275,-2.891628,4.63583E+18,0.73192,-0.218214,0.499271,0.40915,-18.655038,17.143612,12.258514,-0.149836,-1.287925,-1.231766,43.406897,-11.543809,-10.578491,4.63582E+18,0.630795,-0.449469,0.362544,0.518302,-7.616326,-3.469724,-5.856165,-6.173254,0.433618,0.651397,42.951776,9.533165,8.939866,4.63583E+18,-0.617187,-0.420117,-0.575299,0.334085,0
-11.445761,-10.993432,2.061416,-0.297824,-0.568359,0.862826,42.069109,-19.014446,-3.101769,4.63583E+18,0.731294,-0.216429,0.497826,0.412962,-17.213226,5.719466,5.728905,-0.31744,-1.283743,-1.683785,43.558272,-10.931438,-11.029985,4.63582E+18,0.635729,-0.450055,0.355313,0.51677,-8.532152,-4.786746,-3.079767,-4.449458,0.849362,0.846175,42.979756,8.97643,9.708773,4.63583E+18,-0.623979,-0.411788,-0.58209,0.319771,0
-7.784841,-7.39508,2.194713,-0.044041,-0.616858,0.738443,41.994232,-19.344046,-3.514969,4.63583E+18,0.731195,-0.214043,0.496548,0.415908,-14.508444,-2.91819,1.470621,0.108169,-1.200961,-1.794789,43.602433,-10.230674,-11.523156,4.63582E+18,0.641527,-0.44982,0.348981,0.514118,-9.718464,-0.695057,-0.931809,-2.945401,1.280528,1.16467,42.646948,8.38365,10.352203,4.63583E+18,-0.62739,-0.408597,-0.587288,0.307446,0
-6.43406,-4.439579,2.776866,-0.204045,0.172198,0.830991,41.910414,-19.662203,-3.521947,4.63583E+18,0.72915,-0.213318,0.497472,0.418758,-13.625397,-6.750968,0.327427,0.647082,-1.127169,-1.671219,43.541477,-9.668896,-11.894514,4.63582E+18,0.647912,-0.448088,0.344203,0.510834,-10.013302,1.540979,-1.256977,-1.932207,1.7018,1.459334,42.674204,7.587281,10.869603,4.63583E+18,-0.628312,-0.409243,-0.591686,0.29606,0
-7.784474,-2.039216,0.032878,-0.244816,0.888208,0.766762,41.825726,-19.894904,-3.060683,4.63583E+18,0.725683,-0.214093,0.500435,0.420848,-13.168234,-5.923834,-0.143209,0.982827,-1.10554,-1.558532,43.646049,-9.224452,-12.129023,4.63582E+18,0.654602,-0.4453,0.340381,0.507292,-8.951062,0.07782,-2.633041,-1.134522,2.045876,1.619676,43.120797,6.56232,11.698893,4.63583E+18,-0.627133,-0.412737,-0.595642,0.285592,0
-9.4138,-0.274405,-3.103774,-0.222972,0.641377,0.61016,41.667048,-20.053583,-2.86788,4.63583E+18,0.723011,-0.214691,0.50254,0.42263,-11.908936,-4.495683,-0.16166,1.153216,-1.123861,-1.482257,43.929149,-8.802091,-12.324341,4.63582E+18,0.661419,-0.441864,0.336983,0.503709,-8.381138,-1.087789,-4.364602,-0.622037,2.290077,1.72517,42.948938,5.682304,12.740783,4.63583E+18,-0.624502,-0.418062,-0.599361,0.275659,0
-9.976974,1.028948,-2.477753,-0.161803,0.398909,0.534472,41.519786,-20.225347,-2.781655,4.63583E+18,0.721025,-0.214834,0.50395,0.424268,-10.631912,-2.954773,0.650311,1.200185,-1.192562,-1.409205,43.998063,-8.287211,-12.702303,4.63582E+18,0.668211,-0.438016,0.333599,0.500347,-8.169653,-0.294608,-6.057865,-0.630718,2.435737,1.768253,42.405014,4.939435,13.536832,4.63583E+18,-0.621475,-0.423574,-0.603301,0.265295,0
-10.531122,1.414853,-0.869401,-0.457055,0.545904,0.48102,41.423672,-20.468635,-2.782514,4.63583E+18,0.718551,-0.216237,0.505224,0.426233,-8.549115,-1.783085,2.313962,1.11641,-1.27483,-1.342966,43.659289,-7.808463,-13.078583,4.63582E+18,0.674772,-0.434102,0.329905,0.497394,-8.665287,0.599428,-7.059649,-1.17493,2.48705,1.762416,42.41134,4.057744,14.501788,4.63583E+18,-0.619165,-0.427646,-0.607883,0.253443,0
-11.013889,0.620703,-4.431771,-0.52636,-0.192176,0.470678,41.18933,-20.617528,-2.894092,4.63583E+18,0.717578,-0.216556,0.504151,0.428972,-6.66724,-1.379891,4.57664,0.96883,-1.348749,-1.249689,43.261087,-7.495709,-13.430004,4.63582E+18,0.680922,-0.430289,0.325839,0.495001,-9.382997,0.622998,-6.087968,-2.003989,2.473712,1.702428,42.317019,3.575417,15.492016,4.63583E+18,-0.618176,-0.429324,-0.613289,0.239617,0
-11.932681,0.111452,-4.902414,-0.645633,-0.773543,0.434952,41.062489,-20.691549,-3.150348,4.63583E+18,0.717772,-0.216262,0.501088,0.432372,-5.463299,-0.913995,6.32387,0.756845,-1.411152,-1.123257,43.274871,-7.244267,-13.937513,4.63582E+18,0.686467,-0.426747,0.321362,0.493332,-9.58855,-1.84317,-3.887621,-2.671156,2.515816,1.751423,41.481396,3.410562,16.537157,4.63583E+18,-0.618163,-0.429341,-0.619227,0.223825,0
-13.373367,-0.025199,-1.452627,-0.829099,-0.160293,0.454134,41.201617,-20.72582,-3.23333,4.63583E+18,0.716475,-0.217573,0.499538,0.435646,-4.681221,-0.822406,6.694952,0.484335,-1.474361,-0.991876,43.372906,-6.944101,-14.457683,4.63582E+18,0.6913,-0.423652,0.316358,0.492485,-10.671626,-0.413282,-0.815832,-3.237171,2.47163,1.665641,41.065411,2.511194,17.539539,4.63583E+18,-0.619006,-0.427504,-0.625543,0.206805,0
-14.874605,-0.005018,0.481277,-1.020605,0.330611,0.541023,41.179557,-20.98054,-3.232545,4.63583E+18,0.71381,-0.220161,0.499174,0.439123,-3.878599,-1.719117,5.744606,0.248342,-1.533776,-0.878607,43.219496,-6.614493,-15.05797,4.63582E+18,0.695522,-0.420942,0.310879,0.492353,-12.710633,-2.043094,0.581374,-4.176232,2.461823,1.102916,40.954076,1.10283,18.453302,4.63583E+18,-0.620824,-0.421606,-0.633409,0.188728,0
-15.63852,-0.474671,-0.978478,-1.080742,-0.006818,0.671193,40.945218,-21.203466,-3.3335,4.63583E+18,0.711533,-0.222034,0.497804,0.443411,-3.958825,-3.631675,3.897597,0.115287,-1.576955,-0.736439,43.021585,-6.336035,-15.734264,4.63582E+18,0.699238,-0.418322,0.305235,0.492854,-15.118279,-15.884384,4.070518,-4.329775,2.358809,0.948089,40.330342,-0.054534,19.281643,4.63583E+18,-0.622794,-0.414638,-0.64113,0.170747,0
-15.599218,-1.24758,-1.552921,-1.035232,-0.815774,0.829684,40.774315,-21.300331,-3.653402,4.63583E+18,0.71066,-0.221937,0.49425,0.448803,-3.812425,-5.407956,1.681057,0.096089,-1.580675,-0.586853,42.906723,-6.135724,-16.354509,4.63582E+18,0.702581,-0.415539,0.299785,0.493797,-16.66002,-19.005412,10.813981,-3.833243,2.266644,0.850379,39.978973,-0.966488,19.997557,4.63583E+18,-0.623835,-0.408468,-0.648177,0.154439,0
-14.444861,-1.1939,1.21708,-0.955749,-1.303102,0.895675,40.593634,-21.526662,-4.235292,4.63583E+18,0.710704,-0.220545,0.489438,0.454653,-2.736673,-7.223197,0.221315,0.157299,-1.549737,-0.454613,42.726335,-5.921012,-16.874692,4.63582E+18,0.705687,-0.412456,0.294766,0.494974,-19.258572,-16.938629,14.584626,-3.351823,2.242674,0.652201,39.715166,-1.492296,20.618308,4.63583E+18,-0.623791,-0.402865,-0.654982,0.139938,0
-11.763526,-1.27854,2.778339,-0.813696,-1.081549,0.876372,40.349511,-22.079976,-4.847205,4.63583E+18,0.710423,-0.219183,0.485508,0.459935,-1.988087,-8.546112,-0.285225,0.292786,-1.49872,-0.312605,42.533328,-5.771818,-17.29961,4.63582E+18,0.708638,-0.408887,0.290407,0.496293,-22.601603,-13.380797,17.922446,-2.268008,2.240974,0.877497,38.731522,-1.787529,21.431772,4.63583E+18,-0.621915,-0.400596,-0.660618,0.12778,0
-8.890922,-1.455146,2.295006,-0.647144,-0.560662,0.789345,40.136315,-22.387571,-5.273613,4.63583E+18,0.709379,-0.218496,0.483342,0.464135,-1.225103,-8.210364,0.249482,0.460058,-1.409948,-0.175419,42.374639,-5.788589,-17.799748,4.63582E+18,0.711455,-0.404826,0.286879,0.497643,-27.036195,2.640187,18.583152,-1.410648,2.243328,1.330284,38.458303,-2.842093,22.313894,4.63583E+18,-0.618736,-0.401728,-0.664937,0.116783,0
-7.356233,-1.735054,2.49434,-0.505605,-0.039348,0.569859,40.148501,-22.45024,-5.43392,4.63583E+18,0.707827,-0.218836,0.482784,0.466917,-0.963922,-7.114093,1.98564,0.594316,-1.313774,-0.033825,42.215943,-5.866739,-18.373495,4.63582E+18,0.714063,-0.400382,0.284141,0.499071,-29.214777,11.41356,17.528119,-0.987957,2.095079,1.850891,39.34767,-4.731937,23.040336,4.63583E+18,-0.61542,-0.405259,-0.667697,0.105846,0
-7.106229,-1.912484,2.65319,-0.386688,0.260883,0.274061,40.296638,-22.397308,-5.455883,4.63583E+18,0.706351,-0.220001,0.483069,0.468308,-1.952695,-5.29037,4.44563,0.6609,-1.242162,0.112301,42.013456,-5.947279,-18.720889,4.63582E+18,0.716368,-0.395701,0.281989,0.500718,-28.250466,8.99349,18.318043,-0.5939,1.864665,2.379254,39.096845,-5.644542,23.523407,4.63583E+18,-0.612216,-0.411105,-0.668697,0.095023,0
-8.040884,-1.991386,1.853293,-0.263499,0.499006,-0.039093,40.285266,-22.557611,-5.515332,4.63583E+18,0.705112,-0.221901,0.484005,0.468313,-3.996714,-2.876177,6.615113,0.638023,-1.177448,0.234348,41.723127,-6.032726,-18.916199,4.63582E+18,0.718281,-0.391068,0.280174,0.502633,-27.64954,4.378479,18.179149,-0.274088,1.612583,2.62305,37.861546,-5.801004,23.947389,4.63583E+18,-0.609163,-0.418278,-0.6684,0.084886,0
-10.394079,-2.170457,1.103588,-0.187632,0.927094,-0.321742,40.201439,-22.683028,-5.36973,4.63583E+18,0.703618,-0.224986,0.486077,0.46694,-5.66198,-0.711827,8.047331,0.530071,-1.113983,0.289856,41.503014,-6.169289,-19.337853,4.63582E+18,0.719807,-0.386814,0.278405,0.504722,-26.130361,-0.517214,16.071547,0.214813,1.466866,2.729802,37.166126,-6.456344,24.500172,4.63583E+18,-0.605601,-0.426869,-0.667265,0.076078,0
-13.985019,-2.198241,0.893801,-0.217658,1.377627,-0.526183,40.16067,-22.500776,-4.953996,4.63583E+18,0.701561,-0.229444,0.489204,0.464594,-6.763177,-0.233336,9.216616,0.402083,-1.032027,0.313981,41.400338,-6.383974,-19.904247,4.63582E+18,0.720962,-0.383079,0.276644,0.506886,-24.818801,-1.308542,14.090089,0.740065,1.434088,2.797122,36.852197,-7.44288,25.026599,4.63583E+18,-0.601114,-0.436887,-0.665646,0.068605,0
-17.973218,-1.983263,0.108696,-0.289972,1.525858,-0.659209,40.341338,-22.244394,-4.320722,4.63583E+18,0.699361,-0.23466,0.492476,0.461841,-9.31373,-0.432169,9.298614,0.307583,-0.955066,0.346427,41.232239,-6.628081,-20.188388,4.63582E+18,0.721793,-0.379744,0.27496,0.509123,-23.425114,-0.061868,10.494375,1.162229,1.336676,2.675928,36.449169,-8.064748,25.527059,4.63583E+18,-0.595988,-0.447521,-0.663765,0.062771,0
-21.695873,-2.067189,-1.703702,-0.270814,1.306548,-0.557998,40.575733,-21.989671,-3.895837,4.63583E+18,0.697406,-0.239179,0.495223,0.459535,-11.669333,-0.055073,8.442359,0.218542,-0.892252,0.348263,41.000292,-6.930617,-20.278752,4.63582E+18,0.722395,-0.376802,0.273275,0.511358,-21.409571,0.04846,5.669746,1.707364,1.167158,2.366944,36.176838,-8.424242,26.153004,4.63583E+18,-0.59013,-0.458532,-0.66178,0.059516,0
-24.087424,-1.803625,-3.369914,-0.273542,0.785699,-0.30414,40.723896,-21.766654,-3.747673,4.63583E+18,0.69602,-0.242179,0.496691,0.458479,-12.59935,-0.957685,7.906026,0.151353,-0.828386,0.361381,40.863223,-7.111871,-20.546639,4.63582E+18,0.722779,-0.374177,0.271655,0.513601,-17.697015,0.784923,3.831583,1.713371,1.160711,2.171825,35.682418,-8.750617,26.707903,4.63583E+18,-0.584135,-0.468944,-0.660043,0.056759,0
-24.359043,-1.396716,-5.256962,-0.376577,-0.047136,-0.002589,40.723896,-21.681194,-3.736311,4.63583E+18,0.695674,-0.243259,0.495848,0.459345,-12.550175,-2.864471,7.484377,0.176505,-0.77664,0.433451,40.687825,-7.141331,-20.988335,4.63582E+18,0.722979,-0.3715,0.270353,0.515945,-12.84522,-0.069949,0.351114,1.540108,1.226231,2.045808,35.003608,-9.026413,26.996474,4.63583E+18,-0.578184,-0.478534,-0.658654,0.053696,0
-23.274315,-0.794769,-5.956029,-0.528785,-0.764975,0.2449,40.722273,-21.618463,-3.712527,4.63583E+18,0.696181,-0.242887,0.492882,0.461958,-12.108322,-3.720458,6.635871,0.232969,-0.737745,0.544908,40.494756,-7.192409,-21.23822,4.63582E+18,0.722972,-0.368605,0.269458,0.518492,-7.671741,-2.899615,0.654679,1.003402,0.969869,1.505984,34.71691,-9.211048,27.338453,4.63583E+18,-0.573825,-0.485242,-0.657775,0.050965,0
-22.111282,0.460421,-4.746523,-0.762203,-0.931965,0.394647,40.689003,-21.716863,-4.128153,4.63583E+18,0.696492,-0.242556,0.489124,0.465643,-11.736936,-3.711335,6.184384,0.204411,-0.719944,0.693481,40.292295,-7.474848,-21.328576,4.63582E+18,0.722568,-0.365662,0.268778,0.521483,-5.623476,-8.926394,2.496107,0.492045,0.894071,0.632138,34.573665,-9.31596,27.791839,4.63583E+18,-0.570494,-0.488293,-0.658558,0.049072,0
-21.442105,2.176952,-3.160004,-1.05289,-0.462446,0.514065,40.508357,-21.887018,-4.750117,4.63583E+18,0.695297,-0.243733,0.48627,0.469786,-11.280985,-3.749756,6.704536,0.111766,-0.733752,0.899027,40.060381,-7.838787,-21.589086,4.63582E+18,0.721577,-0.36273,0.268164,0.525207,-9.210638,-11.768304,1.568181,-0.316078,0.795142,-0.012084,34.256893,-9.347626,28.142405,4.63583E+18,-0.568937,-0.487626,-0.660569,0.046694,0
-21.129167,3.743109,-3.47021,-1.372512,0.23403,0.661129,40.275578,-21.970839,-5.07666,4.63583E+18,0.69205,-0.246894,0.48494,0.474281,-11.183905,-3.400247,7.454667,-0.053956,-0.784707,1.155694,39.784689,-8.175666,-21.967498,4.63582E+18,0.719809,-0.359887,0.267414,0.529948,-10.587063,-12.641779,3.535707,-1.513176,0.539019,-0.459944,33.923287,-9.530122,28.089078,4.63583E+18,-0.570412,-0.482824,-0.663096,0.042602,0
-21.590002,4.47338,-4.708651,-1.708445,0.695786,0.865323,40.137943,-22.10074,-5.088738,4.63583E+18,0.687082,-0.251508,0.484461,0.47954,-12.0333,-3.074037,7.715079,-0.329896,-0.874976,1.446372,39.523268,-8.605,-22.287576,4.63582E+18,0.717056,-0.357333,0.266209,0.535982,-7.78784,-11.270685,5.103398,-2.488449,0.343537,-0.831506,33.785153,-9.828017,28.049366,4.63583E+18,-0.574274,-0.474602,-0.666024,0.037088,0
-22.723902,4.651466,-6.083257,-2.130589,0.732795,1.084422,40.11526,-22.589954,-5.259659,4.63583E+18,0.681095,-0.256939,0.48343,0.486197,-13.125365,-3.003178,7.561924,-0.660958,-0.989649,1.756932,39.342396,-9.049503,-22.568326,4.63582E+18,0.713196,-0.355144,0.264367,0.543446,-5.108548,-8.806371,5.436443,-3.0686,0.110706,-1.29378,33.774638,-10.136412,28.195972,4.63583E+18,-0.579766,-0.463597,-0.669295,0.031527,0
-23.576486,3.893128,-7.443793,-2.497311,0.261262,1.247808,39.93464,-22.972596,-5.432177,4.63583E+18,0.675251,-0.262091,0.480435,0.494496,-14.629483,-2.956726,7.487897,-1.07189,-1.103971,2.068644,39.093795,-9.420804,-22.907449,4.63582E+18,0.708079,-0.353538,0.261692,0.552405,-4.155107,-9.802331,5.746665,-3.225689,-0.10416,-1.753176,33.957078,-10.387829,28.04186,4.63583E+18,-0.585976,-0.450804,-0.672813,0.027046,0
-23.575607,3.001128,-7.786126,-2.861609,-0.480689,1.358257,39.688922,-23.143466,-5.715538,4.63583E+18,0.670165,-0.266469,0.474651,0.504559,-17.415858,-2.99303,7.048143,-1.543065,-1.212066,2.333283,38.637881,-9.857377,-23.344181,4.63582E+18,0.701678,-0.352736,0.257968,0.562742,-4.019484,-11.801655,6.322206,-3.114973,-0.20092,-2.144999,34.416256,-10.61081,27.5371,4.63583E+18,-0.592061,-0.437062,-0.676657,0.024009,0
-22.643572,2.340241,-7.418654,-3.229509,-1.036278,1.429978,39.422827,-23.338669,-6.694456,4.63583E+18,0.665478,-0.270507,0.466525,0.516061,-21.28073,-2.655593,6.126039,-2.012617,-1.288248,2.521681,38.139638,-10.350542,-23.820224,4.63582E+18,0.694096,-0.352859,0.253149,0.57414,-4.204365,-12.349855,6.888514,-2.996457,-0.274841,-2.484044,34.783123,-10.606561,27.166201,4.63583E+18,-0.597952,-0.422536,-0.680751,0.022271,0
-20.850124,1.600865,-6.478365,-3.519846,-1.452862,1.398224,39.068956,-23.670019,-7.940333,4.63583E+18,0.661165,-0.274445,0.456463,0.528378,-24.930707,-2.62359,4.553789,-2.414949,-1.305514,2.648076,37.675758,-10.846129,-24.471298,4.63582E+18,0.685476,-0.353888,0.247447,0.586221,-3.797809,-10.269892,7.434581,-2.87931,-0.33115,-2.77483,34.909135,-10.467363,26.729902,4.63583E+18,-0.603604,-0.407356,-0.68502,0.021685,0
-18.786709,0.279399,-4.991567,-3.780989,-1.667028,1.266781,38.578941,-23.830469,-9.270802,4.63583E+18,0.657043,-0.278796,0.444947,0.540915,-27.563064,-2.428443,2.197412,-2.537386,-1.215319,2.679182,37.20462,-11.200793,-25.123666,4.63582E+18,0.67633,-0.355363,0.241687,0.598233,-2.720826,-7.906058,7.95704,-2.616165,-0.35962,-2.98357,35.07767,-10.245959,26.241605,4.63583E+18,-0.608702,-0.392126,-0.689359,0.022418,0
-16.489213,-1.918089,-3.624182,-3.970433,-1.72236,1.057967,38.246837,-23.821651,-10.591704,4.63583E+18,0.653053,-0.283833,0.432463,0.553116,-29.514817,-1.708931,-0.978689,-2.281432,-0.996069,2.566832,36.728554,-11.449847,-25.63907,4.63582E+18,0.667457,-0.356689,0.236958,0.6092,-1.550787,-7.208014,8.093509,-2.053768,-0.326124,-3.096731,35.473234,-9.83169,26.031031,4.63583E+18,-0.612615,-0.377899,-0.693737,0.024994,0
-14.214866,-3.924351,-2.194125,-3.984835,-1.569863,0.788328,37.968576,-23.686485,-11.810236,4.63583E+18,0.64917,-0.289647,0.419897,0.564242,-30.317932,-1.065947,-4.489927,-1.417499,-0.721135,2.381437,36.303464,-11.796079,-26.115193,4.63582E+18,0.659944,-0.356428,0.234869,0.61828,-0.313812,-6.879179,7.538285,-1.108896,-0.221787,-3.109873,35.990818,-9.230259,25.974903,4.63583E+18,-0.614603,-0.365974,-0.698152,0.030167,0
-11.776173,-5.65725,0.376282,-3.970179,-1.00284,0.407823,37.649425,-23.589906,-12.750283,4.63583E+18,0.645004,-0.297327,0.40831,0.573454,-29.438877,0.698287,-6.749125,-0.606161,-0.469784,2.199381,36.014898,-12.313183,-26.474628,4.63582E+18,0.65378,-0.354718,0.235264,0.625617,0.669268,-4.930112,6.243981,0.040998,-0.058188,-3.035643,36.28617,-8.305564,25.947234,4.63583E+18,-0.614261,-0.357165,-0.702605,0.03824,0
-10.056847,-6.890935,0.614396,-3.85089,-0.329709,-0.015411,37.509226,-23.229577,-13.520279,4.63583E+18,0.64067,-0.30693,0.39818,0.580334,-27.490058,3.691976,-9.985137,-0.3558,-0.268193,2.01337,35.838913,-12.993875,-26.573145,4.63582E+18,0.648219,-0.353004,0.236567,0.631852,1.109327,-1.618478,3.7786,1.035373,0.135855,-2.93403,36.377262,-7.289156,25.994466,4.63583E+18,-0.611785,-0.351172,-0.707127,0.04867,0
-8.84422,-7.495766,-1.160853,-3.528042,-0.132591,-0.263869,37.560559,-22.677583,-14.203357,4.63583E+18,0.636869,-0.316485,0.388944,0.585626,-24.078042,7.446751,-12.92447,0.013218,-0.141261,1.732676,35.597681,-13.687452,-26.61433,4.63582E+18,0.643773,-0.350881,0.238757,0.636738,1.354267,1.794531,0.75281,1.719016,0.304249,-2.867251,36.488777,-6.159556,26.202037,4.63583E+18,-0.607714,-0.347088,-0.71171,0.06069,0
-8.314109,-8.209169,-3.038662,-3.141096,-0.775139,-0.302052,37.537012,-22.200636,-14.82743,4.63583E+18,0.634586,-0.323441,0.378821,0.590916,-23.658724,10.530101,-14.76793,0.496934,-0.200323,1.013016,35.285245,-14.106094,-26.707059,4.63582E+18,0.641978,-0.348006,0.241011,0.639273,1.326507,5.434881,-2.240408,2.05646,0.405632,-2.835784,36.676788,-4.862272,26.386749,4.63583E+18,-0.602735,-0.343907,-0.716269,0.073472,0
-8.231903,-9.408346,-2.897649,-2.747231,-1.722816,-0.215139,37.449075,-21.810782,-15.695293,4.63583E+18,0.634001,-0.326821,0.367211,0.596981,-25.82914,8.555215,-13.647452,0.856737,-0.410287,0.023953,35.062585,-14.209417,-26.74642,4.63582E+18,0.643538,-0.344596,0.242223,0.639094,1.356664,9.952281,-6.474782,1.817348,0.383384,-2.890636,36.884296,-3.582255,26.545432,4.63583E+18,-0.598019,-0.339883,-0.72077,0.085696,0
-8.301986,-10.98533,0.226589,-2.332153,-2.266296,-0.085745,37.392286,-21.503978,-17.037365,4.63583E+18,0.634373,-0.327495,0.355308,0.603386,-28.349624,1.691837,-9.1668,1.021835,-0.715056,-0.010804,35.100659,-14.406197,-26.74642,4.63582E+18,0.645721,-0.339959,0.243002,0.639079,1.710686,16.154786,-10.923394,0.910223,0.28989,-2.993525,36.921697,-2.387712,26.784683,4.63583E+18,-0.594718,-0.333193,-0.725368,0.095569,0
-9.169855,-12.931373,5.197421,-2.054545,-2.127804,0.146263,37.092967,-21.175255,-18.231595,4.63583E+18,0.634225,-0.327385,0.344724,0.609707,-23.991036,-9.571407,-4.709017,0.553033,-1.258778,0.260721,35.133092,-14.888805,-26.848442,4.63582E+18,0.647049,-0.334851,0.241447,0.641019,1.759484,23.370623,-13.849142,-0.31951,0.240544,-2.994655,36.610774,-1.332129,26.91896,4.63583E+18,-0.593173,-0.323378,-0.730214,0.101781,0
-9.247727,-15.214805,8.644727,-2.137387,-1.420805,0.529928,36.615126,-20.795074,-18.974018,4.63583E+18,0.631887,-0.328693,0.336276,0.616116,-26.012956,-17.999521,-6.66381,0.139506,-2.053203,-0.378067,34.76606,-14.979257,-27.157755,4.63582E+18,0.65027,-0.329361,0.235741,0.642726,1.491729,29.308607,-15.958428,-1.506429,0.322159,-2.786215,36.48223,-0.605457,26.798495,4.63583E+18,-0.592966,-0.311244,-0.735361,0.103742,0
-6.685226,-14.376435,8.08354,-2.082117,-0.422444,0.814436,36.327613,-20.582559,-19.43641,4.63583E+18,0.627352,-0.332024,0.330913,0.621841,-25.755388,-12.451034,-7.403961,-1.082156,-2.749694,-1.483926,34.236052,-14.436429,-27.902983,4.63582E+18,0.655372,-0.326358,0.223328,0.643508,1.188996,33.382421,-17.208385,-2.358126,0.483874,-2.332684,36.762195,-0.260421,26.800135,4.63583E+18,-0.593452,-0.298408,-0.740551,0.101745,0
-3.98059,-10.638614,6.434032,-1.892465,0.383083,0.890037,36.317024,-20.53108,-19.714802,4.63583E+18,0.621793,-0.336773,0.328263,0.626259,-15.23747,-10.583281,-4.817765,-4.443089,-3.531754,-2.263755,33.771973,-13.196384,-29.345827,4.63582E+18,0.658447,-0.331024,0.198615,0.646082,-0.025931,35.440424,-17.755232,-2.737787,0.690649,-1.640231,36.758943,-0.257977,27.168763,4.63583E+18,-0.59395,-0.286801,-0.745412,0.096589,0
-1.818574,-5.586786,6.690187,-1.867932,0.583881,0.914422,36.284678,-20.711686,-19.897913,4.63583E+18,0.615879,-0.341921,0.326205,0.630375,-18.759573,-21.134892,-6.147253,-7.658988,-4.309707,-2.379349,33.02653,-11.082526,-31.176544,4.63582E+18,0.657352,-0.342167,0.162751,0.6514,-2.149074,35.805133,-17.984742,-2.781959,0.888964,-0.810671,36.451343,-0.576148,27.662737,4.63583E+18,-0.594116,-0.277691,-0.749663,0.08899,0
0.710464,-1.075857,7.641345,-2.192859,0.79362,0.981557,36.051856,-20.925106,-20.081016,4.63583E+18,0.608978,-0.348329,0.323895,0.634748,-25.822082,-22.764466,-13.103105,-8.507555,-4.360134,-2.056917,31.972441,-8.458914,-32.888811,4.63582E+18,0.653185,-0.354746,0.124654,0.657241,-2.994851,35.845813,-18.451023,-2.650235,1.075463,0.0499,36.138826,-1.149058,27.948421,4.63583E+18,-0.593776,-0.271622,-0.75322,0.079444,0
3.225186,2.441213,5.814887,-2.603616,0.79051,1.078885,35.901266,-20.90341,-20.280233,4.63583E+18,0.601145,-0.355594,0.320589,0.639844,-31.552265,-15.330199,-21.280843,-7.609762,-4.206591,-2.285491,30.849494,-5.73699,-34.320283,4.63582E+18,0.649887,-0.364878,0.088904,0.660763,-1.742592,34.576431,-18.281852,-2.460321,1.244589,0.82261,35.84585,-1.721187,28.164898,4.63583E+18,-0.59286,-0.268465,-0.756153,0.06838,0
4.049869,4.887969,0.598936,-2.681854,-0.355958,1.291433,35.784229,-20.67056,-20.620944,4.63583E+18,0.594073,-0.359655,0.314473,0.647173,-38.51981,-13.350149,-24.266393,-6.242244,-4.285575,-2.746352,29.777517,-3.218945,-35.572992,4.63582E+18,0.64914,-0.370799,0.055889,0.661817,0.290945,33.436252,-17.385987,-2.145266,1.495709,1.526749,35.4992,-2.449467,28.44726,4.63583E+18,-0.590912,-0.268336,-0.758717,0.056279,0
5.463343,6.932544,-3.286485,-2.664542,-1.025849,1.487223,35.515825,-20.523158,-21.207667,4.63583E+18,0.58728,-0.361546,0.306988,0.655855,-43.880359,-13.233574,-26.158532,-4.095177,-4.36919,-3.182952,28.601603,-1.078882,-36.664974,4.63582E+18,0.652306,-0.370428,0.027838,0.660685,1.901594,29.442148,-16.932535,-1.431934,1.68479,2.049459,35.150887,-3.538251,28.97617,4.63583E+18,-0.587599,-0.271618,-0.760877,0.044926,0
7.486569,7.828379,-2.6589,-2.697426,-0.176813,1.444737,35.156414,-20.427324,-21.817655,4.63583E+18,0.579362,-0.365829,0.301374,0.663085,-42.727923,-10.99646,-27.275028,-1.901958,-4.399211,-3.487124,27.142846,0.592819,-37.670836,4.63582E+18,0.659237,-0.363788,0.005252,0.658055,8.681578,29.992191,-19.823921,-1.034732,1.914063,1.919681,34.683789,-4.555589,29.505996,4.63583E+18,-0.582996,-0.275463,-0.763557,0.034883,0
6.853635,6.063683,0.119369,-3.042378,1.463818,1.141137,35.261213,-20.171906,-21.988061,4.63583E+18,0.569583,-0.375787,0.298247,0.667389,-38.364719,-3.564843,-27.340879,-0.615963,-4.313753,-3.634188,25.621474,1.613598,-38.497092,4.63582E+18,0.668134,-0.353641,-0.0138,0.654481,8.147626,-6.401239,-10.447475,-0.543727,1.811794,1.490139,34.108485,-5.221338,30.015404,4.63583E+18,-0.578022,-0.279085,-0.766318,0.02756,0
3.041131,3.656086,0.835561,-3.512053,2.631535,0.706656,35.494785,-19.808389,-21.903514,4.63583E+18,0.55866,-0.390539,0.295818,0.669231,-39.142208,6.213773,-27.871949,-0.211358,-4.204095,-3.626962,24.100703,2.341114,-39.263355,4.63582E+18,0.677247,-0.342475,-0.031426,0.650431,-18.969461,-5.387839,-1.90739,-1.54101,1.719874,-0.541581,33.617717,-5.61285,30.375984,4.63583E+18,-0.57421,-0.273781,-0.771259,0.02205,0
-0.990956,2.618421,0.630771,-3.931018,2.004154,0.182171,35.716324,-19.214487,-21.807703,4.63583E+18,0.54902,-0.405063,0.289757,0.671224,-39.323691,9.138452,-27.257267,-0.339958,-4.300211,-3.44394,22.637715,3.16819,-40.061765,4.63582E+18,0.685307,-0.331253,-0.049395,0.646673,-35.822836,-22.601618,-30.30173,-1.619757,1.922779,-0.331053,33.219731,-5.933503,30.815387,4.63583E+18,-0.569794,-0.268956,-0.776374,0.015551,0
-3.453575,1.776502,2.624007,-4.074625,0.087495,-0.184615,35.787963,-18.567438,-22.189632,4.63583E+18,0.542302,-0.414866,0.278197,0.675575,-34.105278,7.259706,-23.225541,-0.569626,-4.367141,-3.074792,21.233964,4.015596,-40.746012,4.63582E+18,0.691689,-0.320412,-0.067639,0.643683,-28.598017,-28.204701,-30.447575,-1.114943,1.84642,0.178204,32.62661,-6.322442,31.455737,4.63583E+18,-0.565037,-0.266946,-0.780629,0.00956,0
-4.280402,1.284754,5.598197,-4.164555,-1.176388,-0.372714,35.848991,-17.888299,-23.021004,4.63583E+18,0.537345,-0.421364,0.263172,0.681508,-25.808584,6.507982,-17.878401,-0.89932,-4.131496,-2.519944,19.684505,4.775281,-41.356395,4.63582E+18,0.69589,-0.311162,-0.085316,0.641588,-34.597021,-5.80559,-14.82718,-1.968111,1.660269,0.610677,31.883652,-6.73748,32.008394,4.63583E+18,-0.561793,-0.2643,-0.783922,-0.000016,0
-4.688765,1.405312,6.863146,-4.058827,-0.457548,-0.512465,35.910024,-16.984355,-23.934973,4.63583E+18,0.532011,-0.429688,0.249728,0.685543,-19.514677,7.831768,-14.195548,-1.480992,-3.630117,-1.834251,18.138548,5.451784,-41.966708,4.63582E+18,0.697423,-0.305066,-0.102175,0.640387,-33.264415,0.659734,2.97326,-2.203264,1.518717,1.191883,31.462928,-7.314799,32.231795,4.63583E+18,-0.559195,-0.262966,-0.78614,-0.011565,0
-6.411882,0.727989,3.727483,-3.875589,0.679762,-0.908531,35.993626,-15.963225,-24.213969,4.63583E+18,0.526797,-0.44114,0.238547,0.686277,-17.164867,9.673744,-13.428327,-2.270723,-3.023161,-1.070601,16.901716,6.251518,-42.577019,4.63582E+18,0.695965,-0.303119,-0.118376,0.640109,-30.235722,7.712073,13.346871,-1.823019,1.32369,1.632995,31.295458,-8.344986,32.353944,4.63583E+18,-0.55672,-0.263935,-0.787329,-0.02268,0
-9.808095,-1.608258,-0.579365,-3.50292,0.930201,-1.413349,36.269059,-14.741593,-24.131246,4.63583E+18,0.523228,-0.4529,0.227928,0.684955,-15.337178,10.269492,-13.754678,-3.103594,-2.383261,-0.220139,16.009374,7.300393,-42.845399,4.63582E+18,0.691315,-0.305631,-0.133837,0.640907,-21.766199,5.146532,12.716904,-0.940688,1.215483,2.107504,30.993845,-9.35527,32.547829,4.63583E+18,-0.553514,-0.268486,-0.787732,-0.03188,0
-14.149318,-5.039381,-3.95037,-3.143841,0.765298,-1.431717,36.787058,-13.624883,-24.373074,4.63583E+18,0.520511,-0.463282,0.217943,0.683329,-10.805453,8.939449,-13.891536,-3.791869,-1.610556,0.871185,15.342221,8.447807,-42.707406,4.63582E+18,0.683104,-0.312709,-0.147481,0.643297,-11.622302,7.098386,9.16778,-0.436371,1.287727,2.374793,30.394215,-10.020177,32.839381,4.63583E+18,-0.549405,-0.275034,-0.787973,-0.040118,0
-18.841663,-8.17266,-5.387222,-3.012822,1.174153,-0.721222,36.998092,-12.743053,-24.466452,4.63583E+18,0.515541,-0.473805,0.210542,0.682201,-5.306478,6.276903,-14.915812,-4.051583,-0.680053,1.955683,14.976869,9.595329,-42.451044,4.63582E+18,0.671991,-0.32358,-0.15771,0.647188,-2.635255,4.794518,1.279441,-0.305641,1.360291,2.435913,29.710601,-10.644559,33.084957,4.63583E+18,-0.544825,-0.282033,-0.788229,-0.048145,0
-23.052824,-11.638427,-6.741624,-2.868662,1.289058,0.203749,37.093842,-12.106448,-24.222994,4.63583E+18,0.507943,-0.483472,0.205522,0.682649,-1.92278,3.067648,-15.540269,-3.844878,0.186757,2.850547,15.118573,10.604564,-42.180144,4.63582E+18,0.659056,-0.336674,-0.163688,0.652306,4.900246,2.335912,-6.830814,-0.430559,1.437539,2.149331,29.197593,-11.345351,33.376478,4.63583E+18,-0.540127,-0.287757,-0.788873,-0.056017,0
-20.950407,-12.611691,-12.01462,-2.446519,-0.680169,0.797662,37.260832,-11.650348,-24.199294,4.63583E+18,0.501116,-0.486061,0.198699,0.687856,0.28875,-0.744956,-15.246437,-3.325111,0.959735,3.820931,15.693407,11.323652,-41.841189,4.63582E+18,0.644454,-0.350957,-0.164698,0.659077,7.272006,2.126236,-13.293354,-0.925472,1.284234,1.686303,28.58437,-12.065565,33.837472,4.63583E+18,-0.536578,-0.290851,-0.78953,-0.064283,0
-13.63714,-9.597005,-16.333682,-2.070934,-3.449317,1.503172,36.779352,-11.484905,-25.175136,4.63583E+18,0.495207,-0.479234,0.188559,0.699679,1.603721,-1.907821,-15.413132,-2.721046,1.786048,4.670719,16.699709,11.713184,-41.280887,4.63582E+18,0.628637,-0.366288,-0.160502,0.666999,6.234793,3.08593,-15.054595,-1.462219,1.158848,1.323317,27.841157,-12.785801,34.000131,4.63583E+18,-0.534141,-0.291558,-0.790131,-0.073346,0
-8.935008,-7.886489,-10.91192,-1.609667,-4.243218,1.981385,35.418763,-11.827702,-26.820695,4.63583E+18,0.489261,-0.468582,0.179014,0.713449,1.414345,-1.904469,-15.73719,-2.325783,2.621146,5.358714,17.959166,11.773117,-40.655472,4.63582E+18,0.611669,-0.383129,-0.151867,0.675285,1.535556,4.267432,-11.872915,-1.648993,1.134153,1.072572,27.296524,-13.443152,33.821359,4.63583E+18,-0.532041,-0.291006,-0.790856,-0.082429,0
-5.653145,-4.923375,-1.088645,-1.570507,-2.957243,1.903434,34.465043,-12.060914,-28.017572,4.63583E+18,0.482492,-0.461566,0.171999,0.724275,-0.021538,-1.423438,-15.56361,-2.091042,3.455794,5.929579,19.551294,11.612589,-40.05501,4.63582E+18,0.593504,-0.401772,-0.139411,0.683298,-4.765335,6.659806,-7.01747,-1.744333,1.050069,0.933294,26.958298,-14.140736,33.977827,4.63583E+18,-0.530334,-0.289786,-0.791463,-0.091408,0
-3.034892,-0.419727,2.221563,-1.649576,-0.696468,1.456823,34.304742,-12.073757,-28.469571,4.63583E+18,0.475314,-0.461744,0.168467,0.729718,-1.719438,-0.430889,-14.794846,-1.920483,4.310392,6.389527,21.49102,11.189249,-39.277443,4.63582E+18,0.574221,-0.422291,-0.123447,0.690436,-11.06743,7.086859,-2.153214,-1.666061,0.951773,0.955756,26.611507,-14.968588,34.291959,4.63583E+18,-0.528804,-0.288827,-0.791792,-0.100052,0
-2.556612,2.000771,-3.888467,-1.391461,0.115423,0.931798,34.124236,-12.147347,-28.735247,4.63583E+18,0.469622,-0.464214,0.166305,0.732327,-3.308775,0.285465,-13.885766,-1.814281,5.12677,6.814932,23.631523,10.533149,-38.320827,4.63582E+18,0.553626,-0.44461,-0.104327,0.696374,-16.61431,5.938555,0.655416,-1.435503,0.849425,1.148447,26.182486,-15.664803,34.393994,4.63583E+18,-0.527215,-0.289033,-0.791701,-0.10823,0
-5.407836,3.229295,-5.864292,-1.240768,0.320305,0.585512,33.923387,-12.061902,-28.772606,4.63583E+18,0.465114,-0.467234,0.164326,0.733729,-5.424262,1.780738,-12.466602,-1.925691,5.906772,7.130343,26.037371,9.667476,-37.079848,4.63582E+18,0.531453,-0.468944,-0.082997,0.700543,-20.153653,4.848752,0.930376,-1.215418,0.697357,1.523757,25.65903,-16.191914,34.068468,4.63583E+18,-0.525654,-0.291008,-0.790868,-0.116315,0
-9.035416,2.435628,-2.096465,-1.125069,1.061683,0.214507,34.050555,-11.965212,-28.467745,4.63583E+18,0.461342,-0.472554,0.163346,0.732922,-8.798752,3.897038,-12.0876,-2.27863,6.602831,7.149696,28.474411,8.65231,-35.574368,4.63582E+18,0.5079,-0.495324,-0.060981,0.70212,-21.730944,4.042709,-0.596401,-0.999361,0.660489,1.938637,25.163576,-16.671195,33.823185,4.63583E+18,-0.52371,-0.294818,-0.789493,-0.124543,0
-12.809499,-0.990237,-2.38642,-0.925833,1.284926,0.03818,34.454996,-11.783084,-28.042365,4.63583E+18,0.458328,-0.478271,0.163047,0.731169,-12.14351,4.084647,-12.220406,-2.858598,7.158069,7.185417,30.799073,7.646077,-33.825063,4.63582E+18,0.482256,-0.523655,-0.039302,0.701192,-21.259592,3.836361,-2.797485,-0.915134,0.61465,2.347506,24.714416,-17.497151,33.87657,4.63583E+18,-0.521548,-0.300149,-0.78748,-0.133318,0
-17.373865,-5.295423,-4.464329,-0.443753,0.754962,0.012567,34.836348,-11.550795,-27.906738,4.63583E+18,0.456803,-0.481433,0.163215,0.730009,-14.554368,3.741937,-11.877335,-3.519929,7.612323,7.168696,33.239436,6.473187,-31.492021,4.63582E+18,0.454318,-0.553576,-0.018599,0.697713,-19.943852,4.281691,-4.294028,-0.897939,0.506821,2.691954,24.158322,-18.512128,34.010851,4.63583E+18,-0.519461,-0.30667,-0.78471,-0.142633,0
-20.702154,-9.46002,-4.332978,0.211527,-0.240302,0.126655,34.94216,-11.507998,-28.015612,4.63583E+18,0.456918,-0.48024,0.163709,0.730612,-16.832929,3.748221,-11.731041,-4.196614,7.956407,7.038397,35.676496,5.319815,-28.966917,4.63582E+18,0.424228,-0.584554,0.000528,0.691612,-19.415973,4.524227,-4.30044,-0.875485,0.345534,3.004805,23.542272,-19.370261,34.001598,4.63583E+18,-0.517605,-0.314309,-0.781084,-0.152324,0
-20.230463,-11.468555,-2.168709,0.909398,-0.564576,0.406982,34.688435,-11.700296,-28.158676,4.63583E+18,0.457789,-0.476535,0.166267,0.731915,-18.523056,2.644702,-12.177386,-4.857235,8.200285,6.937978,37.892118,4.262684,-26.358172,4.63582E+18,0.391825,-0.616031,0.017937,0.683123,-20.284837,5.136403,-3.4247,-0.802476,0.22138,3.311418,22.991473,-20.163717,33.940562,4.63583E+18,-0.515769,-0.323125,-0.776691,-0.162248,0
-16.441455,-11.304536,0.7822,1.493492,0.122989,0.595783,34.42387,-12.124911,-28.012614,4.63583E+18,0.458653,-0.473689,0.172223,0.731844,-19.304984,0.816512,-13.350657,-5.361733,8.373836,6.845147,39.778589,2.997114,-23.570556,4.63582E+18,0.357409,-0.647306,0.033911,0.672387,-22.394338,4.656163,-2.530589,-0.615428,0.159586,3.641239,22.457585,-20.957198,33.870553,4.63583E+18,-0.513546,-0.33338,-0.77168,-0.172159,0
-11.029816,-10.523985,3.253535,1.813918,1.327615,0.571458,34.554165,-12.622865,-27.63054,4.63583E+18,0.459328,-0.473891,0.181398,0.729068,-18.875098,-1.407138,-14.054817,-5.63092,8.464189,6.774211,41.3592,1.600699,-20.695169,4.63582E+18,0.321536,-0.677585,0.048987,0.659616,-24.865004,4.460685,-1.293725,-0.413677,0.137202,3.997077,21.759068,-21.929985,33.958755,4.63583E+18,-0.510729,-0.345142,-0.766074,-0.182108,0
-7.19739,-10.532004,1.054071,2.415949,1.943888,0.496358,35.002219,-13.206799,-26.713816,4.63583E+18,0.460895,-0.474811,0.193409,0.724378,-17.82764,-4.686886,-13.731515,-5.535571,8.466924,6.784422,42.785351,0.107376,-17.550118,4.63582E+18,0.28507,-0.705989,0.064231,0.645127,-26.888879,2.82993,0.157414,-0.110987,0.238673,4.299528,20.706276,-22.97655,33.970712,4.63583E+18,-0.506772,-0.358333,-0.760251,-0.191828,0
-5.587657,-9.037199,-0.887228,3.028823,2.053973,0.353993,35.567276,-13.959868,-25.664344,4.63583E+18,0.463924,-0.474909,0.207158,0.718555,-17.901894,-9.500745,-12.643625,-4.849892,8.389534,6.894187,43.94436,-1.462326,-14.532817,4.63582E+18,0.249626,-0.731563,0.081385,0.629189,-28.905835,0.673452,1.105374,0.270842,0.454785,4.535721,19.591414,-23.739397,33.916154,4.63583E+18,-0.501202,-0.372783,-0.75458,-0.201095,0
-5.493441,-5.683967,-0.618637,3.393595,2.500109,0.191688,35.983346,-14.830231,-24.847467,4.63583E+18,0.467737,-0.475627,0.222541,0.710969,-18.630185,-14.567092,-10.189095,-3.559351,8.274875,7.020189,44.661903,-3.334768,-11.713245,4.63582E+18,0.217232,-0.753724,0.101994,0.611807,-30.272491,-1.064854,0.328753,0.603534,0.807083,4.871867,18.501812,-24.219193,34.079306,4.63583E+18,-0.493529,-0.388544,-0.749104,-0.210487,0
-6.94028,-1.801378,-1.335512,3.343324,3.098359,-0.060467,36.369905,-15.517924,-23.857235,4.63583E+18,0.471479,-0.478295,0.238359,0.701517,-19.819674,-17.557787,-5.753594,-2.044384,8.195091,6.985272,44.997914,-5.707778,-8.71912,4.63582E+18,0.189241,-0.772685,0.12606,0.592667,-33.203618,-3.004716,-2.427555,0.754796,0.706348,4.944767,17.307784,-24.697,34.386213,4.63583E+18,-0.485651,-0.404763,-0.743112,-0.219304,0
-9.445388,0.454071,-2.401827,2.990814,3.277977,-0.44814,37.080689,-15.898972,-22.261977,4.63583E+18,0.475311,-0.482398,0.252644,0.691045,-23.44771,-19.255213,-0.075496,-0.661738,8.103545,6.798994,45.154586,-8.087394,-5.671614,4.63582E+18,0.165825,-0.788868,0.152612,0.571751,-41.042925,-1.866569,-5.905379,0.346645,0.112149,4.29068,16.18244,-25.251305,34.572341,4.63583E+18,-0.480714,-0.418521,-0.736366,-0.226977,0
-13.003363,3.169928,-1.158079,2.484061,2.896694,-0.879558,37.95265,-16.206774,-21.053582,4.63583E+18,0.479626,-0.486715,0.26377,0.680803,-29.826067,-21.702326,7.329709,0.341699,7.925025,6.468122,44.942487,-10.384409,-2.610475,4.63582E+18,0.146294,-0.802655,0.180055,0.549475,-50.919472,-0.181459,-9.816054,-0.295483,-0.635196,3.358108,15.365053,-25.699479,34.419703,4.63583E+18,-0.479948,-0.428729,-0.728951,-0.233392,0
-18.274486,5.779385,3.397922,1.803049,2.365726,-1.318813,38.687702,-16.394986,-20.041271,4.63583E+18,0.484285,-0.49126,0.270953,0.671353,-37.491084,-24.692927,16.396072,1.067171,7.671952,6.201879,44.350512,-12.672273,0.417346,4.63582E+18,0.129729,-0.814205,0.207794,0.526368,-54.334634,-8.040712,-9.203495,-0.790336,-0.97785,2.785038,14.886907,-25.98576,34.091635,4.63583E+18,-0.481578,-0.436463,-0.721261,-0.23951,0
-25.326231,7.975424,8.419748,1.451878,2.373253,-1.98321,39.314325,-16.146436,-18.752336,4.63583E+18,0.489989,-0.497189,0.27576,0.66081,-46.240645,-29.535278,25.488226,1.419727,7.304898,5.812603,43.654774,-14.828699,3.293922,4.63582E+18,0.115318,-0.82377,0.234449,0.503129,-54.630612,-16.806017,-5.44713,-1.102694,-0.941549,2.83718,14.49627,-26.516803,33.800377,4.63583E+18,-0.483536,-0.443616,-0.713118,-0.2467,0
-33.607888,10.07666,9.503608,1.090898,1.48966,-2.155722,39.631126,-15.445345,-17.865258,4.63583E+18,0.496354,-0.501537,0.277365,0.652045,-58.67803,-40.040264,34.754772,1.193595,6.703913,5.242268,42.762844,-16.821799,5.927386,4.63582E+18,0.10175,-0.831575,0.258052,0.481185,-55.160272,-24.741849,-2.328081,-1.143303,-0.558657,3.208502,13.881558,-27.393571,33.621481,4.63583E+18,-0.483958,-0.451313,-0.704884,-0.25542,0
-33.71856,10.333901,11.605072,0.381441,-0.038238,-2.054671,39.864655,-14.648209,-17.827594,4.63583E+18,0.502672,-0.503031,0.274061,0.647434,-64.882182,-54.354724,44.177594,0.900885,5.844428,4.88839,41.831855,-18.452769,8.144298,4.63582E+18,0.088683,-0.837204,0.27918,0.461825,-51.46695,-33.202808,0.844762,-0.746336,-0.102104,3.651868,13.30229,-28.062113,33.466034,4.63583E+18,-0.481715,-0.460526,-0.697005,-0.264672,0
-24.551499,5.826533,16.20561,0.033937,0.412614,-2.100344,40.140608,-13.989136,-17.813245,4.63583E+18,0.50783,-0.506485,0.270644,0.642132,-58.729352,-61.880817,52.183768,0.969953,4.723365,4.021863,40.914408,-19.728385,9.933191,4.63582E+18,0.078752,-0.840944,0.296765,0.445579,-42.102518,-47.331622,1.303179,1.306324,0.984979,4.224201,12.290072,-28.283021,33.379051,4.63583E+18,-0.471603,-0.474185,-0.692266,-0.27112,0
-15.082758,1.755472,15.971295,-0.343059,1.451414,-1.871781,40.617798,-13.339431,-17.448038,4.63583E+18,0.510363,-0.513213,0.268873,0.635491,-53.720985,-59.405297,55.445131,1.614658,3.006906,2.612067,40.100223,-20.609828,11.336574,4.63582E+18,0.07578,-0.842607,0.309896,0.433861,-38.496474,-17.127664,-1.14674,1.041826,3.739428,6.474609,10.012815,-28.586785,33.703384,4.63583E+18,-0.451215,-0.490385,-0.687733,-0.288012,0
-4.988132,-0.303817,10.529376,-0.30928,1.633212,-1.62053,41.011074,-12.76464,-17.019734,4.63583E+18,0.512049,-0.520021,0.268087,0.628898,-50.392748,-53.012628,54.083144,2.141173,0.998108,1.539312,39.517896,-21.090179,12.356723,4.63582E+18,0.079172,-0.841664,0.319506,0.428076,-41.782174,21.285593,-23.009255,1.713903,4.069885,5.663672,7.473981,-28.794931,34.445029,4.63583E+18,-0.429056,-0.50467,-0.685639,-0.301859,0
3.283859,-2.393744,8.217175,-0.156413,1.369829,-1.27109,41.350195,-12.275336,-16.665755,4.63583E+18,0.513403,-0.525384,0.267874,0.623405,-44.481802,-49.752252,52.980129,1.883313,-0.553376,0.23819,39.363612,-21.032631,12.758733,4.63582E+18,0.086037,-0.839685,0.323549,0.427601,-48.38164,17.307272,-39.464001,0.979667,0.672714,3.284875,5.834973,-28.744276,35.188769,4.63583E+18,-0.4209,-0.514844,-0.681172,-0.306242,0
9.421503,-5.458869,7.627456,0.036046,1.21304,-0.645061,41.722783,-11.901687,-16.283077,4.63583E+18,0.513702,-0.529204,0.26918,0.61935,-32.88591,-48.578102,55.68063,0.795833,-2.041012,-0.725369,39.632851,-20.797443,12.568317,4.63582E+18,0.092814,-0.836678,0.321724,0.433417,-49.571989,0.107911,-10.776215,-1.940557,-0.155443,2.64988,4.844964,-29.070213,35.126175,4.63583E+18,-0.422085,-0.519049,-0.672754,-0.315964,0
12.857051,-8.310595,3.377214,0.772453,0.779331,0.012398,41.872987,-11.837465,-15.733222,4.63583E+18,0.514404,-0.529578,0.272903,0.616815,-22.928942,-34.406393,55.249277,-0.953481,-2.616294,-2.009672,40.086488,-20.619288,11.848742,4.63582E+18,0.096569,-0.834905,0.311992,0.443022,-38.446648,-20.793226,13.01115,-3.006964,2.171617,2.804154,3.852831,-29.845202,34.372237,4.63583E+18,-0.418733,-0.518602,-0.666506,-0.333891,0
11.960636,-6.674725,2.188922,1.41224,0.612048,0.326093,41.872467,-12.029548,-15.364902,4.63583E+18,0.515884,-0.527777,0.278594,0.614574,-28.304744,-17.203471,32.185247,-1.415164,-2.709552,-3.336259,40.756253,-19.899025,10.606212,4.63582E+18,0.10126,-0.834637,0.296671,0.452895,-33.61426,-35.617504,11.897712,-2.565285,2.413336,2.60326,2.707582,-30.616683,33.746589,4.63583E+18,-0.413887,-0.517849,-0.661496,-0.350647,0
7.097753,-2.96565,5.785528,1.328345,0.859156,0.474344,41.799739,-12.442973,-15.146778,4.63583E+18,0.516487,-0.526595,0.284912,0.61218,-31.288411,-1.563604,-21.094624,0.357172,-1.308617,-7.061838,41.716611,-18.021528,9.826314,4.63582E+18,0.117348,-0.840348,0.272146,0.453852,-33.002903,-39.073641,12.271072,-1.250078,2.201659,2.295641,1.416128,-31.125048,33.508431,4.63583E+18,-0.407125,-0.518687,-0.658532,-0.362698,0
-0.058567,0.778848,10.47462,1.129926,0.198003,0.73795,41.821491,-12.858579,-14.937643,4.63583E+18,0.516748,-0.523821,0.289868,0.612013,-36.66025,20.234111,-81.945847,0.058879,0.966402,-11.904077,42.943309,-14.624548,10.055589,4.63582E+18,0.138761,-0.854579,0.230768,0.444057,-31.008783,-18.064905,9.148789,-0.648807,1.911363,1.857693,0.202062,-31.489574,33.293535,4.63583E+18,-0.400454,-0.519696,-0.656822,-0.371669,0
-6.599118,2.936572,21.35566,0.761251,-0.548358,1.128356,41.876738,-13.379683,-14.741775,4.63583E+18,0.516098,-0.519444,0.293124,0.614734,-9.143249,-45.080082,-73.836085,0.136648,-0.302689,-10.315396,44.092365,-10.610665,10.259506,4.63582E+18,0.158433,-0.863048,0.193952,0.438668,-27.277418,0.516029,3.125256,-1.366194,1.231185,0.926112,-0.521942,-31.813465,32.825434,4.63583E+18,-0.398599,-0.51796,-0.654819,-0.379538,0
-9.895648,2.353817,25.832731,1.066596,0.133665,1.659427,41.719149,-14.037226,-14.655929,4.63583E+18,0.513888,-0.515482,0.299763,0.616716,-43.09219,-73.96995,-2.647777,1.996265,-3.245808,-4.68219,44.711381,-7.763208,9.642007,4.63582E+18,0.176681,-0.859294,0.178598,0.445534,-22.831683,0.709188,3.139862,-1.788512,0.34663,-0.100388,-0.796806,-32.193528,32.338849,4.63583E+18,-0.401666,-0.514086,-0.652852,-0.384921,0
