Accelerometer-X,Accelerometer-Y,Accelerometer-Z,Gyroscope-X,Gyroscope-Y,Gyroscope-Z,Magnetometer-X,Magnetometer-Y,Magnetometer-Z,Barometer-pressure,Orientation-S,Orientation-X,Orientation-Y,Orientation-Z,Accelerometer-X,Accelerometer-Y,Accelerometer-Z,Gyroscope-X,Gyroscope-Y,Gyroscope-Z,Magnetometer-X,Magnetometer-Y,Magnetometer-Z,Barometer-pressure,Orientation-S,Orientation-X,Orientation-Y,Orientation-Z,Accelerometer-X,Accelerometer-Y,Accelerometer-Z,Gyroscope-X,Gyroscope-Y,Gyroscope-Z,Magnetometer-X,Magnetometer-Y,Magnetometer-Z,Barometer-pressure,Orientation-S,Orientation-X,Orientation-Y,Orientation-Z,jump
-8.852613,-2.144012,1.847752,0.163815,0.001562,-0.1108,44.97766,4.898566,9.662793,4.63583E+18,0.789716,0.031489,0.604176,-0.101629,-9.39756,-0.209914,-0.835137,-0.162557,0.208917,-0.317626,40.633036,-17.875037,13.691168,4.63582E+18,0.621675,-0.29044,0.640386,0.345065,-9.125962,2.340571,-0.034962,-1.245094,0.08778,0.214175,44.807672,1.641498,-11.039539,4.63583E+18,-0.342051,-0.665932,-0.266843,0.606903,0
-8.975832,-2.107446,1.788907,0.162066,0.014666,-0.121773,44.907647,5.065028,9.783712,4.63583E+18,0.78965,0.031371,0.604224,-0.101893,-9.491444,-0.555625,-0.868866,-0.120723,0.205194,-0.269229,40.470939,-17.798393,13.846594,4.63582E+18,0.621288,-0.291718,0.640551,0.344377,-8.972975,2.368236,0.146755,-1.173083,0.097747,0.213867,44.734431,1.678918,-10.874344,4.63583E+18,-0.345665,-0.66476,-0.269255,0.605071,0
-9.126754,-2.166292,1.781185,0.167412,0.016118,-0.129442,44.849998,5.12711,9.752569,4.63583E+18,0.789574,0.031268,0.604273,-0.102218,-9.548706,-0.616662,-0.772465,-0.05822,0.206153,-0.217737,40.386748,-17.798393,13.768693,4.63582E+18,0.6209,-0.292698,0.640869,0.343654,-8.833547,2.395093,0.121803,-1.125828,0.099789,0.220513,44.697001,1.60568,-10.815217,4.63583E+18,-0.349155,-0.663654,-0.271525,0.603265,0
-9.211055,-2.290598,1.848893,0.173624,0.032636,-0.127302,44.896632,5.0183,9.662689,4.63583E+18,0.789461,0.031176,0.604375,-0.102521,-9.565572,-0.65631,-0.679467,0.009732,0.207033,-0.165652,40.319795,-17.790845,13.777873,4.63582E+18,0.620516,-0.293363,0.64135,0.342883,-8.633618,2.493023,0.176601,-1.070972,0.112915,0.230934,44.791135,1.568245,-10.868115,4.63583E+18,-0.352496,-0.662658,-0.273639,0.601459,0
-9.298741,-2.351593,1.848854,0.182656,0.056326,-0.116133,44.923244,4.956206,9.693814,4.63583E+18,0.789293,0.031139,0.60455,-0.102791,-9.533075,-0.509851,-0.529592,0.081002,0.216785,-0.12573,40.316379,-17.707571,13.981941,4.63582E+18,0.620135,-0.293751,0.642005,0.342012,-8.675662,2.554059,0.258794,-0.990959,0.115431,0.241069,44.911037,1.644471,-10.803552,4.63583E+18,-0.355633,-0.661784,-0.275525,0.599711,0
-9.377521,-2.324943,1.854425,0.197126,0.067489,-0.094087,44.822215,5.065007,9.783701,4.63583E+18,0.789101,0.031235,0.604751,-0.103056,-9.653009,-0.360833,-0.457597,0.127801,0.236642,-0.091986,40.39089,-17.545447,14.233832,4.63582E+18,0.61971,-0.293955,0.642818,0.341078,-8.768175,2.638951,0.398477,-0.897255,0.102354,0.252817,44.91402,1.649384,-10.779691,4.63583E+18,-0.358551,-0.661018,-0.277119,0.598081,0
-9.3997,-2.353817,1.883272,0.218585,0.089825,-0.064668,44.818935,5.173727,9.752595,4.63583E+18,0.788857,0.031513,0.605011,-0.103314,-9.844194,-0.198728,-0.402844,0.146761,0.252554,-0.062408,40.476338,-17.477591,14.204927,4.63582E+18,0.619222,-0.294053,0.643735,0.34015,-8.719622,2.833439,0.588661,-0.801644,0.089512,0.261435,44.923244,1.464888,-10.682032,4.63583E+18,-0.361238,-0.660364,-0.278428,0.596577,0
-9.454087,-2.427061,1.837761,0.247911,0.121189,-0.038451,44.896617,5.153737,9.717093,4.63583E+18,0.788541,0.031969,0.605357,-0.103558,-9.881719,-0.142161,-0.421676,0.181017,0.266738,-0.036476,40.544205,-17.554245,13.953062,4.63582E+18,0.6187,-0.294013,0.644767,0.339179,-8.655049,3.073005,0.661625,-0.715478,0.07468,0.262716,44.90535,1.485764,-10.584375,4.63583E+18,-0.363705,-0.659796,-0.279495,0.595206,0
-9.562844,-2.399304,1.822234,0.281993,0.138569,-0.021071,44.822246,5.12711,9.779247,4.63583E+18,0.788183,0.032588,0.605744,-0.103829,-9.814407,-0.316137,-0.621104,0.205554,0.275203,-0.019227,40.467541,-17.537926,14.002019,4.63582E+18,0.618159,-0.293874,0.645875,0.338175,-8.646106,3.130492,0.801294,-0.656922,0.04475,0.269434,44.849998,1.511585,-10.486725,4.63583E+18,-0.366061,-0.659244,-0.280351,0.59397,0
-9.630532,-2.228401,1.893259,0.317241,0.157698,-0.016022,44.717937,5.23587,10.05558,4.63583E+18,0.787769,0.033364,0.606176,-0.104198,-9.717424,-0.241239,-0.967886,0.21908,0.290207,-0.019336,40.466287,-17.386773,14.457989,4.63582E+18,0.617594,-0.293721,0.647039,0.337115,-8.660163,3.330076,1.077952,-0.61016,0.014133,0.269198,44.891735,1.335002,-10.436765,4.63583E+18,-0.368321,-0.658681,-0.281042,0.592869,0
-9.690455,-1.993149,1.913234,0.349768,0.188381,-0.024858,44.792282,5.344619,10.193182,4.63583E+18,0.787265,0.034256,0.606695,-0.1047,-9.823202,0.31113,-1.324662,0.219381,0.285797,-0.020404,40.446566,-17.302583,14.709921,4.63582E+18,0.61704,-0.293562,0.648189,0.336056,-8.831062,3.8053,1.400586,-0.57865,-0.028852,0.265186,45.000039,1.198454,-10.486728,4.63583E+18,-0.370532,-0.658051,-0.281598,0.591927,0
-9.779231,-1.896588,1.912122,0.375306,0.212365,-0.043501,44.79563,5.324655,10.068908,4.63583E+18,0.786686,0.035199,0.607282,-0.105329,-9.80161,0.246335,-1.388204,0.213191,0.271063,-0.021253,40.369884,-17.236853,14.718689,4.63582E+18,0.616519,-0.293401,0.649289,0.335028,-8.960234,4.206461,1.428266,-0.574554,-0.066124,0.26485,44.914593,1.31542,-10.436753,4.63583E+18,-0.372774,-0.657329,-0.282087,0.591088,0
-9.775917,-1.876613,1.908795,0.399776,0.225767,-0.066223,44.717945,5.344616,9.997864,4.63583E+18,0.786056,0.036178,0.607905,-0.106105,-9.898951,0.152434,-1.456122,0.205193,0.258574,-0.020952,40.369884,-17.236853,14.805392,4.63582E+18,0.61602,-0.29324,0.650345,0.334038,-8.918518,3.949146,1.496799,-0.535857,-0.086343,0.273395,44.849998,1.270436,-10.55527,4.63583E+18,-0.374952,-0.656623,-0.282422,0.590334,0
-9.691586,-1.821135,1.849991,0.423371,0.239165,-0.08972,44.745668,5.425621,10.176486,4.63583E+18,0.785375,0.037186,0.608563,-0.107025,-9.882992,0.128936,-1.379437,0.166359,0.248852,-0.02747,40.369884,-17.244359,14.893032,4.63582E+18,0.615507,-0.293183,0.651312,0.333146,-8.771454,3.555334,1.726913,-0.456111,-0.117815,0.279594,44.832123,1.100116,-10.693686,4.63583E+18,-0.376961,-0.655969,-0.282492,0.589749,0
-9.59393,-1.817785,1.865497,0.445122,0.25276,-0.112539,44.722396,5.511069,10.340759,4.63583E+18,0.784641,0.03822,0.609258,-0.108083,-9.829158,0.402844,-1.385692,0.142312,0.23828,-0.033743,40.35362,-17.293835,14.911798,4.63582E+18,0.615002,-0.293189,0.65221,0.332317,-8.719064,3.603274,1.725701,-0.360352,-0.148916,0.278265,44.758889,0.897688,-10.669863,4.63583E+18,-0.378739,-0.655383,-0.28228,0.589362,0
-9.496278,-1.776757,1.868853,0.467842,0.270333,-0.13293,44.737893,5.596514,10.30641,4.63583E+18,0.783846,0.039295,0.61,-0.109277,-9.726498,0.371575,-1.412957,0.113364,0.229214,-0.030674,40.193675,-17.126386,15.094905,4.63582E+18,0.614481,-0.293248,0.653048,0.331584,-8.746154,3.815538,1.484851,-0.257949,-0.162045,0.274567,44.724348,0.842311,-10.572212,4.63583E+18,-0.380245,-0.65492,-0.281806,0.589134,0
-9.421911,-1.691303,1.808934,0.489303,0.283833,-0.147401,44.818904,5.782916,10.258661,4.63583E+18,0.782998,0.040434,0.610775,-0.110606,-9.598764,0.092666,-1.160676,0.083352,0.22527,-0.036948,40.040283,-16.907253,15.259254,4.63582E+18,0.613941,-0.293395,0.653825,0.330921,-8.81642,4.170145,1.24606,-0.177448,-0.169783,0.267324,44.806821,0.860169,-10.545989,4.63583E+18,-0.381523,-0.654553,-0.281144,0.589032,0
-9.360872,-1.504893,1.743452,0.49465,0.283934,-0.163228,44.694685,6.027075,10.316344,4.63583E+18,0.782131,0.041587,0.611545,-0.112048,-9.629142,0.04758,-1.074539,0.053794,0.224311,-0.032675,40.040283,-16.924746,15.270499,4.63582E+18,0.613362,-0.293603,0.654563,0.330351,-8.823896,4.325927,1.105535,-0.112557,-0.179629,0.26412,44.823527,0.897703,-10.738315,4.63583E+18,-0.382627,-0.65426,-0.280314,0.589037,0
-9.214427,-1.462647,1.721244,0.486011,0.232394,-0.198371,44.403968,6.115909,10.476114,4.63583E+18,0.781319,0.042904,0.612133,-0.113985,-9.607226,0.029133,-1.192855,0.039218,0.224093,-0.028403,40.031546,-17.078157,15.387843,4.63582E+18,0.612758,-0.293837,0.655285,0.329831,-8.617595,3.995801,0.96561,-0.042741,-0.190651,0.260395,44.682683,0.803632,-10.897624,4.63583E+18,-0.383542,-0.654046,-0.279304,0.589159,0
-9.088995,-1.380604,1.744536,0.479017,0.23255,-0.204507,44.335044,6.069324,10.547196,4.63583E+18,0.780501,0.044184,0.612722,-0.115923,-9.61846,-0.055344,-1.267074,0.04877,0.221629,-0.023475,39.95483,-17.060683,15.552232,4.63582E+18,0.612166,-0.294029,0.656019,0.3293,-8.332014,3.474083,0.785172,0.046406,-0.192267,0.252711,44.659707,0.627091,-10.962248,4.63583E+18,-0.384197,-0.65396,-0.278092,0.589401,0
-9.081186,-1.295107,1.742338,0.466592,0.253634,-0.193241,44.516986,6.042665,10.601546,4.63583E+18,0.779691,0.045149,0.613402,-0.117393,-9.717093,-0.233463,-1.253892,0.077634,0.216397,-0.013012,39.962319,-16.891028,15.542247,4.63582E+18,0.611608,-0.29411,0.656792,0.328723,-8.309331,3.437018,0.683615,0.131808,-0.194869,0.238539,44.768146,0.395171,-10.986039,4.63583E+18,-0.384585,-0.653987,-0.276704,0.589772,0
-9.102278,-1.367163,1.733451,0.451542,0.251601,-0.171113,44.660187,6.197912,10.749084,4.63583E+18,0.778905,0.046078,0.61408,-0.118699,-9.727076,-0.341536,-1.338094,0.117724,0.211797,-0.004686,40.036811,-16.76478,15.464555,4.63582E+18,0.6111,-0.294061,0.657617,0.328062,-8.455509,3.785709,0.677667,0.178847,-0.206851,0.228871,44.647007,0.216759,-11.080724,4.63583E+18,-0.384834,-0.654047,-0.275206,0.590243,0
-9.184345,-1.330674,1.7645,0.430864,0.263142,-0.128979,44.590395,6.395484,10.870095,4.63583E+18,0.778107,0.047078,0.614793,-0.119846,-9.812262,-0.189599,-1.405097,0.169028,0.204649,0.001068,40.113525,-16.915971,15.572157,4.63582E+18,0.610666,-0.293854,0.6585,0.327284,-8.6178,4.021242,0.638385,0.182763,-0.223654,0.222284,44.471569,0.22834,-11.145359,4.63583E+18,-0.385074,-0.654062,-0.27369,0.590774,0
-9.275373,-1.359405,1.75123,0.401541,0.275385,-0.08188,44.423928,6.504293,10.839109,4.63583E+18,0.777299,0.048131,0.615548,-0.120792,-9.789091,0.200564,-1.403592,0.189367,0.200157,0.000632,40.104799,-16.985226,15.776223,4.63582E+18,0.610269,-0.293591,0.659397,0.326454,-8.682754,4.120793,0.523218,0.166715,-0.241318,0.207016,44.528044,0.292978,-11.124552,4.63583E+18,-0.385343,-0.653987,-0.272229,0.591357,0
-9.302041,-1.442656,1.694647,0.374255,0.256667,-0.043427,44.361702,6.530961,10.803552,4.63583E+18,0.77656,0.049191,0.616245,-0.121558,-9.781869,0.344043,-1.284013,0.18069,0.193967,-0.003968,40.028076,-16.910735,16.038293,4.63582E+18,0.609883,-0.293353,0.66026,0.325642,-8.640187,3.963051,0.339471,0.157278,-0.255956,0.197143,44.70351,0.218668,-11.128272,4.63583E+18,-0.385629,-0.653848,-0.270795,0.591982,0
-9.37963,-1.449371,1.726726,0.350371,0.238496,-0.021472,44.416015,6.484407,10.865623,4.63583E+18,0.775883,0.050211,0.616891,-0.122183,-9.809772,0.258846,-1.202551,0.159723,0.189803,-0.011771,40.019361,-16.825294,16.106059,4.63582E+18,0.609493,-0.293183,0.661074,0.324873,-8.599956,3.747992,0.226635,0.156786,-0.27443,0.183861,44.664874,-0.068676,-11.382286,4.63583E+18,-0.385901,-0.653647,-0.269365,0.592679,0
-9.501708,-1.37064,1.858737,0.32755,0.243819,-0.013306,44.447155,6.457716,10.963285,4.63583E+18,0.775201,0.051174,0.617564,-0.122715,-9.754728,0.28077,-1.273533,0.1233,0.186491,-0.022343,39.942623,-16.748558,15.92071,4.63582E+18,0.609082,-0.29313,0.661816,0.324182,-8.645165,3.785323,0.060009,0.144946,-0.284387,0.16224,44.56264,-0.205526,-11.514552,4.63583E+18,-0.38616,-0.653377,-0.268005,0.593424,0
-9.569466,-1.245259,1.901045,0.307835,0.263814,-0.015144,44.34629,6.612894,11.053182,4.63583E+18,0.774463,0.052106,0.618308,-0.123233,-9.653566,0.279525,-1.428509,0.087763,0.182109,-0.032066,39.941378,-16.732372,15.861638,4.63582E+18,0.608652,-0.293188,0.662486,0.323568,-8.731264,3.986527,-0.200613,0.110303,-0.282856,0.141889,44.65668,-0.049801,-11.547556,4.63583E+18,-0.386464,-0.653029,-0.266791,0.594156,0
-9.652637,-1.142017,1.899906,0.288319,0.275772,-0.025915,44.28846,6.701864,11.146389,4.63583E+18,0.773688,0.052967,0.619101,-0.123752,-9.629154,0.239957,-1.539377,0.07028,0.175898,-0.041767,39.922954,-16.598567,16.133671,4.63582E+18,0.60823,-0.293308,0.663104,0.322986,-8.728618,3.846633,-0.301889,0.066278,-0.274283,0.125664,44.755962,0.046184,-11.666006,4.63583E+18,-0.386837,-0.652611,-0.265745,0.59484,0
-9.653891,-1.017785,1.935385,0.265311,0.283149,-0.038443,44.296217,6.65532,11.36816,4.63583E+18,0.772894,0.05371,0.619932,-0.124234,-9.605983,-0.030864,-1.555315,0.069776,0.162012,-0.042835,39.848464,-16.682775,16.309092,4.63582E+18,0.607846,-0.293414,0.663685,0.322419,-8.679793,3.678057,-0.356325,0.021594,-0.265565,0.102167,44.673486,-0.077206,-11.804559,4.63583E+18,-0.387262,-0.652117,-0.264885,0.595489,0
-9.523045,-0.948871,1.960941,0.242102,0.291693,-0.054264,44.192071,6.72946,11.529257,4.63583E+18,0.772071,0.054351,0.620805,-0.124716,-9.593776,-0.165472,-1.596683,0.081812,0.148126,-0.044012,39.780426,-16.748558,16.299143,4.63582E+18,0.607517,-0.293473,0.664244,0.321832,-8.645811,3.604483,-0.466192,-0.011288,-0.246598,0.078667,44.597272,-0.317392,-11.825345,4.63583E+18,-0.387696,-0.651589,-0.264201,0.596088,0
-9.507279,-0.83913,1.988663,0.229852,0.329424,-0.073102,44.028923,6.787316,11.506113,4.63583E+18,0.771085,0.055201,0.621783,-0.125566,-9.582811,0.113807,-1.579724,0.076344,0.134677,-0.046909,39.873318,-16.748558,16.221369,4.63582E+18,0.607222,-0.293535,0.664759,0.32127,-8.678802,3.570831,-0.546364,-0.038828,-0.230258,0.055948,44.532608,-0.317392,-11.913764,4.63583E+18,-0.38813,-0.651032,-0.263673,0.596648,0
-9.59603,-0.641666,1.93221,0.19494,0.291599,-0.13576,44.071895,6.787316,11.529251,4.63583E+18,0.77017,0.055757,0.622671,-0.126535,-9.586534,0.243947,-1.623585,0.06141,0.124847,-0.055978,40.01711,-16.765929,16.319018,4.63582E+18,0.606948,-0.293647,0.665216,0.320737,-8.758644,3.510803,-0.528222,-0.060248,-0.218799,0.036434,44.532608,-0.338168,-11.98767,4.63583E+18,-0.388561,-0.650446,-0.263269,0.597185,0
-9.554096,-0.538277,1.884393,0.153853,0.238815,-0.18127,44.028954,6.950161,11.622447,4.63583E+18,0.769375,0.056035,0.62342,-0.127555,-9.618193,0.129319,-1.612419,0.054766,0.113749,-0.060685,40.019391,-16.91946,16.396825,4.63582E+18,0.606702,-0.293774,0.665631,0.320225,-8.744475,3.366611,-0.497536,-0.078058,-0.203874,0.018046,44.5148,-0.402844,-12.008446,4.63583E+18,-0.388977,-0.649847,-0.262984,0.597691,0
-9.455283,-0.41635,1.903205,0.107068,0.268907,-0.157849,43.815968,7.253054,11.650315,4.63583E+18,0.768524,0.056239,0.624283,-0.128372,-9.608466,0.09041,-1.516197,0.037043,0.108083,-0.069229,39.933947,-16.902108,16.309092,4.63582E+18,0.606462,-0.293961,0.665997,0.319747,-8.645809,3.382734,-0.482361,-0.111253,-0.184937,-0.004904,44.456394,-0.364265,-12.144345,4.63583E+18,-0.389404,-0.649216,-0.262873,0.598147,0
-9.222474,-0.602188,1.714921,0.059766,0.244492,-0.123641,43.726917,7.318984,11.707906,4.63583E+18,0.767764,0.056367,0.625084,-0.128961,-9.62936,0.136763,-1.544337,0.02359,0.10008,-0.077558,39.839799,-16.723742,16.33763,4.63582E+18,0.606238,-0.294195,0.666315,0.319295,-8.655049,3.615334,-0.434216,-0.166213,-0.164874,-0.028431,44.444189,-0.226349,-12.413564,4.63583E+18,-0.389898,-0.64852,-0.262994,0.598528,0
-9.021424,-0.868724,1.568152,0.024796,0.187658,-0.06001,43.93629,7.13273,11.805558,4.63583E+18,0.767194,0.056519,0.625706,-0.129269,-9.715852,0.130147,-1.6091,0.01604,0.096441,-0.083533,39.694957,-16.513099,16.60848,4.63582E+18,0.606023,-0.294459,0.666605,0.318854,-8.672848,3.732499,-0.315109,-0.22525,-0.14989,-0.049505,44.414182,-0.206502,-12.605915,4.63583E+18,-0.39048,-0.647742,-0.263342,0.598838,0
-9.057735,-1.009756,1.66665,-0.007825,0.180402,-0.009164,44.103043,7.09795,11.841181,4.63583E+18,0.766704,0.056566,0.626322,-0.129172,-9.706131,-0.135771,-1.690603,0.029122,0.088526,-0.085016,39.780437,-16.598577,16.764256,4.63582E+18,0.605847,-0.294684,0.666891,0.318382,-8.719395,3.723258,-0.223042,-0.277449,-0.135545,-0.071965,44.331699,-0.320359,-12.7208,4.63583E+18,-0.391129,-0.64689,-0.263901,0.599089,0
-9.471115,-1.080849,1.772216,-0.04336,0.190606,0.007563,44.028973,7.229913,11.957476,4.63583E+18,0.766227,0.056436,0.626996,-0.12879,-9.705887,-0.232697,-1.614624,0.060797,0.077866,-0.080961,39.839737,-16.657879,16.686276,4.63582E+18,0.605735,-0.294803,0.667197,0.317845,-8.670916,3.693607,-0.171598,-0.314082,-0.112338,-0.092487,44.258462,-0.273264,-12.599429,4.63583E+18,-0.391801,-0.646012,-0.264646,0.599269,0
-9.827768,-1.183944,1.778983,-0.068822,0.179768,0.024927,43.823768,7.241305,12.032045,4.63583E+18,0.765744,0.056505,0.627622,-0.128584,-9.604736,-0.016944,-1.428266,0.068558,0.07658,-0.078825,39.686268,-16.496939,16.695233,4.63582E+18,0.605632,-0.294895,0.667512,0.317294,-8.612149,3.624904,-0.068009,-0.341945,-0.087999,-0.117573,44.238587,-0.041323,-12.430796,4.63583E+18,-0.392461,-0.645118,-0.265571,0.599391,0
-9.850392,-1.256205,1.777826,-0.100259,0.146873,0.014119,43.63059,7.206823,11.97448,4.63583E+18,0.765348,0.056429,0.628163,-0.128338,-9.585299,0.043855,-1.425779,0.059905,0.073811,-0.076689,39.711143,-16.438628,16.870632,4.63582E+18,0.605523,-0.294998,0.66781,0.316776,-8.648422,3.784819,0.030344,-0.36581,-0.069521,-0.144276,44.388037,0.134281,-12.392782,4.63583E+18,-0.393098,-0.644199,-0.266658,0.599479,0
-9.845762,-1.161035,1.821043,-0.125824,0.149409,0.008631,43.62249,7.155853,12.062881,4.63583E+18,0.764947,0.056258,0.628726,-0.128041,-9.604739,-0.006219,-1.40012,0.04953,0.075206,-0.074444,39.937879,-16.495703,16.860682,4.63582E+18,0.605395,-0.295123,0.668102,0.31629,-8.677206,4.076567,0.042902,-0.412391,-0.056445,-0.169162,44.508194,0.1165,-12.473003,4.63583E+18,-0.393782,-0.643208,-0.267948,0.599519,0
-9.871333,-1.005659,1.773562,-0.153474,0.174074,0.009715,43.762183,7.183378,12.312424,4.63583E+18,0.764489,0.056015,0.629381,-0.127663,-9.581568,-0.078445,-1.37469,0.031678,0.079587,-0.071457,39.987497,-16.402792,16.763024,4.63582E+18,0.605228,-0.295291,0.668384,0.315856,-8.552522,4.085318,0.018488,-0.473825,-0.041003,-0.190204,44.487449,0.078819,-12.463758,4.63583E+18,-0.394558,-0.642128,-0.269471,0.599484,0
-9.744031,-1.060684,1.648196,-0.178448,0.146032,-0.016547,43.925333,7.160322,12.476933,4.63583E+18,0.764127,0.055452,0.62998,-0.127119,-9.566882,-0.219533,-1.457845,0.008528,0.084601,-0.070389,39.836278,-16.260262,16.703851,4.63582E+18,0.605018,-0.29552,0.668649,0.315483,-8.396439,3.825653,0.035559,-0.53338,-0.022524,-0.216907,44.401998,0.190583,-12.466722,4.63583E+18,-0.395405,-0.640963,-0.271243,0.599373,0
-9.676014,-1.11533,1.606921,-0.191962,0.154815,-0.014021,44.084038,7.074866,12.388572,4.63583E+18,0.763765,0.054762,0.630621,-0.126416,-9.536464,-0.109867,-1.612618,-0.001285,0.086411,-0.06943,39.7682,-16.277635,16.975939,4.63582E+18,0.604788,-0.295774,0.668907,0.315138,-8.339898,3.647052,0.205724,-0.587716,-0.011522,-0.243608,44.358021,0.404725,-12.452272,4.63583E+18,-0.396316,-0.639702,-0.27324,0.599212,0
-9.587481,-1.219362,1.557133,-0.199539,0.12383,-0.021224,44.141972,7.051421,12.379264,4.63583E+18,0.76348,0.054017,0.631168,-0.125727,-9.56088,-0.107383,-1.623585,-0.003748,0.085017,-0.068995,39.843721,-16.413778,17.132772,4.63582E+18,0.604558,-0.296029,0.66916,0.314804,-8.500085,3.74439,0.40544,-0.630892,-0.005146,-0.272122,44.422741,0.563407,-12.357583,4.63583E+18,-0.397262,-0.638348,-0.27543,0.599027,0
-9.557229,-1.328272,1.595667,-0.20866,0.085963,-0.018772,43.940496,7.102373,12.538914,4.63583E+18,0.763295,0.053243,0.631596,-0.125032,-9.580332,-0.082973,-1.618627,-0.00822,0.081179,-0.064832,39.825319,-16.251585,16.958374,4.63583E+18,0.604327,-0.296277,0.669402,0.314498,-8.776024,4.038789,0.457595,-0.681903,0.003431,-0.30164,44.399058,0.778344,-12.34022,4.63583E+18,-0.398257,-0.63689,-0.277838,0.598806,0
-9.493109,-1.293025,1.651291,-0.225445,0.076043,-0.007003,43.62309,7.136873,12.672244,4.63583E+18,0.763098,0.052674,0.631978,-0.12454,-9.570804,-0.072204,-1.564829,-0.004798,0.081071,-0.060758,39.750828,-16.183494,16.879318,4.63583E+18,0.604095,-0.296504,0.669654,0.314195,-8.872194,3.838678,0.570783,-0.723816,0.007218,-0.316074,44.322122,1.148231,-12.535521,4.63583E+18,-0.399319,-0.63535,-0.280391,0.598544,0
-9.433035,-1.226372,1.667955,-0.242347,0.046585,-0.009696,43.507187,7.087097,12.653673,4.63583E+18,0.762981,0.05203,0.632276,-0.124018,-9.682952,-0.169663,-1.477096,-0.000434,0.080437,-0.049443,39.665377,-16.252818,16.956083,4.63583E+18,0.603858,-0.296683,0.669921,0.313912,-8.864422,3.565303,0.899277,-0.734659,0.005891,-0.329151,44.330629,1.400151,-12.636145,4.63583E+18,-0.400374,-0.633767,-0.283,0.598291,0
-9.486088,-1.14656,1.656921,-0.258656,0.025554,-0.006717,43.654371,7.001653,12.560482,4.63583E+18,0.762924,0.051331,0.632514,-0.123448,-9.694982,-0.164886,-1.47462,-0.004056,0.083207,-0.041751,39.579943,-16.178352,16.965986,4.63583E+18,0.603603,-0.296851,0.670196,0.313658,-9.03199,3.491317,0.986213,-0.727765,0.005826,-0.342519,44.406831,1.503353,-12.467462,4.63583E+18,-0.401374,-0.632171,-0.285625,0.598061,0
-9.583747,-1.103127,1.632506,-0.277779,0.008197,-0.001849,43.708139,6.877468,12.524796,4.63583E+18,0.762918,0.050575,0.632704,-0.122816,-9.59856,-0.217257,-1.456395,-0.002245,0.082356,-0.032463,39.511825,-16.092898,17.053741,4.63583E+18,0.603343,-0.296985,0.670479,0.313425,-9.218417,3.479486,0.945886,-0.712652,0.010681,-0.352715,44.468611,1.662035,-12.402721,4.63583E+18,-0.4023,-0.630594,-0.288245,0.597847,0
-9.758873,-1.06768,1.631331,-0.290618,-0.010167,0.001643,43.744523,6.878165,12.764941,4.63583E+18,0.762995,0.049618,0.632855,-0.121948,-9.520535,-0.200275,-1.490542,-0.003963,0.083316,-0.025403,39.597282,-16.033462,17.063655,4.63583E+18,0.603073,-0.297102,0.670767,0.313215,-9.359367,3.430657,0.9703,-0.687017,0.012752,-0.358832,44.441616,1.800027,-12.358356,4.63583E+18,-0.403137,-0.62905,-0.290818,0.597664,0
-9.893393,-1.034343,1.604805,-0.310009,-0.035001,0.005238,43.775749,6.855164,12.903225,4.63583E+18,0.763159,0.048509,0.63294,-0.120919,-9.513281,-0.252813,-1.506462,-0.009815,0.082991,-0.012694,39.690153,-16.20311,17.151402,4.63583E+18,0.602784,-0.297197,0.67106,0.313055,-9.379755,3.349298,0.962183,-0.661641,0.021814,-0.365048,44.368375,1.893971,-12.195952,4.63583E+18,-0.403878,-0.627557,-0.293356,0.597492,0
-10.002085,-1.017675,1.641189,-0.334288,-0.041863,0.017254,43.721522,6.769712,12.663079,4.63583E+18,0.763304,0.047598,0.632994,-0.120086,-9.556091,-0.340739,-1.554053,0.000788,0.079136,-0.000403,39.84142,-16.337049,17.151402,4.63583E+18,0.602506,-0.297224,0.671369,0.312903,-9.167089,3.160284,0.861193,-0.635523,0.03353,-0.366049,44.327657,2.108833,-12.148561,4.63583E+18,-0.404531,-0.62613,-0.29585,0.597317,0
-10.01571,-1.098417,1.656923,-0.352364,-0.040877,0.019433,43.690296,6.738487,12.524796,4.63583E+18,0.763449,0.046637,0.633058,-0.119199,-9.640139,-0.448121,-1.582017,0.031572,0.069957,0.016901,39.918209,-16.251607,17.151402,4.63583E+18,0.602272,-0.297112,0.671714,0.312721,-8.938777,3.041467,0.767243,-0.611531,0.046415,-0.375856,44.391657,2.461048,-12.231818,4.63583E+18,-0.405078,-0.624758,-0.298329,0.597151,0
-9.990119,-1.232683,1.663488,-0.367316,-0.02675,0.017768,43.744507,6.746231,12.710658,4.63583E+18,0.763558,0.04563,0.633173,-0.118274,-9.604754,-0.517501,-1.529479,0.081369,0.0644,0.036452,39.909555,-16.192116,17.161292,4.63583E+18,0.602092,-0.296811,0.67213,0.312456,-8.95985,3.21788,0.608566,-0.615603,0.054633,-0.392168,44.447155,2.636799,-12.208171,4.63583E+18,-0.405581,-0.623373,-0.300872,0.596981,0
-9.877257,-1.42889,1.564015,-0.374139,-0.035096,-0.007586,43.775749,6.588096,12.825516,4.63583E+18,0.763712,0.044339,0.633283,-0.11718,-9.579106,-0.450439,-1.44527,0.14371,0.056599,0.057476,39.825346,-16.345713,17.249062,4.63583E+18,0.601987,-0.296283,0.672632,0.312081,-8.979128,3.352291,0.506025,-0.63729,0.065674,-0.406311,44.408743,2.69294,-12.134159,4.63583E+18,-0.406088,-0.621956,-0.30352,0.596774,0
-9.791525,-1.575656,1.439573,-0.362726,-0.055024,-0.017012,43.775749,6.494339,12.768043,4.63583E+18,0.763874,0.043241,0.63331,-0.116383,-9.544953,-0.411036,-1.396742,0.178178,0.046674,0.0644,39.750861,-16.33706,17.239173,4.63583E+18,0.601946,-0.295635,0.673158,0.311639,-8.964979,3.246393,0.546767,-0.659259,0.066001,-0.422817,44.264821,2.94261,-12.157797,4.63583E+18,-0.406606,-0.620475,-0.306263,0.596561,0
-9.677493,-1.681049,1.372886,-0.342823,-0.079173,-0.010499,43.775749,6.602717,12.72458,4.63583E+18,0.764098,0.042212,0.633248,-0.115621,-9.542617,-0.109357,-1.576243,0.183159,0.043146,0.056493,39.665426,-16.252861,17.131666,4.63583E+18,0.60193,-0.294991,0.673672,0.311168,-9.079744,3.308596,0.500504,-0.701398,0.063762,-0.443403,44.208527,3.233014,-12.258408,4.63583E+18,-0.407179,-0.618885,-0.309156,0.59633,0
-9.464618,-1.790911,1.355022,-0.328625,-0.147296,-0.026155,43.729304,6.665242,12.782041,4.63583E+18,0.764491,0.041155,0.632964,-0.114958,-9.626834,0.322199,-1.810396,0.152031,0.036738,0.043556,39.581207,-16.203053,16.985687,4.63582E+18,0.601911,-0.294454,0.674113,0.310759,-8.998039,3.227284,0.538897,-0.74555,0.070463,-0.460527,44.284718,3.474186,-12.273758,4.63583E+18,-0.407809,-0.617207,-0.312209,0.596048,0
-9.359804,-1.776925,1.478874,-0.315234,-0.177808,-0.020739,43.748949,6.556871,12.763588,4.63583E+18,0.764964,0.04014,0.632575,-0.114318,-9.703778,0.263755,-1.859351,0.085958,0.029573,0.021352,39.515366,-16.345713,17.277428,4.63582E+18,0.601859,-0.294135,0.674423,0.310489,-8.90471,3.132773,0.65034,-0.782608,0.071635,-0.475705,44.367215,3.70908,-12.040241,4.63583E+18,-0.408493,-0.615439,-0.315394,0.595731,0
-9.273463,-1.823066,1.596785,-0.303667,-0.173535,-0.023941,43.876379,6.494339,12.670396,4.63583E+18,0.76545,0.03899,0.632203,-0.113518,-9.797617,0.29018,-2.000782,0.058396,0.01612,0.009917,39.514134,-16.338321,17.519976,4.63582E+18,0.601827,-0.293899,0.67465,0.310284,-8.963187,3.271584,0.584189,-0.82404,0.064382,-0.492864,44.419788,3.929597,-11.999087,4.63583E+18,-0.409243,-0.613551,-0.318708,0.595399,0
-9.267496,-1.883212,1.631324,-0.284573,-0.174681,-0.028267,43.888004,6.548518,12.510825,4.63583E+18,0.765943,0.037826,0.631821,-0.112704,-9.76233,-0.057345,-1.987345,0.024335,0.007477,-0.008886,39.503159,-16.263854,17.412481,4.63582E+18,0.601801,-0.293791,0.674787,0.310138,-8.966538,3.18598,0.44617,-0.856515,0.061694,-0.504319,44.392822,4.061314,-12.002277,4.63583E+18,-0.410045,-0.611576,-0.322121,0.595043,0
-9.367227,-1.884408,1.597095,-0.256621,-0.177599,-0.018577,43.706412,6.579791,12.439344,4.63583E+18,0.766403,0.037004,0.631401,-0.11221,-9.834239,-0.002241,-1.98387,0.003743,0.006076,-0.031407,39.503159,-16.187017,17.22823,4.63583E+18,0.601782,-0.293795,0.674867,0.309996,-8.956882,2.846725,0.408348,-0.872055,0.059335,-0.518722,44.337288,4.199899,-11.735866,4.63583E+18,-0.410848,-0.609538,-0.325601,0.594686,0
-9.450605,-1.87994,1.613452,-0.23213,-0.174318,-0.015917,43.663487,6.525615,12.501259,4.63583E+18,0.76685,0.036268,0.630978,-0.111772,-9.769421,0.151024,-2.127586,0.008761,-0.006947,-0.036218,39.520384,-16.178404,17.141558,4.63583E+18,0.601813,-0.293784,0.674914,0.309843,-9.034825,2.624592,0.457978,-0.882478,0.054476,-0.533969,44.352046,4.546396,-11.599985,4.63583E+18,-0.411641,-0.607438,-0.329133,0.594342,0
-9.488422,-1.87994,1.620315,-0.211446,-0.155044,-0.014382,43.798633,6.494339,12.537004,4.63583E+18,0.767244,0.035612,0.630606,-0.111379,-9.586499,-0.219563,-1.928685,0.011112,-0.01261,-0.044324,39.681436,-16.101564,17.043908,4.63583E+18,0.601873,-0.293782,0.674941,0.30967,-9.215778,2.606889,0.436516,-0.888218,0.056025,-0.546269,44.342269,4.960484,-11.609241,4.63583E+18,-0.41241,-0.605303,-0.332707,0.593997,0
-9.512835,-1.841251,1.603639,-0.201308,-0.13782,-0.011464,43.907627,6.548504,12.413197,4.63583E+18,0.767619,0.034846,0.630292,-0.110809,-9.615742,-0.00123,-1.806599,0.013339,-0.019972,-0.039198,39.739924,-16.110177,16.965926,4.63583E+18,0.60195,-0.29375,0.674958,0.309514,-9.310487,2.530694,0.412507,-0.879486,0.061401,-0.55566,44.107378,5.183167,-11.538431,4.63583E+18,-0.413117,-0.603172,-0.336286,0.593657,0
-9.529512,-1.710586,1.583696,-0.201098,-0.129457,-0.008651,43.934444,6.626212,12.217894,4.63583E+18,0.76798,0.034054,0.630006,-0.110182,-9.585269,-0.029413,-1.691913,-0.001176,-0.01709,-0.035887,39.656856,-16.169812,17.072176,4.63583E+18,0.601996,-0.29375,0.674968,0.309402,-9.375286,2.430495,0.366222,-0.860883,0.066635,-0.560742,43.957638,5.474102,-11.298563,4.63583E+18,-0.413753,-0.601067,-0.339837,0.593327,0
-9.541719,-1.555152,1.567018,-0.20865,-0.121016,-0.012893,43.880282,6.55245,12.208265,4.63583E+18,0.768282,0.033426,0.629739,-0.109787,-9.607226,-0.191704,-1.646772,-0.001599,-0.017198,-0.030863,39.510524,-16.008747,17.256495,4.63583E+18,0.602036,-0.293736,0.674983,0.309305,-9.36349,2.298764,0.380967,-0.832375,0.081845,-0.563724,44.107062,5.873475,-11.26661,4.63583E+18,-0.414283,-0.599032,-0.343345,0.592996,0
-9.530715,-1.37772,1.585758,-0.231517,-0.110049,-0.022792,43.748412,6.44018,12.251763,4.63583E+18,0.768554,0.032706,0.629519,-0.109361,-9.601088,-0.286977,-1.630882,0.005675,-0.018373,-0.019328,39.593588,-15.958827,17.413758,4.63583E+18,0.602074,-0.293669,0.675019,0.309218,-9.329405,2.2487,0.418412,-0.798453,0.095029,-0.56214,44.227421,5.993835,-11.364269,4.63583E+18,-0.414704,-0.597082,-0.346779,0.59267,0
-9.529511,-1.344874,1.606906,-0.264808,-0.107101,-0.035504,43.690296,6.408887,12.194342,4.63583E+18,0.768817,0.031847,0.629325,-0.108888,-9.553555,-0.447991,-1.575914,0.031102,-0.020724,-0.009392,39.748534,-16.117524,17.23924,4.63583E+18,0.602136,-0.293508,0.675093,0.309087,-9.350458,2.306786,0.367048,-0.769211,0.10214,-0.558161,44.206781,6.126521,-11.37052,4.63583E+18,-0.415045,-0.595197,-0.350137,0.592354,0
-9.4953,-1.491011,1.611377,-0.287196,-0.106529,-0.03382,43.790869,6.455305,12.034791,4.63583E+18,0.769081,0.030921,0.629142,-0.108349,-9.616978,-0.402775,-1.474641,0.06314,-0.024782,0.003318,39.75092,-16.252896,17.14158,4.63583E+18,0.602232,-0.293226,0.675214,0.308903,-9.402231,2.337927,0.272345,-0.75367,0.118418,-0.550722,44.118392,6.672857,-11.113355,4.63583E+18,-0.415338,-0.593378,-0.353464,0.591997,0
-9.426538,-1.709504,1.642315,-0.302147,-0.104393,-0.029231,43.903134,6.435724,12.025131,4.63583E+18,0.769342,0.029961,0.62897,-0.107755,-9.588883,-0.277022,-1.460045,0.083316,-0.027241,0.014208,39.681425,-16.178426,17.073379,4.63583E+18,0.602346,-0.292858,0.675368,0.308693,-9.451478,2.295827,0.157419,-0.748146,0.135767,-0.541072,44.005995,7.097979,-10.950876,4.63583E+18,-0.415612,-0.591616,-0.35678,0.591579,0
-9.361028,-1.840895,1.691144,-0.313041,-0.093459,-0.026133,43.880303,6.408887,12.12279,4.63583E+18,0.769577,0.02898,0.628837,-0.107121,-9.533982,-0.126932,-1.535724,0.082994,-0.032259,0.017948,39.76323,-16.101564,17.267434,4.63583E+18,0.602469,-0.292475,0.675514,0.308498,-9.43716,2.180488,-0.04126,-0.761922,0.152377,-0.533374,43.885616,7.209534,-10.83259,4.63583E+18,-0.415908,-0.589874,-0.360133,0.591078,0
-9.284526,-1.867733,1.693569,-0.314818,-0.086235,-0.016447,43.90313,6.463025,12.15084,4.63583E+18,0.769796,0.028022,0.628726,-0.106449,-9.540112,-0.074523,-1.618681,0.080326,-0.034932,0.027137,39.89742,-16.092982,17.422365,4.63583E+18,0.602584,-0.292069,0.67566,0.308338,-9.333618,2.015492,-0.21804,-0.78645,0.162321,-0.522914,43.906238,7.462075,-10.649495,4.63583E+18,-0.416271,-0.588119,-0.363535,0.590489,0
-9.230012,-1.8832,1.676888,-0.313359,-0.078685,-0.008366,44.089114,6.494339,12.146366,4.63583E+18,0.770009,0.027029,0.62864,-0.105673,-9.601143,-0.207565,-1.562508,0.084391,-0.042515,0.042411,39.804628,-16.024686,17.324715,4.63583E+18,0.602705,-0.2916,0.675811,0.308214,-9.241004,1.863116,-0.389787,-0.818861,0.168398,-0.518052,43.932772,7.758839,-10.466389,4.63583E+18,-0.41671,-0.58632,-0.36701,0.589818,0
-9.247523,-1.876681,1.695615,-0.310937,-0.071387,-0.002349,44.178593,6.38607,12.092232,4.63583E+18,0.770228,0.025922,0.62858,-0.10471,-9.654832,-0.338212,-1.449007,0.105861,-0.050953,0.061106,39.661854,-16.110137,17.24665,4.63583E+18,0.602853,-0.291013,0.67599,0.308086,-9.246892,1.671623,-0.452105,-0.867141,0.182207,-0.515991,43.809426,7.973087,-10.351017,4.63583E+18,-0.417244,-0.584465,-0.370616,0.589026,0
-9.280886,-1.852266,1.786371,-0.309086,-0.066723,0.004737,44.023923,6.2229,12.068648,4.63583E+18,0.770402,0.025048,0.628523,-0.103981,-9.630378,-0.517571,-1.42708,0.12722,-0.057359,0.083426,39.670426,-16.187017,17.363902,4.63583E+18,0.603015,-0.290301,0.676208,0.307962,-9.274249,1.438831,-0.438599,-0.924113,0.197865,-0.508734,43.817824,8.131773,-10.425122,4.63583E+18,-0.417901,-0.58255,-0.374362,0.588087,0
-9.274369,-1.85105,1.931633,-0.318844,-0.053655,0.017626,43.833922,6.110611,12.080854,4.63583E+18,0.770547,0.024182,0.628511,-0.103184,-9.505898,-0.435774,-1.53571,0.139824,-0.055439,0.095495,39.747307,-16.178456,17.607922,4.63583E+18,0.603172,-0.289526,0.676461,0.307831,-9.316762,1.315455,-0.530376,-1.001094,0.199191,-0.506044,43.911683,8.328754,-10.336796,4.63583E+18,-0.41874,-0.580497,-0.378284,0.58701,0
-9.164915,-1.855525,1.788799,-0.321335,-0.036175,0.032293,43.829865,6.025169,12.147177,4.63583E+18,0.770652,0.023354,0.628553,-0.102331,-9.494937,-0.311304,-1.623585,0.160545,-0.066013,0.109593,39.747307,-16.093012,17.394298,4.63583E+18,0.603365,-0.288645,0.67673,0.307688,-9.392505,1.291479,-0.585955,-1.094822,0.204932,-0.505234,44.014448,8.643165,-10.011816,4.63583E+18,-0.419792,-0.578281,-0.382437,0.585754,0
-9.191769,-1.87872,1.479128,-0.309905,-0.061027,0.048209,43.907588,6.102075,12.237109,4.63583E+18,0.770827,0.022594,0.628508,-0.101459,-9.701231,-0.474867,-1.621141,0.186929,-0.084385,0.11536,39.747307,-16.016113,17.063516,4.63583E+18,0.603633,-0.287657,0.676993,0.307508,-9.49986,1.174556,-0.609488,-1.176674,0.220733,-0.509095,43.955917,8.930673,-9.84299,4.63583E+18,-0.420996,-0.575937,-0.386816,0.584322,0
-9.295122,-1.884416,1.429078,-0.313216,-0.11016,0.061917,43.988563,6.164739,12.26844,4.63583E+18,0.771135,0.021838,0.628304,-0.100538,-9.773243,-0.417454,-1.594283,0.227517,-0.094638,0.116429,39.747307,-16.024666,17.169728,4.63583E+18,0.603977,-0.286551,0.677282,0.307228,-9.507948,0.878637,-0.701264,-1.209516,0.241492,-0.527176,43.946651,9.183205,-9.734006,4.63583E+18,-0.422188,-0.57354,-0.391343,0.582803,0
-9.349648,-1.87221,1.64269,-0.333189,-0.114649,0.075695,44.074009,6.110625,12.26844,4.63583E+18,0.77148,0.020935,0.628096,-0.099377,-9.726857,0.013439,-1.565001,0.246635,-0.101582,0.125186,39.738754,-16.093012,17.316186,4.63583E+18,0.604352,-0.285363,0.677588,0.306923,-9.384552,0.652875,-0.762742,-1.187987,0.29011,-0.551743,43.908415,9.515294,-9.52737,4.63583E+18,-0.423178,-0.571241,-0.39595,0.581229,0
-9.455833,-1.875462,1.768847,-0.353981,-0.083819,0.083208,44.004863,5.978802,12.27617,4.63583E+18,0.771729,0.020115,0.627989,-0.098278,-9.707329,0.109846,-1.705381,0.246102,-0.114294,0.116641,39.654523,-16.024666,17.151402,4.63583E+18,0.604772,-0.284183,0.677849,0.306613,-9.404688,0.686108,-0.751872,-1.138226,0.332988,-0.573478,43.749735,9.878988,-9.246626,4.63583E+18,-0.423916,-0.569079,-0.400554,0.579656,0
-9.548213,-1.841295,1.697261,-0.377265,-0.058324,0.087765,43.846174,5.866487,12.34248,4.63583E+18,0.771914,0.019243,0.627972,-0.097102,-9.725637,-0.087883,-1.779838,0.250374,-0.133732,0.10831,39.595936,-16.101564,17.179492,4.63583E+18,0.605261,-0.282991,0.678056,0.306292,-9.535582,0.741265,-0.570995,-1.105058,0.358009,-0.57935,43.629261,10.1758,-8.986436,4.63583E+18,-0.424508,-0.567009,-0.405124,0.578073,0
-9.601517,-1.764806,1.586174,-0.398841,-0.059386,0.091077,43.888421,5.835139,12.378307,4.63583E+18,0.772103,0.018309,0.627959,-0.095858,-9.692678,0.135431,-1.752997,0.253687,-0.136081,0.101477,39.661854,-16.093043,17.422434,4.63583E+18,0.605769,-0.281807,0.678252,0.305947,-9.694274,0.798464,-0.181265,-1.108166,0.361448,-0.561013,43.632201,10.390095,-8.770544,4.63583E+18,-0.425133,-0.564956,-0.409653,0.576429,0
-9.59624,-1.632944,1.604459,-0.431603,-0.064089,0.089831,43.99304,5.781019,12.254606,4.63583E+18,0.772304,0.017266,0.627942,-0.094532,-9.695113,0.305354,-1.699298,0.245789,-0.141419,0.0974,39.670376,-16.016113,17.324774,4.63583E+18,0.606287,-0.280646,0.678418,0.30562,-9.811814,0.920527,0.262003,-1.147447,0.34157,-0.534351,43.623836,10.566409,-8.445719,4.63583E+18,-0.425939,-0.562815,-0.414168,0.5747,0
-9.575079,-1.481965,1.643525,-0.481669,-0.058,0.08595,43.965769,5.749687,12.067,4.63583E+18,0.772489,0.016053,0.627963,-0.093088,-9.72805,-0.211279,-1.588247,0.221417,-0.156266,0.144954,39.747307,-16.033157,17.247809,4.63583E+18,0.606757,-0.279393,0.678569,0.305498,-9.784913,0.969134,0.643371,-1.199767,0.314669,-0.507529,43.547651,10.777779,-8.04649,4.63583E+18,-0.426968,-0.560543,-0.418687,0.572879,0
-9.570604,-1.36641,1.60934,-0.532474,-0.054476,0.079648,43.988569,5.595047,12.061733,4.63583E+18,0.772663,0.014662,0.628012,-0.091529,-9.811136,0.046501,-1.37335,0.254216,-0.169832,0.122411,39.740003,-16.187017,17.327244,4.63583E+18,0.607331,-0.278103,0.678701,0.305242,-9.7293,0.791905,1.033997,-1.229239,0.30553,-0.490439,43.520968,10.94777,-7.901128,4.63583E+18,-0.428109,-0.55821,-0.423206,0.570982,0
-9.524213,-1.307411,1.563766,-0.579188,-0.062594,0.080966,44.07402,5.405023,12.22898,4.63583E+18,0.772857,0.013121,0.62805,-0.089845,-9.660967,-0.323426,-1.340288,0.266812,-0.180726,0.12016,39.681357,-16.169993,17.131945,4.63583E+18,0.607952,-0.276774,0.678817,0.304957,-9.738112,0.691968,1.421661,-1.2524,0.296632,-0.470523,43.679652,11.20952,-7.842841,4.63583E+18,-0.429352,-0.555833,-0.427703,0.569013,0
-9.481898,-1.317178,1.627651,-0.635262,-0.073382,0.089404,44.058962,5.346843,12.428759,4.63583E+18,0.773097,0.01131,0.628072,-0.087853,-9.613278,-0.466386,-1.540567,0.294806,-0.19429,0.134693,39.771651,-16.016113,16.947563,4.63583E+18,0.608624,-0.275314,0.678948,0.304643,-9.780609,0.771545,1.770718,-1.276613,0.274417,-0.442197,43.800163,11.523975,-7.541511,4.63583E+18,-0.430747,-0.553391,-0.43214,0.566984,0
-9.380179,-1.353799,1.695606,-0.689771,-0.067437,0.101046,44.078486,5.393226,12.430806,4.63583E+18,0.773335,0.009262,0.628129,-0.085564,-9.77205,-0.234518,-1.574707,0.302507,-0.212668,0.135442,39.991455,-16.016113,16.879143,4.63583E+18,0.609355,-0.273809,0.679042,0.304331,-9.83577,0.794401,2.024129,-1.27492,0.260885,-0.41755,43.761984,11.790972,-7.216415,4.63583E+18,-0.432208,-0.550945,-0.43648,0.564926,0
-9.280073,-1.37496,1.701306,-0.728475,-0.054512,0.11454,44.213576,5.373704,12.274556,4.63583E+18,0.773535,0.007146,0.628234,-0.08315,-9.70615,0.084188,-1.695565,0.282536,-0.21597,0.131603,39.958625,-16.016113,16.975538,4.63583E+18,0.610075,-0.27236,0.679096,0.304067,-9.884132,0.673265,2.233026,-1.230859,0.263751,-0.404274,43.641468,11.940383,-7.02405,4.63583E+18,-0.433581,-0.548591,-0.440677,0.562902,0
-9.222293,-1.325329,1.627263,-0.75984,-0.046821,0.13113,44.222145,5.184521,12.215133,4.63583E+18,0.773715,0.004972,0.628367,-0.080594,-9.612089,0.192837,-1.815156,0.252428,-0.237448,0.110037,39.654559,-16.033134,17.141675,4.63583E+18,0.610848,-0.271021,0.67903,0.303858,-9.978391,0.607119,2.324814,-1.166472,0.270755,-0.407181,43.644404,12.137244,-6.793967,4.63583E+18,-0.434777,-0.546349,-0.44473,0.56097,0
-9.243027,-1.224423,1.579233,-0.795549,-0.055007,0.147935,44.1908,4.990009,12.281444,4.63583E+18,0.773914,0.002718,0.628478,-0.077883,-9.654842,0.334206,-2.003229,0.192825,-0.239802,0.068272,39.597109,-16.187017,17.044026,4.63583E+18,0.611612,-0.269948,0.678835,0.303713,-10.097526,0.943046,2.383379,-1.103494,0.272378,-0.41021,43.597902,12.431145,-6.368582,4.63583E+18,-0.43581,-0.544202,-0.448636,0.559141,0
-9.296332,-1.130021,1.605668,-0.848876,-0.068323,0.165985,44.1908,4.931791,12.31727,4.63583E+18,0.774142,0.000351,0.628555,-0.074992,-9.65235,0.810609,-1.99479,0.142102,-0.236374,0.035478,39.672846,-16.170015,16.956083,4.63583E+18,0.61235,-0.269101,0.678546,0.303624,-10.169237,1.213461,2.448403,-1.045748,0.274175,-0.401316,43.383588,12.653792,-5.912258,4.63583E+18,-0.436724,-0.542165,-0.452384,0.557385,0
-9.306521,-1.044573,1.546309,-0.903388,-0.054378,0.180478,44.198527,4.723146,12.386818,4.63583E+18,0.774323,-0.002154,0.628688,-0.071904,-9.728086,0.692437,-1.794617,0.069777,-0.249622,0.005358,39.678854,-16.007613,16.956083,4.63582E+18,0.613082,-0.268507,0.678096,0.303677,-10.132145,1.265112,2.668606,-1.010664,0.282422,-0.373195,43.29825,12.888667,-5.894295,4.63583E+18,-0.437597,-0.540253,-0.455991,0.555615,0
-9.410228,-0.997759,1.27741,-0.957648,-0.064079,0.188847,44.148913,4.447639,12.442592,4.63583E+18,0.774517,-0.004825,0.628801,-0.068632,-9.71588,0.222159,-1.56869,0.022445,-0.256992,-0.026365,39.848525,-15.930661,16.937889,4.63582E+18,0.613821,-0.268114,0.677532,0.30379,-10.138013,1.041403,2.854646,-0.952843,0.293103,-0.329957,43.430064,13.074129,-5.975184,4.63583E+18,-0.438409,-0.538545,-0.459373,0.553845,0
-9.596587,-0.981072,1.139768,-1.024403,-0.138046,0.201341,44.171648,4.358043,12.443824,4.63583E+18,0.774887,-0.007684,0.628686,-0.065161,-9.69397,0.255064,-1.499164,0.003523,-0.263401,-0.053294,39.982965,-15.930661,16.753567,4.63582E+18,0.61459,-0.267837,0.676897,0.303895,-10.17709,0.668398,3.082207,-0.855726,0.302501,-0.287152,43.49791,13.074129,-5.691507,4.63583E+18,-0.439077,-0.537107,-0.462446,0.552151,0
-9.67599,-0.953412,1.243462,-1.098383,-0.178841,0.21939,44.156648,4.20351,12.454797,4.63583E+18,0.775332,-0.010565,0.628448,-0.061656,-9.602288,0.328576,-1.347847,0.008741,-0.271929,-0.062907,39.906002,-15.922182,16.567963,4.63582E+18,0.615401,-0.267563,0.676235,0.30397,-10.274272,0.397931,3.388345,-0.730538,0.306815,-0.253144,43.524783,13.129853,-5.47185,4.63583E+18,-0.43953,-0.535966,-0.465157,0.550621,0
-9.64184,-0.932244,1.321644,-1.180587,-0.172121,0.232532,44.129765,3.851207,12.533294,4.63583E+18,0.775742,-0.013675,0.62824,-0.057891,-9.671894,0.12065,-1.15739,0.027896,-0.296627,-0.07146,39.922943,-15.853679,16.479994,4.63582E+18,0.616313,-0.267232,0.675523,0.303997,-10.40855,0.340375,3.588022,-0.601296,0.304547,-0.226185,43.580429,13.344191,-5.390217,4.63583E+18,-0.439757,-0.535103,-0.467501,0.549292,0
-9.573077,-0.865954,1.152906,-1.25629,-0.176772,0.237413,44.183846,3.652486,12.511817,4.63583E+18,0.776141,-0.017018,0.62802,-0.053911,-9.692785,0.312659,-1.067773,0.005166,-0.293211,-0.072086,40.084165,-15.922191,16.461843,4.63582E+18,0.617189,-0.266965,0.674789,0.304082,-10.545751,0.492713,3.650496,-0.472575,0.292757,-0.198416,43.510077,13.444246,-4.98544,4.63583E+18,-0.439783,-0.534497,-0.469468,0.548183,0
-9.631156,-0.683342,0.941697,-1.33382,-0.195495,0.246307,44.26156,3.517459,12.421896,4.63583E+18,0.776574,-0.020725,0.627734,-0.04953,-9.59491,0.145387,-1.457521,-0.035249,-0.290623,-0.085991,40.158619,-15.852469,16.287204,4.63582E+18,0.618031,-0.266845,0.673995,0.304242,-10.662926,0.687067,3.575284,-0.351365,0.285238,-0.171413,43.249345,13.376383,-4.614398,4.63583E+18,-0.439617,-0.534143,-0.471083,0.547274,0
-9.819505,-0.459128,0.840312,-1.428232,-0.231334,0.258449,44.28846,3.246144,12.34417,4.63583E+18,0.777071,-0.024757,0.627328,-0.044802,-9.71939,0.006284,-1.484588,-0.036835,-0.312841,-0.081497,40.252522,-15.926915,16.199224,4.63582E+18,0.618926,-0.266687,0.673145,0.304442,-10.646306,0.938037,3.399006,-0.256776,0.282504,-0.146846,43.16686,13.387624,-4.614398,4.63583E+18,-0.439299,-0.534004,-0.472421,0.546512,0
-10.016074,-0.301183,0.810171,-1.527682,-0.247134,0.269523,44.342533,3.024675,12.31727,4.63583E+18,0.777568,-0.029076,0.626865,-0.039783,-9.845325,-0.150227,-1.337866,-0.054976,-0.330914,-0.081419,40.406506,-16.003906,16.171397,4.63582E+18,0.61985,-0.266552,0.672225,0.304713,-10.496901,1.083529,3.155367,-0.190172,0.288486,-0.122025,43.305032,13.452559,-4.593889,4.63583E+18,-0.438876,-0.534048,-0.473561,0.545821,0
-10.137381,-0.194566,0.597148,-1.629999,-0.214302,0.286962,44.373913,2.912333,12.37906,4.63583E+18,0.777933,-0.03365,0.626498,-0.034471,-9.757706,-0.138508,-1.42198,-0.08633,-0.33121,-0.047073,40.398045,-15.986986,15.889448,4.63582E+18,0.620695,-0.266402,0.671301,0.30516,-10.370434,0.995154,2.868746,-0.129931,0.305362,-0.098441,43.363625,13.452559,-4.50551,4.63583E+18,-0.438338,-0.534287,-0.474541,0.545168,0
-10.276879,-0.181863,0.205809,-1.734665,-0.206282,0.308998,44.327578,2.61839,12.430374,4.63583E+18,0.778224,-0.038499,0.626143,-0.028816,-9.478866,-0.681684,-1.539828,-0.062513,-0.351421,0.01194,40.321053,-15.841462,15.625476,4.63582E+18,0.621548,-0.265998,0.670419,0.305716,-10.366489,0.677443,2.581279,-0.064679,0.319962,-0.084685,43.372906,13.473013,-4.387456,4.63583E+18,-0.437658,-0.534703,-0.475368,0.544586,0
-10.470956,-0.17215,-0.105624,-1.855565,-0.269323,0.323322,44.25433,2.257384,12.331227,4.63583E+18,0.77861,-0.043562,0.625572,-0.022968,-9.654724,-0.218525,-1.084288,-0.039511,-0.349835,-0.060917,40.329512,-15.926913,15.635143,4.63582E+18,0.622512,-0.26574,0.669488,0.306016,-10.42162,0.475488,2.358431,-0.01583,0.339461,-0.083263,43.410628,13.555421,-4.181437,4.63583E+18,-0.436834,-0.535254,-0.476117,0.544052,0
-10.616697,-0.081474,-0.218485,-1.98655,-0.335395,0.341719,44.273755,1.927794,12.152606,4.63583E+18,0.779097,-0.049006,0.624762,-0.016704,-9.754922,-0.203905,-0.855588,-0.048924,-0.335187,-0.030355,40.406506,-16.003906,15.714686,4.63582E+18,0.623386,-0.26544,0.668616,0.306406,-10.455339,0.559126,2.139917,0.005595,0.355535,-0.087281,43.476483,13.646066,-3.944199,4.63583E+18,-0.435922,-0.535869,-0.476856,0.54353,0
-10.687946,-0.021181,-0.208778,-2.126024,-0.385701,0.352379,44.50913,1.443818,12.100771,4.63583E+18,0.77963,-0.055015,0.623741,-0.009853,-9.770745,-0.201045,-0.959713,-0.046682,-0.333684,-0.013688,40.406506,-15.987027,15.608748,4.63582E+18,0.624235,-0.265089,0.667768,0.30683,-10.494264,0.763162,1.870135,-0.0007,0.364291,-0.09074,43.29966,13.795466,-3.869747,4.63583E+18,-0.434998,-0.536485,-0.477632,0.542981,0
-10.705893,-0.050804,-0.133564,-2.266154,-0.406462,0.352881,44.630268,0.97049,12.063428,4.63583E+18,0.780116,-0.061511,0.622598,-0.002583,-9.840071,-0.471266,-0.812923,-0.041368,-0.337535,0.000079,40.414945,-15.833002,15.325415,4.63582E+18,0.625082,-0.26468,0.666931,0.307279,-10.568105,1.024087,1.671934,-0.043296,0.354435,-0.094505,43.375075,13.936744,-3.849443,4.63583E+18,-0.43418,-0.536993,-0.478493,0.542375,0
-10.713612,-0.096401,-0.151691,-2.41407,-0.382367,0.352489,44.475892,0.717552,11.866686,4.63583E+18,0.780424,-0.068302,0.62149,0.004839,-10.077135,-0.410382,-0.900632,-0.015113,-0.338484,0.02251,40.491959,-15.841441,15.150593,4.63582E+18,0.62593,-0.264139,0.666148,0.307715,-10.581523,1.331692,1.461507,-0.131687,0.333516,-0.099687,43.599647,14.001891,-3.737886,4.63583E+18,-0.433588,-0.537283,-0.479527,0.541649,0
-10.818445,-0.163898,-0.283456,-2.556401,-0.36339,0.352489,44.393838,0.504824,11.891437,4.63583E+18,0.780557,-0.075547,0.620374,0.012626,-10.15141,-0.251539,-1.086626,0.027804,-0.349466,0.044096,40.500387,-15.925678,15.161595,4.63582E+18,0.626828,-0.263411,0.665415,0.308099,-10.532089,1.47588,1.264986,-0.240927,0.335599,-0.117938,43.48871,13.943893,-3.542578,4.63583E+18,-0.433196,-0.537341,-0.480851,0.54073,0
-11.000297,-0.164443,-0.341807,-2.683951,-0.383322,0.364646,44.498671,0.152612,11.978693,4.63583E+18,0.780604,-0.083269,0.619101,0.020917,-10.339492,-0.203917,-0.976592,0.078591,-0.373068,0.059559,40.584625,-15.983278,15.151972,4.63582E+18,0.627825,-0.262477,0.6647,0.308408,-10.528577,1.709712,1.148729,-0.388897,0.334347,-0.146773,43.332151,13.757744,-3.350193,4.63583E+18,-0.433071,-0.537069,-0.482569,0.539569,0
-11.072115,-0.084753,-0.372675,-2.804069,-0.396958,0.385895,44.557022,-0.35498,11.763878,4.63583E+18,0.780536,-0.091347,0.61769,0.029633,-10.415824,-0.155251,-1.013918,0.091785,-0.396058,0.087047,40.659082,-15.914675,15.045875,4.63582E+18,0.628864,-0.261402,0.66397,0.308777,-10.535604,2.360852,1.082946,-0.631272,0.312168,-0.176882,43.39732,13.815704,-3.143893,4.63583E+18,-0.433463,-0.536245,-0.484857,0.53802,0
-10.98724,-0.041114,-0.629829,-2.919922,-0.409503,0.396172,44.510726,-0.777585,11.45619,4.63583E+18,0.780347,-0.099622,0.616158,0.038509,-10.10292,0.02868,-1.334578,0.067778,-0.405864,0.090493,40.744521,-15.998914,14.851963,4.63582E+18,0.629897,-0.260368,0.663185,0.309232,-10.524456,2.746828,1.064493,-0.918597,0.301964,-0.214616,43.362535,14.036677,-2.883396,4.63583E+18,-0.43443,-0.534794,-0.487849,0.535975,0
-10.876099,-0.190958,-0.861668,-3.052453,-0.467894,0.404778,44.584096,-1.057684,11.360602,4.63583E+18,0.78013,-0.108279,0.614321,0.047772,-10.070912,0.443687,-1.125873,0.025545,-0.426489,0.075242,40.822757,-16.073352,14.569828,4.63582E+18,0.630959,-0.259459,0.662273,0.309784,-10.651698,2.415157,0.819932,-1.158956,0.32278,-0.261718,43.250832,14.14838,-2.711277,4.63583E+18,-0.435775,-0.532848,-0.49151,0.53347,0
-10.709011,-0.265339,-0.923271,-3.186793,-0.540964,0.416527,44.850792,-1.510124,11.141343,4.63583E+18,0.779894,-0.117404,0.612101,0.057562,-10.173766,0.804682,-0.948184,-0.051152,-0.441321,0.046629,40.849379,-16.141986,14.385515,4.63582E+18,0.632014,-0.25881,0.66119,0.310488,-10.718903,1.861693,0.36493,-1.326467,0.330149,-0.300786,43.271115,14.165766,-2.546971,4.63583E+18,-0.437377,-0.530519,-0.495628,0.530663,0
-10.540075,-0.418358,-0.858333,-3.297803,-0.586369,0.450551,44.972073,-2.037535,10.903076,4.63583E+18,0.779561,-0.126794,0.6096,0.067793,-10.104126,0.690822,-1.130483,-0.12424,-0.465872,0.010207,41.008075,-16.073352,14.201009,4.63582E+18,0.633103,-0.258422,0.659907,0.311323,-10.384753,1.26621,-0.199683,-1.398875,0.353668,-0.329895,43.301513,14.276674,-2.145374,4.63583E+18,-0.439013,-0.528029,-0.499997,0.527689,0
-10.324137,-0.775032,-0.79475,-3.404967,-0.615715,0.480675,44.918067,-2.584368,10.801597,4.63583E+18,0.779077,-0.136418,0.606864,0.078394,-10.077114,0.785689,-1.090063,-0.184443,-0.501629,-0.028229,41.14395,-16.157602,14.086726,4.63582E+18,0.634272,-0.258251,0.658406,0.31226,-10.032834,0.442174,-0.699719,-1.356264,0.409913,-0.343979,43.169519,14.528867,-1.715668,4.63583E+18,-0.440393,-0.525689,-0.50439,0.524687,0
-9.952099,-0.896907,-0.858414,-3.495118,-0.683983,0.500293,44.886623,-3.165768,10.493718,4.63583E+18,0.778537,-0.146237,0.603753,0.089317,-10.135748,1.03182,-1.157913,-0.267022,-0.553092,-0.076611,41.070705,-16.223639,13.726318,4.63582E+18,0.635553,-0.258363,0.656607,0.31335,-9.963515,-0.151414,-1.512662,-1.199845,0.469078,-0.345919,43.124613,14.808609,-1.458068,4.63583E+18,-0.441287,-0.523743,-0.508537,0.52187,0
-9.574349,-1.195202,-0.779926,-3.550143,-0.766393,0.505345,44.986903,-3.589725,10.034336,4.63583E+18,0.777992,-0.15615,0.600218,0.100418,-10.187961,0.863127,-1.49629,-0.341802,-0.618415,-0.128295,41.011867,-16.215241,13.531023,4.63582E+18,0.636995,-0.258727,0.654477,0.314575,-9.995592,-1.157783,-1.715101,-1.003023,0.512438,-0.294197,43.192688,14.964404,-1.18519,4.63583E+18,-0.441761,-0.522349,-0.512209,0.519268,0
-9.163097,-1.580011,-0.754316,-3.596528,-0.877053,0.501466,45.045319,-3.91934,9.68615,4.63583E+18,0.777514,-0.166116,0.596165,0.111644,-10.349704,0.839691,-1.679605,-0.406638,-0.706395,-0.185407,41.09469,-16.138187,13.34651,4.63582E+18,0.638675,-0.259301,0.651961,0.315918,-10.041665,-1.596008,-1.090115,-0.839421,0.52696,-0.247469,43.184632,15.093512,-0.667122,4.63583E+18,-0.441944,-0.521374,-0.515445,0.516886,0
-8.642036,-2.067076,-0.827555,-3.629461,-1.009382,0.493819,44.999037,-4.410898,9.366834,4.63583E+18,0.777157,-0.176095,0.591518,0.122981,-10.206801,0.960149,-1.754055,-0.466916,-0.810501,-0.256244,41.256014,-16.129791,13.250255,4.63582E+18,0.640658,-0.260087,0.649003,0.317346,-10.467039,-0.919459,-1.511585,-0.864761,0.517204,-0.232008,43.111389,15.169651,-0.37843,4.63583E+18,-0.442229,-0.520354,-0.518675,0.514434,0
-8.242492,-2.791839,-0.41488,-3.691427,-1.109826,0.484881,45.018351,-4.989114,8.832218,4.63583E+18,0.776807,-0.186208,0.586352,0.134499,-10.159195,1.164007,-1.858638,-0.509255,-0.939803,-0.315711,41.330438,-16.028797,13.037026,4.63582E+18,0.64301,-0.260972,0.645567,0.318864,-11.064932,-1.240866,-1.876791,-0.977982,0.493022,-0.201749,43.038145,15.252206,-0.332119,4.63583E+18,-0.442866,-0.51913,-0.522025,0.511726,0
-8.006723,-3.512685,0.442914,-3.796732,-1.163335,0.485784,45.145586,-5.470307,8.177513,4.63583E+18,0.776295,-0.196581,0.580794,0.146288,-10.777469,0.404525,-2.138212,-0.527016,-1.082872,-0.347463,41.424269,-15.815768,12.620297,4.63582E+18,0.645755,-0.261794,0.641676,0.320493,-11.667384,-2.141959,-2.060158,-0.990388,0.452104,-0.117223,43.002519,15.287831,-0.096313,4.63583E+18,-0.443791,-0.517969,-0.525133,0.508914,0
-7.603195,-3.898697,1.040266,-3.856861,-1.170351,0.515136,45.142317,-5.789565,7.587771,4.63583E+18,0.775519,-0.207002,0.575041,0.158265,-12.163596,1.333957,-2.417542,-0.547833,-1.256727,-0.510218,41.602349,-15.880635,11.852436,4.63582E+18,0.649139,-0.262867,0.637091,0.321921,-11.195147,-3.336026,-1.819382,-0.934734,0.448462,-0.005778,43.070612,15.222631,0.272802,4.63583E+18,-0.444833,-0.517135,-0.527866,0.506016,0
-7.170867,-4.21093,0.921959,-3.88761,-1.217693,0.589566,45.106354,-6.300338,6.915135,4.63583E+18,0.774582,-0.217169,0.569043,0.170442,-12.666251,1.712617,-2.883209,-0.717404,-1.453137,-0.636687,41.862016,-15.837345,11.105215,4.63582E+18,0.653,-0.264461,0.631582,0.32366,-9.253644,-3.983041,-1.085822,-0.910405,0.52338,0.057346,43.103066,15.205276,0.62807,4.63583E+18,-0.445784,-0.516633,-0.530542,0.502884,0
-6.360693,-4.214765,0.545476,-3.853259,-1.333274,0.670348,45.106354,-6.913249,6.301587,4.63583E+18,0.773669,-0.226888,0.562603,0.182854,-12.757453,4.079413,-4.051181,-0.860968,-1.703212,-0.760541,42.257718,-15.514894,10.435181,4.63582E+18,0.657487,-0.266418,0.625024,0.325696,-7.800531,-2.865599,-1.123081,-0.998063,0.646311,0.084748,43.160241,15.111808,0.934813,4.63583E+18,-0.4467,-0.516274,-0.533561,0.499233,0
-5.290939,-3.837619,0.808263,-3.768762,-1.317138,0.666468,45.252844,-7.345004,5.749041,4.63583E+18,0.772559,-0.236354,0.556088,0.195079,-12.919344,5.80174,-4.095419,-1.0692,-2.001028,-0.909609,42.570548,-15.266933,9.65783,4.63582E+18,0.662662,-0.268907,0.617148,0.32817,-7.849692,-1.222264,-1.007409,-1.213064,0.68232,0.117863,43.092773,14.953098,1.368863,4.63583E+18,-0.448057,-0.515647,-0.537007,0.494951,0
-4.347823,-3.384694,1.238066,-3.700911,-1.180764,0.58968,45.384551,-7.578858,5.064197,4.63583E+18,0.771049,-0.245827,0.549837,0.206717,-12.174257,4.91386,-2.437096,-1.377632,-2.278201,-1.022145,42.744784,-15.070926,8.784185,4.63582E+18,0.668279,-0.272127,0.607885,0.3314,-7.918421,0.43371,-0.669482,-1.501371,0.684122,0.144397,43.078643,14.831995,1.939703,4.63583E+18,-0.450068,-0.514522,-0.540976,0.48995,0
-3.712354,-3.253592,1.108319,-3.642386,-1.095359,0.545318,45.257351,-7.903956,4.3767,4.63583E+18,0.769242,-0.255221,0.54372,0.217939,-11.148775,4.446317,-0.913511,-1.620193,-2.549205,-1.109708,43.063365,-14.644872,7.742739,4.63582E+18,0.674321,-0.275827,0.597339,0.335257,-7.655637,1.615816,-0.844854,-1.763884,0.771474,0.139622,43.156061,14.849335,2.504066,4.63583E+18,-0.452413,-0.513041,-0.545626,0.484152,0
-3.250412,-3.788093,1.149403,-3.524168,-1.086249,0.569095,45.059464,-8.372958,3.853073,4.63583E+18,0.767356,-0.26406,0.537663,0.228813,-10.780385,1.65663,1.67218,-1.895897,-2.736321,-1.183414,43.392888,-14.25257,6.733266,4.63582E+18,0.680482,-0.280171,0.58568,0.339745,-7.892623,1.982153,-0.864926,-1.929467,0.86075,0.109318,43.150932,14.867679,3.077778,4.63583E+18,-0.454818,-0.511321,-0.550806,0.477812,0
-2.641377,-4.351571,1.75071,-3.32798,-1.037968,0.589111,45.19691,-8.773229,3.270374,4.63583E+18,0.76536,-0.272276,0.531815,0.239298,-11.384747,2.110704,4.79156,-2.02771,-3.064152,-1.04061,43.699824,-14.094489,5.314683,4.63582E+18,0.686928,-0.284012,0.572938,0.345267,-8.519426,1.565184,-0.086493,-1.910815,0.921241,0.113725,43.07255,14.708973,3.628442,4.63583E+18,-0.457019,-0.509727,-0.556013,0.471341,0
-1.941109,-4.489116,1.992391,-3.122683,-0.908798,0.588662,45.360128,-8.95315,2.603517,4.63583E+18,0.763155,-0.279913,0.526473,0.249137,-12.774315,6.720042,6.371643,-2.3138,-3.203793,-0.91767,43.796294,-14.15225,3.993589,4.63582E+18,0.693008,-0.288103,0.559378,0.351899,-9.086693,0.848267,0.748947,-1.74553,1.017188,0.1567,42.99317,14.587847,4.127598,4.63583E+18,-0.458698,-0.508696,-0.560945,0.464935,0
-1.646091,-4.73442,1.610908,-2.91847,-0.731965,0.599619,45.17906,-9.092535,2.124844,4.63583E+18,0.760661,-0.287,0.521831,0.258299,-13.504965,7.740458,4.827033,-2.961163,-3.261567,-0.942882,43.905602,-14.025059,2.731907,4.63582E+18,0.698262,-0.293946,0.544497,0.359929,-9.79103,-0.034812,1.778507,-1.376654,1.146827,0.197965,43.056166,14.567629,4.744636,4.63583E+18,-0.459346,-0.508685,-0.56529,0.459008,0
-1.908693,-4.736554,1.033982,-2.757667,-0.626517,0.604011,45.057526,-9.363604,1.820283,4.63583E+18,0.758038,-0.293582,0.517651,0.266881,-13.623752,8.506161,5.34951,-3.399833,-3.409058,-0.884166,44.226824,-13.521935,1.188301,4.63582E+18,0.702959,-0.300599,0.528395,0.369172,-10.900377,-0.32443,2.884126,-0.961305,1.233168,0.241929,42.987145,14.464877,5.460953,4.63583E+18,-0.458974,-0.509709,-0.568887,0.45377,0
-2.614652,-4.304268,0.694606,-2.630611,-0.609685,0.622663,45.211638,-9.70091,1.544015,4.63583E+18,0.755394,-0.299731,0.513601,0.275236,-14.320579,10.248013,6.796054,-3.852839,-3.560951,-0.815083,44.448345,-13.129528,-0.549122,4.63582E+18,0.706999,-0.308059,0.511003,0.379642,-11.82476,1.221496,4.296605,-0.828769,1.246897,0.322487,42.925012,14.323497,6.018049,4.63583E+18,-0.458424,-0.511181,-0.572067,0.448643,0
-3.430522,-3.73961,0.537836,-2.492569,-0.565537,0.724132,45.193822,-10.088888,1.217064,4.63583E+18,0.752616,-0.305245,0.509906,0.283533,-13.282859,9.857329,8.506174,-4.545407,-3.74146,-0.739029,44.435545,-12.923773,-2.534658,4.63582E+18,0.710026,-0.316942,0.491805,0.39184,-11.757257,3.002188,5.010807,-0.926618,1.245228,0.387233,43.078599,14.223616,6.484816,4.63583E+18,-0.458188,-0.512597,-0.575265,0.443147,0
-4.170014,-2.734562,0.280323,-2.382641,-0.437923,0.85877,44.976718,-10.503903,0.793757,4.63583E+18,0.749454,-0.310251,0.506847,0.291837,-11.702123,9.643576,8.856121,-5.134979,-3.884871,-0.66252,44.208077,-12.50044,-4.364381,4.63582E+18,0.711969,-0.326968,0.470998,0.405405,-11.189961,4.085276,4.78706,-1.128453,1.261813,0.377269,43.138743,14.036733,6.963777,4.63583E+18,-0.458304,-0.51361,-0.578861,0.43713,0
-4.939726,-1.72362,-0.36515,-2.27443,-0.334704,0.95202,44.886623,-10.918986,0.453098,4.63583E+18,0.746017,-0.314817,0.504305,0.300043,-9.300209,6.89303,7.958525,-5.549857,-3.954804,-0.604495,44.133645,-11.998746,-6.220159,4.63582E+18,0.712839,-0.33774,0.449004,0.419747,-10.508872,4.657459,3.90884,-1.331503,1.28358,0.342781,43.045981,13.716485,7.518372,4.63583E+18,-0.458715,-0.514162,-0.582911,0.43062,0
-5.845531,-0.641231,-0.871691,-2.156149,-0.314761,0.982468,44.8327,-11.22618,0.130621,4.63583E+18,0.742582,-0.318939,0.501962,0.308033,-7.231436,4.319568,6.232388,-5.796639,-3.958479,-0.58619,44.049383,-11.495562,-8.409115,4.63582E+18,0.712742,-0.348923,0.426223,0.434265,-9.55471,4.416735,3.529081,-1.458192,1.317783,0.308466,42.902584,13.427272,8.284532,4.63583E+18,-0.459226,-0.514413,-0.587293,0.423765,0
-7.02545,0.23598,-0.634518,-2.044058,-0.339873,0.95855,44.747257,-11.424088,-0.231053,4.63583E+18,0.739313,-0.322696,0.499611,0.315711,-5.834643,2.58646,3.640877,-5.904588,-3.941955,-0.508721,43.952417,-11.06398,-10.482588,4.63582E+18,0.711699,-0.360014,0.403042,0.448811,-8.672143,3.194376,3.174927,-1.474101,1.328302,0.251679,42.926995,13.288773,9.021122,4.63583E+18,-0.459617,-0.514477,-0.591807,0.41693,0
-8.223853,0.234125,-0.311727,-1.947234,-0.392925,0.935761,44.715717,-11.749039,-0.597287,4.63583E+18,0.736251,-0.326105,0.497149,0.323162,-3.962773,0.058066,0.890962,-5.902455,-3.875243,-0.445381,43.608855,-10.438755,-12.215899,4.63582E+18,0.709808,-0.370804,0.37981,0.463056,-7.693575,1.023633,3.123352,-1.424195,1.35769,0.140896,42.856306,13.175187,9.649258,4.63583E+18,-0.459606,-0.514378,-0.596489,0.410339,0
-8.796858,-0.746239,-0.244148,-1.836631,-0.481265,0.963768,44.723418,-12.164047,-0.778649,4.63583E+18,0.733433,-0.32896,0.49457,0.330548,-3.402754,-2.530937,-0.993992,-5.775465,-3.752257,-0.379988,43.047852,-9.473726,-14.048504,4.63582E+18,0.707192,-0.381037,0.356971,0.476719,-6.973811,-1.299653,4.307359,-1.503215,1.357704,0.016805,42.518209,12.94832,10.180825,4.63583E+18,-0.459522,-0.513784,-0.601532,0.403763,0
-8.509656,-1.856703,0.048478,-1.705036,-0.517772,1.050751,44.674021,-12.525188,-0.975104,4.63583E+18,0.730705,-0.331145,0.492151,0.337935,-2.55024,-5.667847,-4.088531,-5.478768,-3.597692,-0.323769,42.718293,-8.744587,-15.791239,4.63583E+18,0.704151,-0.39032,0.334988,0.489494,-6.986143,-3.003913,4.309792,-1.739035,1.300743,-0.07554,42.385622,12.780314,10.895394,4.63583E+18,-0.459898,-0.512369,-0.607018,0.396864,0
-7.6035,-2.468157,0.312137,-1.620872,-0.351908,1.198383,44.488469,-12.962582,-1.420765,4.63583E+18,0.727486,-0.332991,0.490516,0.345362,-0.001053,-9.715595,-7.314382,-4.957776,-3.341413,-0.284158,42.365018,-8.14328,-17.566464,4.63583E+18,0.701038,-0.398275,0.314658,0.500913,-7.920664,-2.306729,3.612499,-2.235045,1.204105,-0.095643,42.4782,12.604328,11.729741,4.63583E+18,-0.461502,-0.509741,-0.613126,0.388918,0
-6.424692,-2.519987,-0.165061,-1.63484,-0.036999,1.355805,44.190432,-13.463063,-1.846878,4.63583E+18,0.72331,-0.335004,0.489985,0.352859,1.496919,-14.69994,-9.267645,-4.244607,-3.030395,-0.268182,41.790034,-7.383143,-18.815629,4.63583E+18,0.698284,-0.404556,0.296582,0.510659,-9.116121,-1.767724,4.113744,-2.892004,1.096006,-0.126791,42.457199,12.332057,12.475736,4.63583E+18,-0.464664,-0.505522,-0.620074,0.379531,0
-5.730728,-2.3196,-1.153668,-1.542722,0.239687,1.43932,43.92243,-13.955867,-1.9622,4.63583E+18,0.718516,-0.336952,0.4905,0.36001,1.853672,-18.292585,-12.776249,-3.279447,-2.662053,-0.206457,41.244453,-6.503665,-19.995572,4.63583E+18,0.696298,-0.408579,0.28162,0.518578,-9.887871,-1.384004,3.972477,-3.596587,0.928378,-0.200089,42.269855,11.93214,13.216177,4.63583E+18,-0.469536,-0.499378,-0.627842,0.368743,0
-6.291585,-2.149268,-1.966077,-1.319615,0.354473,1.463296,43.790593,-14.390235,-1.753015,4.63583E+18,0.713727,-0.338311,0.491704,0.366561,2.378814,-22.360803,-15.967078,-2.123891,-2.227953,-0.179034,41.066442,-5.883523,-21.205596,4.63583E+18,0.695546,-0.410057,0.270396,0.524361,-9.588231,-0.673256,4.140723,-4.202309,0.671475,-0.256647,42.165063,11.59335,14.111405,4.63583E+18,-0.476125,-0.491362,-0.635987,0.356915,0
-7.848773,-1.945726,-2.024803,-1.122906,0.326868,1.420489,43.817422,-14.85461,-1.628095,4.63583E+18,0.709302,-0.339095,0.493044,0.372576,1.972785,-25.830398,-18.760951,-0.73275,-1.732642,-0.170096,40.791467,-5.644918,-21.937997,4.63583E+18,0.696515,-0.40853,0.263633,0.5277,-9.413386,-0.065583,4.605335,-4.772777,0.361479,-0.34724,42.11335,11.370589,14.716632,4.63583E+18,-0.4844,-0.481336,-0.644324,0.344266,0
-9.57536,-1.817037,-1.562466,-0.957338,0.254069,1.325509,43.848991,-15.401316,-1.723655,4.63583E+18,0.705367,-0.339459,0.494262,0.378061,0.141934,-25.237168,-20.032444,0.819785,-1.271484,-0.116113,40.245419,-5.60361,-22.308451,4.63583E+18,0.699468,-0.403431,0.2617,0.528679,-10.554963,1.203849,4.934671,-5.590043,-0.131127,-0.459999,42.058072,10.887812,15.107258,4.63583E+18,-0.495245,-0.46842,-0.652761,0.330481,0
-11.178446,-1.763699,-1.108706,-0.754063,0.185363,1.185022,43.695044,-15.874979,-1.890044,4.63583E+18,0.702045,-0.339403,0.495371,0.382812,-3.278725,-21.137493,-15.271107,2.234887,-0.923619,-0.031578,39.883953,-5.882433,-22.491565,4.63583E+18,0.704184,-0.394853,0.264022,0.527738,-11.288969,3.451124,4.923848,-6.525167,-0.554504,-0.453118,42.018575,10.123881,15.520888,4.63583E+18,-0.508755,-0.452703,-0.661179,0.314755,0
-12.57929,-2.284437,-0.810448,-0.540817,0.069698,0.991807,43.350848,-16.236134,-1.999365,4.63583E+18,0.699546,-0.338937,0.49619,0.386721,-8.598608,-13.152623,-5.932095,3.15364,-0.708176,0.179739,39.91547,-6.39563,-22.664042,4.63583E+18,0.709611,-0.383766,0.269306,0.525975,-11.357363,2.506136,4.944905,-7.064949,-0.649154,-0.386361,41.969744,9.433123,16.009184,4.63583E+18,-0.523219,-0.435526,-0.669444,0.297328,0
-13.339007,-3.80858,-0.781811,-0.331297,-0.104529,0.788,43.15582,-16.511856,-1.957157,4.63583E+18,0.698024,-0.337987,0.496547,0.389832,-12.2805,-0.833323,4.656488,3.395792,-0.692756,0.244842,39.982382,-7.139019,-22.757376,4.63582E+18,0.715127,-0.371849,0.275217,0.524002,-11.859651,-1.320509,5.607579,-6.999846,-0.595878,-0.247635,41.981361,8.70913,16.497467,4.63583E+18,-0.537134,-0.41856,-0.676915,0.279429,0
-13.44751,-5.625083,-0.787109,-0.118456,-0.16238,0.559692,43.128757,-16.702127,-1.908865,4.63583E+18,0.697293,-0.336784,0.496761,0.391903,-15.845269,9.217089,15.00023,3.009681,-0.846443,0.178451,39.746079,-7.841928,-23.019235,4.63582E+18,0.72023,-0.360752,0.279671,0.522409,-12.944614,-3.474753,7.423785,-6.422659,-0.566316,-0.006805,42.145712,7.713271,16.919544,4.63583E+18,-0.549817,-0.403261,-0.682829,0.262349,0
-13.346681,-7.205698,-0.576692,0.016363,0.043745,0.347721,43.074892,-16.81463,-1.904355,4.63583E+18,0.696666,-0.335964,0.497494,0.392789,-19.266236,16.705485,21.864194,1.956901,-1.035257,0.144782,39.362405,-8.251548,-23.096407,4.63582E+18,0.723953,-0.352397,0.281179,0.522156,-14.21365,-3.064964,9.715653,-5.450062,-0.60769,0.259409,42.149985,6.793441,17.060895,4.63583E+18,-0.560932,-0.390643,-0.686716,0.247335,0
-13.659989,-8.167172,-0.694698,0.121169,0.354782,0.186439,42.943284,-16.846216,-1.842804,4.63583E+18,0.695799,-0.335689,0.499071,0.392562,-18.199727,21.069765,21.959005,0.620227,-1.182676,-0.312276,39.068778,-8.471938,-23.134378,4.63582E+18,0.726838,-0.348268,0.278647,0.522275,-15.794036,-1.860274,11.116667,-4.300291,-0.688649,0.513056,42.129224,5.956208,17.030804,4.63583E+18,-0.570429,-0.381182,-0.688524,0.235044,0
-14.852429,-8.149308,-1.160941,0.219304,0.938149,0.056772,42.892303,-16.946237,-1.614348,4.63583E+18,0.694052,-0.336363,0.502304,0.390952,-17.353531,13.641828,16.717851,-0.317058,-1.235671,-0.767489,38.986042,-8.431593,-23.552307,4.63582E+18,0.72939,-0.347379,0.273245,0.522164,-16.889296,-1.523306,10.926075,-3.043382,-0.662458,0.754727,42.273582,5.195155,17.114779,4.63583E+18,-0.577945,-0.375323,-0.688607,0.225683,0
-17.338016,-6.864981,-3.124407,0.20631,1.648262,-0.019215,43.050676,-17.051071,-1.139941,4.63583E+18,0.690892,-0.338391,0.507439,0.388156,-15.632015,1.85948,8.640838,-0.477236,-1.138369,-1.010198,38.815139,-8.009427,-24.196418,4.63582E+18,0.732099,-0.347451,0.267427,0.521336,-16.703907,-2.784378,9.555104,-1.681204,-0.476419,0.914593,42.492552,4.55112,17.117653,4.63583E+18,-0.582878,-0.373328,-0.687524,0.219525,0
-20.934559,-4.247482,-6.478148,0.130986,1.842188,-0.108059,43.202502,-16.916616,-0.573911,4.63583E+18,0.687321,-0.341124,0.512855,0.384973,-12.579814,-5.277096,2.463074,-0.083977,-0.972038,-1.096055,38.644257,-7.54489,-24.559753,4.63583E+18,0.735349,-0.346768,0.262837,0.519548,-15.909571,-4.396886,7.156453,-0.404074,-0.281951,0.919273,42.567215,4.095128,17.10686,4.63583E+18,-0.585247,-0.374606,-0.68571,0.216701,0
-24.157639,-1.031415,-9.983343,-0.061018,1.060456,-0.164349,43.238621,-16.667953,-0.135449,4.63583E+18,0.685219,-0.343249,0.515631,0.383118,-10.797914,-8.69241,1.249457,0.456665,-0.818446,-1.07308,38.474555,-7.316155,-24.668425,4.63583E+18,0.739138,-0.344724,0.25991,0.516999,-14.657217,-4.386624,4.537215,0.496643,-0.111246,0.806491,42.607454,3.744766,17.041534,4.63583E+18,-0.585611,-0.377904,-0.683664,0.216453,0
-24.873037,1.09071,-12.427511,-0.268064,-0.438603,-0.101028,43.184782,-16.731484,0,4.63583E+18,0.685945,-0.343415,0.513892,0.384006,-8.108187,-8.346343,3.19138,0.853796,-0.663232,-0.918406,38.338355,-7.222402,-24.785051,4.63583E+18,0.74297,-0.341613,0.25853,0.514255,-13.004339,-3.545816,2.38308,0.911518,0.052976,0.636838,42.755361,3.576769,17.061652,4.63583E+18,-0.584691,-0.381872,-0.6819,0.217537,0
-22.968283,2.131189,-12.392316,-0.478622,-1.706435,0.032774,43.199316,-16.983312,-0.407622,4.63583E+18,0.688858,-0.341847,0.508376,0.387516,-4.550459,-7.082183,6.436358,1.087315,-0.475897,-0.686034,38.396215,-7.068087,-25.057868,4.63583E+18,0.746411,-0.337919,0.258552,0.511696,-12.17437,-2.781088,0.611035,0.887241,0.091293,0.382009,42.831473,3.594006,17.126987,4.63583E+18,-0.58346,-0.385083,-0.680645,0.219106,0
-20.661344,2.206235,-9.448307,-0.694536,-1.976678,0.213709,43.218723,-17.085848,-1.246888,4.63583E+18,0.691698,-0.340059,0.501959,0.392366,-2.91794,-5.873112,9.977801,1.179029,-0.299367,-0.356731,38.304834,-7.084658,-25.126758,4.63583E+18,0.749066,-0.333952,0.259774,0.509797,-12.037201,-1.018126,-0.698,0.374886,0.062583,0.072938,42.896816,3.632777,17.126987,4.63583E+18,-0.582845,-0.386143,-0.680277,0.220018,0
-19.821167,1.360084,-6.241173,-0.806192,-1.265743,0.425667,43.114237,-17.090364,-1.837561,4.63583E+18,0.692507,-0.339289,0.497681,0.397026,-2.937892,-2.841012,11.992472,0.983977,-0.174161,-0.01731,38.17255,-7.262661,-25.048408,4.63583E+18,0.750577,-0.330486,0.261438,0.508982,-11.438329,1.769365,-1.456278,-0.630969,0.136033,-0.199368,42.859474,3.556662,17.172946,4.63583E+18,-0.583388,-0.384053,-0.681445,0.21862,0
-21.475374,-0.251903,-6.162888,-0.907486,-0.391636,0.646251,42.947859,-17.244155,-1.96991,4.63583E+18,0.690981,-0.339779,0.496061,0.401271,-4.487447,-2.202193,12.221073,0.639559,-0.089272,0.302068,38.189101,-7.506782,-25.055117,4.63583E+18,0.750835,-0.327924,0.263074,0.509417,-10.441018,2.377037,-2.144232,-1.737327,0.292717,-0.455507,42.740989,3.474092,17.388337,4.63583E+18,-0.585005,-0.378674,-0.684389,0.214445,0
-24.64227,-2.259394,-8.705654,-1.045756,-0.384736,0.906777,42.684681,-17.495992,-2.196077,4.63583E+18,0.688793,-0.340127,0.494585,0.406527,-8.062265,-4.04149,10.462751,0.356507,-0.02956,0.637184,38.344634,-7.767477,-25.219313,4.63583E+18,0.749921,-0.326004,0.264751,0.511123,-9.76952,0.60724,-1.521939,-2.63254,0.445077,-0.671835,42.735978,3.360676,17.648992,4.63583E+18,-0.58735,-0.370594,-0.688783,0.207987,0
-27.14649,-3.81936,-11.021389,-1.167745,-1.468797,1.186451,42.459576,-17.806149,-2.862126,4.63583E+18,0.688154,-0.338388,0.49016,0.414343,-12.498943,-4.901828,7.580112,0.139696,0.024739,0.925276,38.348576,-8.174214,-25.181134,4.63582E+18,0.74803,-0.324554,0.266524,0.513888,-9.735769,-1.334694,0.104422,-3.191179,0.569612,-0.799273,42.654855,3.136622,17.847175,4.63583E+18,-0.589993,-0.360828,-0.69405,0.200013,0
-27.554291,-4.723017,-10.979704,-1.232293,-2.834198,1.409668,42.334808,-18.201757,-4.004233,4.63583E+18,0.689737,-0.333966,0.48196,0.424787,-16.647879,-5.469623,6.000678,-0.011734,0.03157,1.170204,38.260008,-8.504962,-24.908646,4.63582E+18,0.745387,-0.323311,0.26832,0.517563,-9.479047,-1.879498,1.806918,-3.451514,0.66832,-0.861667,42.491176,3.012361,18.094829,4.63583E+18,-0.592566,-0.350247,-0.699725,0.191254,0
-25.531556,-5.242014,-8.552825,-1.237783,-3.671627,1.560505,42.029572,-18.736648,-5.376449,4.63583E+18,0.692562,-0.327684,0.471437,0.436724,-20.63193,-5.922172,5.112564,-0.108189,-0.019636,1.404499,38.028045,-8.86097,-24.749908,4.63582E+18,0.742144,-0.321985,0.270058,0.522127,-8.465897,-0.80008,3.018575,-3.585533,0.739637,-0.898677,42.308731,2.93134,18.49904,4.63583E+18,-0.594954,-0.339198,-0.705572,0.18205,0
-22.30698,-4.911442,-5.190392,-1.254836,-3.876427,1.625049,41.610063,-19.327034,-6.780089,4.63583E+18,0.695437,-0.320841,0.460235,0.449012,-23.186124,-5.640143,4.657875,-0.188136,-0.09673,1.595584,37.797308,-9.350392,-24.941254,4.63582E+18,0.738434,-0.320509,0.27163,0.527453,-7.498507,0.969828,3.375126,-3.693005,0.795249,-0.931534,42.230483,2.603191,18.964423,4.63583E+18,-0.597154,-0.327738,-0.711507,0.172487,0
-19.185766,-4.926325,-1.862129,-1.218803,-3.555155,1.590953,41.141251,-19.820716,-8.183815,4.63583E+18,0.697595,-0.314461,0.449842,0.460562,-25.899291,-3.612378,3.64479,-0.377661,-0.239613,1.719088,37.584649,-9.849716,-25.183872,4.63582E+18,0.734323,-0.319144,0.272497,0.533537,-6.689308,1.637917,2.901406,-3.735321,0.852598,-0.972694,42.058952,2.237661,19.377945,4.63583E+18,-0.599052,-0.315999,-0.717484,0.162779,0
-16.669626,-5.11038,0.34755,-1.222867,-2.81136,1.435054,40.686859,-20.198702,-9.47239,4.63583E+18,0.698478,-0.309742,0.441285,0.470591,-28.654385,-0.571111,1.891381,-0.653755,-0.409501,1.777252,37.421655,-10.323857,-25.201559,4.63582E+18,0.729864,-0.318159,0.272293,0.540306,-5.896621,1.713279,2.047902,-3.695599,0.930057,-0.995569,41.783186,2.030783,19.86621,4.63583E+18,-0.600488,-0.304255,-0.723465,0.153103,0
-14.957005,-5.330059,0.317551,-1.320923,-2.12883,1.160336,40.321106,-20.486695,-10.516301,4.63583E+18,0.698399,-0.307107,0.434091,0.479051,-30.211187,0.086839,-0.478314,-0.737623,-0.475457,1.810492,37.105476,-10.672694,-25.394073,4.63582E+18,0.725243,-0.31722,0.271726,0.54732,-5.057841,1.803829,0.776186,-3.566505,1.009003,-1.011965,41.600702,1.910921,20.328748,4.63583E+18,-0.601353,-0.292753,-0.729393,0.143721,0
-13.288811,-5.595015,-0.525216,-1.440512,-1.891897,0.837178,40.037622,-20.696937,-11.340975,4.63583E+18,0.698303,-0.305838,0.426883,0.486423,-29.186105,0.970573,-3.478351,-0.550848,-0.494318,1.738768,36.823846,-11.111302,-25.674844,4.63582E+18,0.721005,-0.315732,0.271416,0.553894,-4.09081,1.840353,-0.766799,-3.344962,1.051291,-1.033522,41.519602,1.67612,20.710033,4.63583E+18,-0.601658,-0.281692,-0.735144,0.134983,0
-11.058151,-5.015649,0.354542,-1.620138,-1.850792,0.509257,39.627594,-20.718692,-12.220772,4.63583E+18,0.698491,-0.305729,0.418965,0.493061,-25.973303,3.922848,-4.689779,-0.205041,-0.478408,1.522636,36.769877,-11.754012,-25.927346,4.63582E+18,0.717663,-0.313467,0.271653,0.559377,-2.754004,2.124466,-2.667709,-3.007008,1.088672,-1.040256,41.355941,1.432001,21.077704,4.63583E+18,-0.601318,-0.271416,-0.740651,0.127226,0
-8.745928,-3.2666,2.167125,-1.864537,-1.470404,0.202178,39.173193,-20.54556,-13.180634,4.63583E+18,0.698249,-0.30763,0.411207,0.498719,-23.696341,5.378204,-5.513426,0.277692,-0.556855,1.379487,36.750291,-12.228167,-25.916317,4.63582E+18,0.715344,-0.309723,0.272583,0.563962,-1.239766,2.864308,-5.181874,-2.557933,1.143097,-1.025129,41.153407,1.245155,21.393576,4.63583E+18,-0.600204,-0.26229,-0.745911,0.120735,0
-6.916047,-1.528491,1.725672,-2.090877,-0.978751,-0.026072,38.961076,-20.259833,-13.968294,4.63583E+18,0.697293,-0.311566,0.404084,0.503413,-21.788585,6.262196,-6.773866,1.07551,-0.76264,1.27943,36.425912,-12.576954,-25.933942,4.63582E+18,0.714487,-0.303215,0.274633,0.567579,0.066644,4.272231,-7.923615,-1.852052,1.256633,-0.990511,40.955337,1.296727,21.873057,4.63583E+18,-0.597904,-0.255059,-0.750966,0.116215,0
-5.847049,-0.185177,-0.500896,-2.2856,-0.923636,-0.120337,38.975512,-20.042328,-14.52897,4.63583E+18,0.696113,-0.316321,0.396545,0.508055,-19.881281,11.407805,-8.560372,1.278271,-0.989344,0.989871,36.044647,-13.007337,-26.135891,4.63582E+18,0.714787,-0.295879,0.276105,0.570352,-0.159623,7.04164,-9.59729,-1.023861,1.369564,-0.940219,40.603478,1.462025,22.619122,4.63583E+18,-0.594345,-0.250078,-0.755785,0.114032,0
-5.213213,0.641815,-1.651038,-2.478943,-1.193993,-0.071404,38.9412,-19.783792,-15.078648,4.63583E+18,0.694957,-0.320933,0.387841,0.513435,-20.926492,17.33299,-11.484612,0.704719,-1.154493,0.383529,35.764628,-13.542249,-26.504877,4.63582E+18,0.715977,-0.290541,0.274961,0.572154,-1.792009,12.211629,-10.64281,-0.711868,1.459294,-0.847258,40.301176,1.452681,23.244681,4.63583E+18,-0.590186,-0.246187,-0.760537,0.1125,0
-4.613272,-0.021189,-1.536468,-2.692283,-1.306548,0.153347,38.789769,-19.566266,-15.902726,4.63583E+18,0.693123,-0.325513,0.378602,0.519887,-25.796817,12.417789,-11.542886,0.343755,-1.282165,-0.335181,35.61299,-13.696707,-26.777404,4.63582E+18,0.718566,-0.28679,0.271696,0.57236,-2.865723,14.041853,-12.346181,-0.548715,1.63744,-0.695434,39.988143,1.449818,23.746555,4.63583E+18,-0.585331,-0.243244,-0.765451,0.110922,0
-3.583607,-2.096422,-1.168887,-2.895356,-1.374264,0.381452,38.614345,-19.361487,-16.867081,4.63583E+18,0.690511,-0.33012,0.368973,0.527328,-25.432279,3.594579,-8.88989,0.447417,-1.375298,-0.654397,35.505246,-13.696707,-26.990319,4.63582E+18,0.722119,-0.282858,0.268008,0.571583,-3.143991,12.915061,-13.833105,-0.279631,1.949044,-0.422379,39.609772,1.491978,24.35245,4.63583E+18,-0.579299,-0.241957,-0.770676,0.109216,0
-1.507811,-3.867686,0.544409,-2.980358,-1.51823,0.547524,38.335945,-19.129573,-17.769911,4.63583E+18,0.687515,-0.334336,0.358905,0.535472,-19.429783,-1.578984,-7.053339,0.246116,-1.479274,-0.312974,35.171479,-13.688503,-27.38863,4.63582E+18,0.724708,-0.278891,0.26392,0.572158,-3.455787,13.742351,-14.898769,0.003928,2.344809,-0.118997,39.21127,1.711732,25.023918,4.63583E+18,-0.571801,-0.242491,-0.776358,0.107283,0
-0.062449,-5.667888,2.690272,-3.016895,-1.042859,0.826283,38.047926,-18.843912,-18.521358,4.63583E+18,0.68301,-0.339234,0.350439,0.543701,-19.096244,-8.471248,-7.263619,-0.25267,-1.672601,0.042428,34.707794,-13.611255,-27.964038,4.63582E+18,0.726052,-0.275566,0.258459,0.574553,-3.017678,16.293013,-16.198052,0.17829,2.811262,0.178588,38.735952,1.877078,25.786896,4.63583E+18,-0.562686,-0.244589,-0.782684,0.104727,0
0.063029,-7.492836,2.292586,-3.05974,-0.359259,1.038349,37.845328,-18.5726,-19.14352,4.63583E+18,0.676842,-0.345431,0.344057,0.551532,-31.184585,-8.335758,-11.268005,0.096885,-1.937776,-1.709467,34.512187,-13.531562,-28.46005,4.63582E+18,0.732217,-0.272414,0.251001,0.571531,-1.862604,20.92383,-20.509854,0.234659,3.381131,0.436321,38.131736,1.824817,26.920368,4.63583E+18,-0.551673,-0.247867,-0.789928,0.101153,0
-0.197856,-8.632335,0.653035,-3.00533,-0.205885,1.275756,37.62068,-18.589497,-19.714119,4.63583E+18,0.669862,-0.351426,0.33851,0.559639,-16.652443,-20.268772,-7.766362,-2.314075,-2.501412,-2.50466,34.593057,-12.615944,-29.191688,4.63582E+18,0.737975,-0.27605,0.235127,0.569126,-1.718317,31.917845,-36.070191,-0.41593,4.25769,0.560795,37.174029,1.584485,28.264709,4.63583E+18,-0.538359,-0.250365,-0.79913,0.094223,0
0.113945,-8.820653,-0.203156,-2.855949,-0.572051,1.570927,37.372003,-18.66059,-20.221916,4.63583E+18,0.662816,-0.355663,0.332663,0.568783,-4.844766,-13.124104,-6.848626,-5.908252,-3.889376,-2.832089,33.994074,-10.838934,-30.414145,4.63583E+18,0.741252,-0.287587,0.205936,0.570465,-13.11021,44.821656,-26.540016,-2.533072,3.745249,0.612199,36.15034,1.031367,29.445561,4.63583E+18,-0.528797,-0.248001,-0.807693,0.080635,0
0.845393,-7.854407,1.215402,-2.87813,-1.04399,1.904855,37.020366,-18.619053,-20.813171,4.63583E+18,0.655482,-0.358299,0.325898,0.579445,-16.714456,-27.087187,-3.419406,-8.144968,-4.55163,-1.676715,32.785265,-8.516297,-32.011794,4.63583E+18,0.738723,-0.303096,0.170509,0.577363,-17.319982,23.963912,10.1329,-3.342221,3.356123,0.999084,35.419739,0.032787,30.362328,4.63583E+18,-0.521309,-0.244932,-0.814965,0.063848,0
1.895298,-5.489671,5.111773,-3.252633,-0.872212,2.197225,36.551608,-18.645613,-21.410906,4.63583E+18,0.6465,-0.361879,0.319059,0.591001,-24.082017,-19.398357,-4.267777,-7.910215,-4.380299,-0.891807,31.384695,-6.067036,-33.669861,4.63583E+18,0.733378,-0.317285,0.136912,0.585442,-4.719174,0.03232,4.710849,-2.811889,3.71498,0.915732,34.212502,-0.903639,31.434696,4.63583E+18,-0.511833,-0.242728,-0.822644,0.048653,0
2.53573,-2.541526,6.576537,-3.514906,0.013797,2.315357,36.005068,-18.784795,-21.972421,4.63583E+18,0.635459,-0.368091,0.31404,0.60173,-21.332626,-7.324407,-10.38074,-7.859731,-4.163265,-0.660231,30.349934,-3.739341,-34.964999,4.63583E+18,0.726382,-0.331271,0.104216,0.5931,-2.55599,-15.761145,7.411899,-1.808472,3.314002,0.562553,32.279083,-1.101233,32.689442,4.63583E+18,-0.502482,-0.241291,-0.829363,0.038041,0
1.658761,1.230887,4.489806,-3.632832,0.48292,2.294703,35.63858,-18.748439,-22.426494,4.63583E+18,0.623441,-0.375723,0.309814,0.611693,-29.140372,-2.559713,-14.501771,-6.888564,-4.143457,-0.943168,29.189596,-1.153009,-36.244209,4.63582E+18,0.720505,-0.342072,0.073459,0.598717,-0.25568,-20.621353,11.469996,-0.216242,2.362411,0.347906,30.841567,-0.741502,33.635855,4.63583E+18,-0.494697,-0.242253,-0.833912,0.034333,0
0.56,6.131152,4.055498,-3.821355,0.097753,2.16193,35.386775,-18.643482,-22.870829,4.63583E+18,0.611761,-0.382912,0.303797,0.62196,-37.159609,3.473933,-18.454369,-5.262355,-4.308729,-1.784666,27.683913,0.91349,-37.24869,4.63582E+18,0.718379,-0.347498,0.044988,0.60096,-3.055406,1.193568,0.967548,0.43977,2.092883,0.204101,30.332247,-0.491687,34.124151,4.63583E+18,-0.487123,-0.244011,-0.837884,0.033473,0
0.862669,9.137289,4.268363,-4.049928,-0.314864,2.004375,35.030659,-18.57024,-23.408295,4.63583E+18,0.600439,-0.389682,0.295781,0.632561,-38.15646,5.206759,-20.913409,-3.84089,-4.625461,-2.574367,26.249964,2.540932,-38.055457,4.63582E+18,0.719776,-0.347747,0.01795,0.60056,-10.611181,15.480923,-10.477687,-0.172659,2.241357,0.165226,29.845234,-0.719742,34.618149,4.63583E+18,-0.479608,-0.24439,-0.842215,0.0304,0
2.0266,8.579462,1.909459,-4.35574,-0.383032,1.88194,34.615606,-18.343499,-24.16624,4.63583E+18,0.588807,-0.397044,0.286479,0.643111,-33.351059,1.374335,-20.314213,-3.052224,-4.686195,-2.538789,24.752505,4.07491,-38.882684,4.63582E+18,0.721733,-0.345236,-0.007259,0.599884,-16.230762,4.012484,-10.833813,-0.665574,2.14019,0.32702,29.09727,-1.151895,35.147952,4.63583E+18,-0.472929,-0.244314,-0.846171,0.025374,0
1.712102,7.97807,1.52985,-4.666846,0.131856,1.572228,34.34639,-17.92637,-24.979183,4.63583E+18,0.57664,-0.406759,0.276978,0.652163,-33.256032,1.642096,-18.659396,-2.350518,-4.770106,-2.636195,23.162762,5.430875,-39.787645,4.63582E+18,0.724489,-0.340186,-0.031102,0.598684,-19.402055,-6.232807,-8.355946,-1.113774,1.984133,0.682954,28.806344,-1.743005,35.711039,4.63583E+18,-0.467252,-0.24457,-0.849429,0.018223,0
-1.524939,8.485202,3.108027,-4.873595,1.400424,0.786723,34.53161,-17.235448,-25.422793,4.63583E+18,0.564563,-0.421139,0.268522,0.65712,-35.645757,1.364349,-16.890367,-1.946908,-4.982028,-2.298352,21.414173,6.550993,-40.583998,4.63582E+18,0.726516,-0.333229,-0.054081,0.598505,-18.643136,-8.605241,-10.690957,-1.267143,2.062227,0.773457,29.004488,-2.744847,36.156446,4.63583E+18,-0.461413,-0.244827,-0.852674,0.010273,0
-8.479378,7.202683,1.608541,-4.71248,1.992859,-0.193073,35.080249,-16.310124,-25.429066,4.63583E+18,0.554565,-0.437657,0.260081,0.658234,-36.09785,1.260493,-14.706109,-1.714536,-5.096492,-1.933174,19.530363,7.518172,-41.274485,4.63582E+18,0.727514,-0.325176,-0.076288,0.599303,-18.480968,-4.485555,-11.046652,-1.542987,1.9778,1.037032,29.006613,-3.96125,36.490099,4.63583E+18,-0.456113,-0.245453,-0.855402,0.000921,0
-15.971739,3.302221,-1.881812,-4.44003,0.599674,-0.935965,35.561536,-15.167949,-25.478934,4.63583E+18,0.548423,-0.450343,0.247732,0.659585,-35.614365,-0.734082,-12.884168,-1.752848,-5.081661,-1.520661,17.716517,8.390186,-41.799451,4.63582E+18,0.727037,-0.317226,-0.097945,0.600992,-14.08948,2.348311,-7.240206,-1.927988,1.904214,1.139405,28.352302,-5.007343,36.891696,4.63583E+18,-0.451406,-0.245673,-0.857775,-0.009924,0
-18.980345,-2.343862,-3.870333,-4.234403,-1.477587,-1.046682,35.438137,-13.896697,-26.120954,4.63583E+18,0.54494,-0.456799,0.230922,0.664116,-31.535464,-2.236783,-11.235995,-1.782058,-4.77928,-1.024116,15.852087,9.180585,-42.331241,4.63582E+18,0.725037,-0.310165,-0.118054,0.603476,-7.238117,3.723211,-5.715666,-1.937498,1.749493,1.192133,27.771222,-5.820848,37.186282,4.63583E+18,-0.447195,-0.246034,-0.859682,-0.020742,0
-17.183037,-8.712118,-2.779879,-4.047123,-1.885773,-0.575696,35.010909,-12.802256,-27.14837,4.63583E+18,0.540609,-0.461124,0.214447,0.670164,-25.845674,-1.06683,-10.476281,-1.445243,-4.419113,-0.341577,14.146961,9.803191,-42.912,4.63583E+18,0.721629,-0.303195,-0.135295,0.60747,-4.571725,5.725625,-3.420919,-1.800876,1.542764,1.244741,27.115147,-6.571349,37.408845,4.63583E+18,-0.44352,-0.246823,-0.861052,-0.030952,0
-15.737197,-14.3805,-0.876636,-3.834567,-0.591641,-0.020112,34.783111,-11.879468,-28.004612,4.63583E+18,0.533884,-0.467928,0.202529,0.674532,-20.503612,-1.118563,-10.39241,-1.039928,-3.988276,1.010405,12.612957,10.170532,-43.316561,4.63583E+18,0.715308,-0.296753,-0.148459,0.615006,-3.497132,7.4545,-2.161162,-1.528407,1.46486,1.137038,25.971644,-6.815382,37.683571,4.63583E+18,-0.43981,-0.247712,-0.862331,-0.039901,0
-17.786726,-18.517763,-1.610637,-3.456627,0.201008,0.338143,34.841968,-10.881001,-28.303023,4.63583E+18,0.526094,-0.475711,0.194087,0.677683,-15.341462,5.499665,-9.36658,-0.423976,-3.375389,1.99168,11.289573,10.278649,-43.612388,4.63583E+18,0.707404,-0.290563,-0.15696,0.624912,-2.553083,7.19437,-1.909197,-1.067381,1.420612,1.112283,24.752299,-6.847206,38.098613,4.63583E+18,-0.435748,-0.249343,-0.863558,-0.047097,0
-19.325579,-18.268016,-3.470849,-3.022453,-0.383829,0.477258,34.847283,-10.01835,-28.344183,4.63583E+18,0.519087,-0.48071,0.185784,0.681873,-11.578893,6.178015,-9.123559,-0.062342,-2.6976,2.931596,10.53439,9.999003,-43.808306,4.63583E+18,0.697741,-0.285605,-0.161338,0.636833,-2.310919,6.835938,-4.383621,-1.033769,1.24887,1.01847,23.97483,-7.174808,38.445206,4.63583E+18,-0.432259,-0.250714,-0.864522,-0.053821,0
-16.694631,-12.315857,-3.825604,-2.799531,-1.117951,0.669666,34.501085,-9.64948,-28.840944,4.63583E+18,0.512465,-0.482915,0.176881,0.687667,-9.056695,4.252226,-8.64806,0.306769,-1.961456,3.790625,10.158879,9.498511,-43.903059,4.63583E+18,0.686524,-0.282014,-0.161524,0.650432,-4.887263,4.388526,-6.046169,-1.075005,1.226457,0.797012,23.444211,-7.679333,38.521667,4.63583E+18,-0.428917,-0.251201,-0.865619,-0.060267,0
-13.81702,-6.830901,-1.837,-2.740237,-0.802067,1.202954,34.153961,-9.495322,-29.487307,4.63583E+18,0.504118,-0.485427,0.169866,0.693809,-7.464923,3.755247,-8.231626,0.589481,-1.090515,4.714969,9.943233,8.991155,-44.086129,4.63582E+18,0.673467,-0.28049,-0.157304,0.6656,-8.494169,4.085721,-7.518025,-1.06002,1.181214,0.685458,22.971861,-8.033759,38.491178,4.63583E+18,-0.425729,-0.251311,-0.866711,-0.066408,0
-14.305999,-4.065813,-1.194097,-2.718378,-0.200019,1.854426,34.004958,-9.282906,-29.831017,4.63583E+18,0.493468,-0.489075,0.165501,0.699931,-5.415944,6.370549,-9.481323,0.719132,-0.109452,5.187426,9.929765,8.386081,-44.25764,4.63582E+18,0.65959,-0.281501,-0.149346,0.680731,-12.715192,3.216267,-8.6856,-1.217367,0.898419,0.873671,22.886027,-8.67212,38.601028,4.63583E+18,-0.423652,-0.251887,-0.867018,-0.073151,0
-15.947945,-2.717468,-3.800291,-2.618046,-0.597852,2.173483,33.766061,-9.345614,-30.015546,4.63583E+18,0.482313,-0.491033,0.161255,0.707289,-2.756026,6.08485,-11.218287,0.372726,0.905259,5.771254,10.41331,7.498984,-44.291992,4.63582E+18,0.643924,-0.286549,-0.138814,0.695689,-14.974936,2.257196,-7.261002,-1.282921,0.860279,1.03868,23.26002,-9.932468,38.710905,4.63583E+18,-0.421707,-0.252936,-0.867021,-0.08038,0
-16.400139,-3.235164,-4.981005,-2.357742,-1.428824,2.139972,33.283023,-9.490026,-30.370575,4.63583E+18,0.472159,-0.489961,0.155942,0.716021,0.167631,4.504949,-12.724952,-0.073654,1.996181,6.487269,11.347833,6.790959,-44.064174,4.63582E+18,0.625825,-0.296164,-0.125694,0.710515,-16.313991,3.158906,-7.466032,-1.351458,0.749373,1.231972,23.562727,-11.286165,38.797976,4.63583E+18,-0.420144,-0.254578,-0.866552,-0.088077,0
-15.862382,-4.392115,-3.308817,-1.962814,-1.570019,1.944695,32.709276,-9.322304,-30.911175,4.63583E+18,0.463396,-0.487723,0.1511,0.724265,1.070688,3.201305,-13.933368,-0.37627,3.032929,6.967115,12.633903,6.29987,-43.747445,4.63582E+18,0.605904,-0.309612,-0.110058,0.724505,-16.812106,4.285768,-6.612074,-1.451634,0.602512,1.479722,23.399181,-11.994084,38.767481,4.63583E+18,-0.419096,-0.256975,-0.865464,-0.096406,0
-14.99372,-5.325341,-2.039827,-1.453251,-1.056023,1.691465,32.342707,-9.212052,-31.420342,4.63583E+18,0.456045,-0.486144,0.148253,0.730553,-0.396874,1.849649,-15.17446,-0.636388,3.980014,7.559415,14.437836,5.640692,-43.312032,4.63582E+18,0.583597,-0.326487,-0.091926,0.737815,-16.367696,3.417257,-5.857922,-1.541479,0.560958,1.633794,23.145252,-12.796158,38.622193,4.63583E+18,-0.418196,-0.259764,-0.864032,-0.105276,0
-14.90963,-6.349906,-2.06118,-0.927512,-0.314458,1.473164,32.198277,-9.423653,-31.707795,4.63583E+18,0.449987,-0.485908,0.147998,0.734508,-4.617101,2.135216,-16.612373,-0.543876,4.772375,7.89307,16.359867,4.727659,-42.770445,4.63582E+18,0.55988,-0.345241,-0.071001,0.749868,-15.965728,3.614156,-6.117886,-1.552519,0.489505,1.834317,22.628122,-13.744692,38.606716,4.63583E+18,-0.417436,-0.263258,-0.862174,-0.11445,0
-16.636269,-7.974749,-2.787916,-0.485079,0.27408,1.351473,32.120487,-9.799297,-31.699172,4.63583E+18,0.444846,-0.486691,0.149967,0.736719,-10.416886,2.906587,-16.960078,-0.349444,5.489674,7.86803,18.578665,3.580275,-41.934034,4.63582E+18,0.535861,-0.365233,-0.047721,0.759724,-15.092901,4.474184,-6.555496,-1.519625,0.368072,2.024607,21.669083,-14.119856,38.695443,4.63583E+18,-0.41694,-0.267521,-0.859822,-0.123692,0
-19.246083,-9.757738,-4.479472,0.198114,0.591686,1.155541,32.093262,-10.102425,-31.584771,4.63583E+18,0.441465,-0.48729,0.154212,0.73748,-15.889146,0.401459,-17.124036,-0.223319,6.178181,7.962419,20.862695,2.208954,-40.920831,4.63582E+18,0.510961,-0.386518,-0.022281,0.76748,-15.005534,5.738162,-5.686462,-1.460963,0.231308,2.220498,21.075671,-14.637218,38.588873,4.63583E+18,-0.41672,-0.272628,-0.856946,-0.132897,0
-19.687706,-10.610901,-6.914764,1.198908,0.458324,0.855484,32.146945,-10.453928,-31.474909,4.63583E+18,0.44109,-0.485816,0.16066,0.7373,-20.243806,0.814064,-17.205504,-0.201459,6.824534,7.862514,22.955574,0.908175,-39.853402,4.63582E+18,0.485535,-0.4091,0.004484,0.772576,-16.429248,6.37335,-4.339734,-1.316031,0.14425,2.413326,20.986286,-15.905211,38.309781,4.63583E+18,-0.416487,-0.278684,-0.853677,-0.141808,0
-17.604741,-10.359065,-6.367521,2.115017,0.323347,0.574905,32.240067,-11.068373,-31.173318,4.63583E+18,0.443489,-0.482399,0.169095,0.736217,-23.461777,0.413389,-17.05135,-0.518701,7.39294,7.607528,25.320992,-0.476392,-38.275686,4.63582E+18,0.459436,-0.433362,0.030934,0.774699,-19.13888,6.875027,-2.902145,-1.074866,0.104502,2.599367,20.30054,-16.475964,38.046803,4.63583E+18,-0.415949,-0.285805,-0.850156,-0.150121,0
-14.978155,-9.373005,-4.472067,2.866089,0.722621,0.346749,32.330052,-11.800762,-30.811973,4.63583E+18,0.447745,-0.478924,0.180081,0.733299,-24.888944,0.27268,-16.105107,-1.009778,7.876628,7.193743,27.541559,-2.010535,-36.767908,4.63582E+18,0.432806,-0.459314,0.055916,0.773681,-22.867321,7.03153,-1.590567,-0.882933,0.11235,2.860246,19.069419,-16.513151,38.106172,4.63583E+18,-0.414942,-0.294182,-0.846322,-0.158172,0
-13.394441,-8.087851,-4.265331,3.556495,1.154555,0.120505,32.576517,-12.64052,-30.367375,4.63583E+18,0.453632,-0.475558,0.19348,0.728442,-25.11891,0.157224,-15.020242,-1.596157,8.31409,6.800576,29.757785,-3.374815,-35.021134,4.63582E+18,0.405336,-0.486888,0.078929,0.769684,-26.991913,5.537987,-0.674123,-0.684535,0.261691,3.152232,18.563429,-17.182821,38.192104,4.63583E+18,-0.412904,-0.303784,-0.842382,-0.166188,0
-11.924433,-6.481346,-4.729989,4.173549,1.157602,-0.037995,32.818633,-13.536132,-29.732037,4.63583E+18,0.46107,-0.47103,0.208377,0.722582,-24.010027,-0.235231,-14.335791,-2.128647,8.712842,6.456716,32.017483,-4.572467,-32.687701,4.63582E+18,0.376904,-0.515729,0.100043,0.762862,-30.928154,3.068576,0.056869,-0.528296,0.671817,3.459138,18.28782,-18.120001,38.098963,4.63583E+18,-0.408909,-0.314247,-0.838754,-0.17474,0
-9.777272,-3.868319,-4.571813,4.598005,1.009151,-0.159924,33.001722,-14.473157,-28.893785,4.63583E+18,0.469659,-0.465179,0.223948,0.716154,-22.642287,-0.598614,-14.030923,-2.511353,9.062762,6.215905,34.041091,-5.549049,-30.435303,4.63582E+18,0.347444,-0.54526,0.119752,0.753415,-35.394701,0.304601,-0.094224,-0.53328,1.08796,3.768541,17.36153,-18.749932,38.034099,4.63583E+18,-0.40316,-0.3255,-0.835193,-0.184295,0
-7.729496,-0.034776,-3.796754,4.68164,1.015936,-0.393014,33.238496,-15.498896,-27.924543,4.63583E+18,0.478918,-0.459215,0.239245,0.708887,-22.015916,-1.781397,-14.061301,-2.651368,9.301532,6.086407,35.919674,-6.548593,-27.997071,4.63582E+18,0.317169,-0.574579,0.138801,0.741618,-37.693604,-0.812379,-2.121065,-0.576477,1.834889,3.58418,16.034511,-19.343549,38.298134,4.63583E+18,-0.394903,-0.335373,-0.832878,-0.194654,0
-5.794103,4.110807,-3.24317,4.580382,1.088497,-0.701649,33.560733,-16.453662,-26.98482,4.63583E+18,0.488628,-0.453791,0.253703,0.700679,-21.829821,-4.560072,-13.96554,-2.44397,9.492748,6.108055,37.766651,-7.793544,-25.451692,4.63582E+18,0.286477,-0.602879,0.158472,0.727568,-42.909121,0.342392,-5.899827,-1.048044,1.268779,2.857548,15.048495,-20.033894,38.516889,4.63583E+18,-0.389777,-0.342374,-0.830056,-0.204598,0
-3.842917,7.88856,-2.695898,4.282805,1.070363,-1.091541,33.907031,-17.183719,-25.97431,4.63583E+18,0.498745,-0.449159,0.266422,0.691758,-21.899315,-9.378811,-14.307757,-1.677104,9.660221,6.337815,39.369677,-9.342096,-22.647624,4.63582E+18,0.256226,-0.629199,0.180867,0.711157,-47.664069,2.317644,-8.345211,-1.856559,0.501639,2.187519,14.389555,-20.881447,38.279444,4.63583E+18,-0.388965,-0.346341,-0.826121,-0.215124,0
-2.328033,10.554679,-0.824365,3.805136,1.016881,-1.687489,34.348467,-17.511933,-24.915401,4.63583E+18,0.509572,-0.445874,0.276447,0.68199,-23.778808,-14.802933,-13.917408,-0.254487,9.793987,6.663888,40.502309,-11.567747,-19.095884,4.63582E+18,0.228012,-0.652633,0.208032,0.691957,-43.466674,-3.134718,-7.405698,-2.798379,0.481117,1.909341,13.852459,-21.9267,37.742348,4.63583E+18,-0.389765,-0.347781,-0.82157,-0.228375,0
-1.587264,12.360069,1.981451,3.250199,0.836147,-2.421261,34.79534,-17.566454,-24.164437,4.63583E+18,0.521501,-0.44396,0.283063,0.671425,-27.73952,-17.071482,-10.812835,1.340324,9.916502,6.898542,41.230382,-13.732371,-15.880273,4.63582E+18,0.202774,-0.67306,0.240019,0.669525,-43.021499,-14.403447,-7.475818,-2.900466,0.448648,2.08579,13.278505,-23.000488,37.253575,4.63583E+18,-0.390574,-0.349613,-0.816442,-0.242168,0
-0.968445,13.263146,5.743227,2.530462,0.578221,-3.050839,35.35597,-17.359534,-23.904944,4.63583E+18,0.534011,-0.443503,0.285859,0.660622,-32.598927,-16.741887,-6.158244,2.611468,9.995889,6.899151,41.644059,-16.098955,-12.407907,4.63582E+18,0.180479,-0.690862,0.274981,0.643835,-42.336113,-20.688077,-10.40272,-1.925932,-0.15178,2.884427,12.636563,-23.952806,36.918246,4.63583E+18,-0.391116,-0.356276,-0.809985,-0.253021,0
0.13926,13.25648,9.20146,1.82003,0.724134,-3.429737,35.956869,-16.869111,-23.486955,4.63583E+18,0.545852,-0.445392,0.286193,0.649434,-37.564217,-16.567571,0.923437,3.819535,9.975912,6.757699,41.645732,-18.904759,-8.082094,4.63582E+18,0.161563,-0.705972,0.312,0.614945,-34.021272,-7.822054,0.811718,-2.174818,0.16668,4.595386,11.953689,-24.981897,36.530058,4.63583E+18,-0.389023,-0.367854,-0.800985,-0.267895,0
1.132698,11.960041,11.134898,1.404327,1.074449,-3.493489,36.522904,-16.183625,-22.803151,4.63583E+18,0.556607,-0.449097,0.286058,0.637708,-41.141752,-18.117074,10.65458,4.997102,9.832336,6.661947,41.117023,-21.555153,-3.909335,4.63582E+18,0.146078,-0.718041,0.350764,0.583131,-30.490987,19.391217,-11.299326,-2.494447,2.823547,5.961159,10.274221,-26.252223,36.060852,4.63583E+18,-0.376778,-0.380264,-0.793327,-0.289949,0
0.555002,9.332514,13.452238,0.989727,1.317372,-3.308207,37.084446,-15.331731,-22.328041,4.63583E+18,0.565664,-0.454076,0.285659,0.626289,-43.943115,-21.872632,19.567117,6.0475,9.440442,6.466936,39.831528,-23.930161,0.55676,4.63582E+18,0.134351,-0.726719,0.39023,0.549135,-48.649751,32.851867,-37.024346,-2.379032,3.074816,6.278931,7.759943,-27.391451,35.73156,4.63583E+18,-0.362799,-0.393259,-0.784995,-0.312262,0
-0.828877,4.277271,15.465791,0.447775,1.798747,-2.916368,37.806788,-14.523474,-21.937192,4.63583E+18,0.571973,-0.461022,0.285659,0.615389,-45.882871,-25.271527,26.851343,6.865951,8.869274,6.311676,38.382054,-25.730411,4.657955,4.63582E+18,0.125992,-0.731777,0.429638,0.513848,-60.611717,18.968086,-40.534591,-2.133675,1.017506,5.539079,5.74531,-28.252805,35.452961,4.63583E+18,-0.355827,-0.406574,-0.774477,-0.329046,0
-1.442378,-0.689082,14.706468,0.061824,2.558977,-2.363579,38.724211,-13.778856,-21.264872,4.63583E+18,0.575039,-0.470113,0.287436,0.604735,-47.342468,-26.375765,30.714633,7.127521,8.223878,5.545514,36.820012,-26.939135,8.739766,4.63582E+18,0.120875,-0.734681,0.465748,0.478239,-64.01639,-4.123006,-20.710919,-2.74719,-0.228046,5.890141,4.459828,-29.239836,34.855038,4.63583E+18,-0.353192,-0.421542,-0.760158,-0.346002,0
-1.463221,-2.656577,11.447512,-0.031607,2.883262,-1.80447,39.501628,-13.179759,-20.324512,4.63583E+18,0.576051,-0.479459,0.290825,0.594732,-53.124259,-23.908488,35.354251,6.779668,7.322553,4.245679,35.054036,-27.537682,12.589538,4.63582E+18,0.118748,-0.73678,0.495645,0.444286,-61.985943,-23.933094,7.884593,-3.259792,1.703488,7.02829,2.597839,-30.321774,33.981789,4.63583E+18,-0.343381,-0.436191,-0.745262,-0.369339,0
-0.598072,-1.560628,9.360793,-0.037027,2.540474,-1.310586,40.007685,-12.674691,-19.364874,4.63583E+18,0.57615,-0.487286,0.294317,0.586499,-55.845526,-19.092881,45.664323,5.646226,6.254257,3.493624,33.574194,-27.887809,15.943972,4.63582E+18,0.116529,-0.737728,0.519736,0.414792,-59.049529,-24.694141,3.291104,-2.644819,1.840284,7.290038,0.019827,-31.364098,33.195494,4.63583E+18,-0.331252,-0.451845,-0.730228,-0.390994,0
0.499723,0.762682,9.234278,-0.065239,2.2925,-0.845941,40.415095,-12.174165,-18.49834,4.63583E+18,0.5753,-0.493942,0.298062,0.579837,-49.896009,-11.757232,54.252494,3.605968,4.986082,2.610849,32.212184,-28.067111,18.583252,4.63582E+18,0.11218,-0.738564,0.536389,0.392715,-57.576286,-28.821571,5.425434,-1.909826,1.644557,7.395835,-2.678297,-31.946234,32.673774,4.63583E+18,-0.317808,-0.468667,-0.715145,-0.409777,0
0.823891,1.350824,8.402859,0.011132,2.431949,-0.450898,40.779595,-11.872816,-17.775558,4.63583E+18,0.573418,-0.500209,0.303107,0.57368,-43.525422,-12.400812,55.130634,1.170126,3.250387,1.507315,31.178036,-28.11329,20.094203,4.63582E+18,0.105961,-0.739785,0.544571,0.3807,-50.707883,-24.004295,5.135817,-1.40629,1.664411,7.354558,-5.18051,-32.119672,32.280297,4.63583E+18,-0.303065,-0.485516,-0.700296,-0.426628,0
0.262061,1.274554,5.933733,0.286517,2.437191,-0.156847,41.167337,-11.904096,-17.169965,4.63583E+18,0.571276,-0.505442,0.309347,0.56787,-38.060196,-20.806354,51.483009,-0.770245,1.83555,0.594126,30.586033,-28.384486,20.683541,4.63582E+18,0.098402,-0.74157,0.546146,0.376983,-44.645319,-15.584266,-1.489791,-1.748567,1.521432,6.997697,-7.489882,-32.19491,31.786577,4.63583E+18,-0.289771,-0.500672,-0.684705,-0.443328,0
-1.31668,1.672038,3.829703,0.55136,2.224264,0.061713,41.528782,-12.062788,-16.351231,4.63583E+18,0.569425,-0.509194,0.316164,0.562599,-33.367463,-20.933212,46.407777,-2.24314,0.810349,-0.337706,30.538715,-28.791498,20.56267,4.63582E+18,0.09008,-0.744402,0.54206,0.379371,-38.977209,-16.970154,-4.220703,-2.215982,1.267718,6.370644,-9.510956,-32.316969,30.99319,4.63583E+18,-0.279081,-0.513507,-0.66866,-0.459694,0
-2.560679,2.69456,3.162955,0.635566,1.82241,0.128558,41.766497,-12.16023,-15.333298,4.63583E+18,0.56811,-0.511659,0.322369,0.558152,-30.12118,-17.68061,42.441016,-3.444015,-0.335759,-1.036808,30.648195,-29.105112,20.054139,4.63582E+18,0.081712,-0.747331,0.533391,0.387704,-32.497786,-23.877256,-0.077634,-2.242565,1.247242,5.64634,-11.425104,-32.402142,30.222463,4.63583E+18,-0.269687,-0.523954,-0.653602,-0.474916,0
-3.070895,3.331593,3.641139,0.254239,1.482184,0.210718,41.788837,-12.228923,-14.520792,4.63583E+18,0.566218,-0.514099,0.327041,0.555107,-26.703001,-24.172135,40.381005,-3.922257,-1.206936,-1.745738,31.057271,-29.230676,19.042459,4.63582E+18,0.074912,-0.750378,0.521297,0.399463,-25.8798,-27.681864,4.694964,-1.88591,1.318491,4.892751,-13.463035,-32.382551,29.591888,4.63583E+18,-0.260654,-0.532303,-0.6406,-0.488205,0
-4.193595,3.050594,2.477627,-0.119729,1.529268,0.374907,41.968233,-12.302168,-14.086715,4.63583E+18,0.563057,-0.517285,0.331296,0.552835,-25.602334,-35.273929,32.859341,-3.610791,-2.341017,-3.344171,32.127429,-29.036479,17.378944,4.63582E+18,0.074178,-0.754591,0.504152,0.413427,-19.717565,-25.616578,8.179474,-1.438385,1.341299,4.11579,-15.01044,-32.362416,29.148499,4.63583E+18,-0.252035,-0.538789,-0.629986,-0.499301,0
-5.956501,2.020699,1.844126,0.353133,2.194292,0.651862,42.305463,-12.482575,-13.678936,4.63583E+18,0.559241,-0.520523,0.338701,0.549169,-31.10456,-30.631767,20.383876,-3.488292,-1.743305,-3.689733,33.294335,-28.791674,16.165072,4.63582E+18,0.073132,-0.760141,0.486066,0.424944,-13.831587,-19.887507,11.007691,-1.151949,1.280434,3.227411,-16.091789,-32.118011,28.540456,4.63583E+18,-0.244707,-0.543214,-0.621718,-0.508433,0
-11.544163,0.45887,3.252774,1.036033,1.674731,1.061859,42.440588,-12.925726,-12.94262,4.63583E+18,0.556703,-0.520326,0.347365,0.546517,-36.556406,30.345967,-54.725583,-2.93134,-2.379133,-6.650555,34.634361,-27.917516,15.03597,4.63582E+18,0.080322,-0.769821,0.459036,0.43613,-6.994423,-14.813853,12.91643,-1.005168,1.090491,2.159928,-16.972364,-31.802874,27.766291,4.63583E+18,-0.239758,-0.545331,-0.615878,-0.515581,0
-20.538772,-2.058426,7.471448,1.513634,-1.457396,1.2155,42.246129,-13.395414,-12.709754,4.63583E+18,0.559354,-0.511601,0.350175,0.55024,-28.477114,109.529886,-89.130513,1.156649,-4.074683,-2.76767,35.792943,-26.781395,14.119228,4.63582E+18,0.096754,-0.767072,0.450988,0.445925,1.016837,-13.288572,14.75124,-0.61991,0.796156,0.945476,-17.72133,-31.730124,27.327567,4.63583E+18,-0.237279,-0.545309,-0.613288,-0.519822,0
-20.546466,-6.104837,13.811735,2.183349,-3.328353,1.262185,41.913479,-13.863971,-13.411755,4.63583E+18,0.565945,-0.49685,0.350192,0.556966,-9.72449,63.089629,-54.457957,0.190906,-3.669821,-3.438828,36.653671,-26.032486,13.473677,4.63582E+18,0.110544,-0.76639,0.438969,0.455776,8.509401,-15.771508,16.645795,0.219061,0.349353,-0.210875,-18.092857,-31.878337,27.359249,4.63583E+18,-0.236536,-0.544119,-0.614691,-0.51975,0
-13.009312,-13.795226,22.893016,2.349384,-1.242052,1.706116,41.686462,-14.624646,-14.06985,4.63583E+18,0.568658,-0.485789,0.356339,0.560053,-62.046532,-52.793456,50.72795,-1.988013,-4.811389,-7.209327,38.275662,-24.304169,11.922293,4.63582E+18,0.126522,-0.770752,0.409861,0.471112,14.947965,-19.334866,18.827824,1.608086,-0.413321,-1.412049,-17.708987,-31.875046,27.819829,4.63583E+18,-0.236407,-0.541903,-0.621872,-0.513545,0
-7.124357,-18.72717,23.324355,2.500011,0.275126,2.09506,41.382382,-15.68556,-13.950709,4.63583E+18,0.568392,-0.477257,0.367139,0.560683,-74.002126,43.049356,10.751215,-8.590696,-9.456733,-16.872734,40.947943,-20.318678,8.256624,4.63582E+18,0.147598,-0.782452,0.332539,0.505372,19.987583,-20.488655,20.499063,3.213624,-1.65965,-2.809362,-16.696501,-31.581871,28.696737,4.63583E+18,-0.239556,-0.541059,-0.633504,-0.498538,0
-3.556125,-18.967171,19.130807,3.489156,-0.028198,2.023175,40.95354,-16.718162,-13.208371,4.63583E+18,0.570601,-0.465663,0.379312,0.560085,-35.31757,-56.341416,1.879914,-8.789999,-6.217911,-7.689931,43.45527,-16.021955,3.881606,4.63582E+18,0.143436,-0.784166,0.284867,0.532316,22.107333,-17.053883,20.01804,4.176246,-3.440939,-4.327858,-14.874791,-31.14127,30.071725,4.63583E+18,-0.248249,-0.540537,-0.648394,-0.47516,0
-2.502843,-14.951962,17.017936,3.490566,0.391624,1.408304,40.639586,-17.590704,-12.598855,4.63583E+18,0.573442,-0.455883,0.391203,0.557041,-27.207957,-36.944292,35.971742,-3.452904,-5.267423,-5.123051,44.394377,-13.98448,1.188848,4.63582E+18,0.14959,-0.78012,0.25738,0.550265,19.950097,-9.749292,17.019237,3.819777,-5.772127,-5.818309,-12.490759,-30.650387,31.486613,4.63583E+18,-0.266712,-0.539611,-0.662786,-0.445421,0
-6.110041,-13.709888,10.251305,3.389631,0.859659,0.47688,40.560643,-18.247951,-12.064496,4.63583E+18,0.577354,-0.448841,0.402117,0.550914,-28.552756,-6.456317,35.024328,-2.97475,-1.260107,-3.161401,44.628929,-13.12045,0.374388,4.63582E+18,0.148395,-0.782279,0.239671,0.555497,13.317126,-5.594892,10.727692,2.377419,-8.182452,-7.028768,-9.191114,-30.317331,32.737715,4.63583E+18,-0.296845,-0.53724,-0.67336,-0.41212,0
-15.405676,-10.813091,8.239786,2.426623,1.422752,-1.629994,40.771726,-18.296964,-11.366941,4.63583E+18,0.583239,-0.448848,0.408153,0.540166,-3.939863,-14.091189,7.648615,-3.358947,0.961855,-2.619054,45.015322,-12.02231,0.007747,4.63582E+18,0.142423,-0.789011,0.224134,0.554023,6.113698,-9.174736,3.363247,1.038443,-9.698796,-8.238936,-4.415492,-30.168203,33.616082,4.63583E+18,-0.335573,-0.531084,-0.680778,-0.376672,0
-24.547331,-0.232292,10.703335,1.206791,3.387174,-4.150748,41.40725,-17.421093,-10.411255,4.63583E+18,0.588966,-0.460368,0.411358,0.521502,-16.288255,-30.097926,-2.999573,1.651488,-4.294061,-3.821645,45.44846,-10.707764,-0.966764,4.63582E+18,0.160538,-0.78139,0.212987,0.564175,-2.80955,-17.623656,-2.872853,0.287815,-10.55721,-9.326681,0.771349,-30.089134,33.992845,4.63583E+18,-0.379049,-0.520463,-0.686062,-0.338761,0
-23.151955,2.582658,1.672102,1.310463,3.442591,-3.906102,42.378036,-15.969547,-9.115305,4.63583E+18,0.593816,-0.471223,0.415044,0.503061,-5.427234,-20.083785,1.679673,6.054066,-1.102963,-1.778924,45.560007,-9.571953,-1.960298,4.63582E+18,0.185248,-0.775997,0.220832,0.561022,-15.666977,-19.119084,-5.849462,-0.346357,-11.232632,-10.197188,6.461399,-29.705244,33.62525,4.63583E+18,-0.425691,-0.505462,-0.688613,-0.298508,0
-28.064135,3.870854,-5.324801,1.136362,3.322076,-2.433388,43.187631,-14.853747,-7.534288,4.63583E+18,0.595299,-0.479443,0.42087,0.488489,-8.025305,16.248162,-6.573755,4.437476,-2.084569,-2.614392,45.467172,-8.70622,-2.166645,4.63582E+18,0.207472,-0.769846,0.221302,0.561532,-26.624656,-14.324577,-6.052213,-1.393141,-11.91395,-11.078708,12.38342,-28.797293,32.109788,4.63583E+18,-0.475734,-0.484737,-0.687512,-0.25697,0
-38.629324,8.579181,-4.314896,0.614847,1.058083,-1.175471,43.487461,-14.43198,-6.672378,4.63583E+18,0.597064,-0.482038,0.422475,0.482356,4.702017,21.723602,-7.976227,2.153884,-1.746181,-1.225315,45.540418,-8.213653,-2.406184,4.63582E+18,0.21874,-0.764915,0.221102,0.564068,-31.675162,-10.258595,-6.280766,-2.848926,-12.190867,-11.888959,18.031741,-27.932367,29.798816,4.63583E+18,-0.528026,-0.456721,-0.682543,-0.216171,0
-30.974102,9.837893,-7.494888,0.946725,-6.709935,-0.63031,43.144761,-14.230493,-7.907161,4.63583E+18,0.61185,-0.467004,0.406371,0.492351,5.392183,7.552373,1.288214,-0.124686,-2.664206,-2.71438,45.60459,-7.737372,-3.12408,4.63582E+18,0.227048,-0.76112,0.209922,0.570156,-31.729826,-9.022795,-6.571891,-4.032979,-11.689094,-12.687188,23.713741,-26.780323,26.662383,4.63583E+18,-0.579039,-0.420947,-0.675474,-0.176782,0
-13.05523,7.546496,11.442273,1.268354,-9.445133,-0.735719,42.485485,-14.071934,-10.708255,4.63583E+18,0.631376,-0.445163,0.383268,0.506261,-12.494188,-15.43265,3.190205,-0.161013,-2.653438,-3.044807,45.586978,-6.639339,-4.277827,4.63582E+18,0.235957,-0.757475,0.197563,0.575781,-30.738591,-11.028421,-5.784328,-3.250417,-10.537476,-13.146655,28.839197,-24.692834,23.286741,4.63583E+18,-0.622612,-0.382208,-0.669241,-0.135604,0
2.184557,1.489171,31.982805,0.778117,-2.631769,-0.8127,42.110746,-13.934577,-12.669708,4.63583E+18,0.638734,-0.438715,0.376577,0.507679,-12.418018,-7.004916,-2.790057,0.411955,-2.319106,-2.694429,45.629013,-5.310138,-5.2463,4.63582E+18,0.245501,-0.753593,0.187966,0.580083,-33.535945,-13.084117,-3.404546,-0.894174,-9.543892,-12.80939,33.242522,-21.567676,20.074497,4.63583E+18,-0.656595,-0.348466,-0.662922,-0.089376,0
4.87685,-5.316029,21.57407,0.787952,4.166948,-0.61971,42.409215,-13.765156,-12.126146,4.63583E+18,0.634751,-0.446324,0.388143,0.497223,-14.280717,0.25652,-9.040433,0.800447,-2.27396,-2.763182,45.61252,-4.036891,-6.117154,4.63582E+18,0.256342,-0.749308,0.179098,0.583738,-37.474105,-9.621019,-0.800167,2.152545,-8.873156,-11.900803,36.896899,-17.537674,17.163672,4.63583E+18,-0.681233,-0.323863,-0.655442,-0.037817,0
-0.911565,-10.587891,10.083133,1.142434,4.517576,-0.166382,43.002813,-13.62791,-10.338954,4.63583E+18,0.629771,-0.452786,0.402136,0.486478,-10.848495,-6.866026,-7.137494,0.981361,-1.997536,-2.560088,45.673557,-3.214731,-6.780622,4.63582E+18,0.266993,-0.745193,0.171561,0.586489,-39.465007,-2.655615,-2.656303,5.494322,-8.397105,-10.656044,39.535857,-13.468884,15.096264,4.63583E+18,-0.697278,-0.31083,-0.645627,0.01883,0
-5.934055,-12.888914,6.128345,1.142608,2.063428,-0.101321,43.33342,-13.632699,-9.150121,4.63583E+18,0.628638,-0.454044,0.409732,0.480392,-7.869,-2.654408,-3.031736,1.28751,-1.744729,-2.520536,45.73458,-2.454419,-7.376622,4.63583E+18,0.278267,-0.741184,0.165145,0.588168,-38.670086,3.591045,-11.960466,8.374745,-8.132461,-9.526054,41.461356,-9.374632,13.165999,4.63582E+18,-0.706309,-0.308035,-0.632391,0.079515,0
-7.469548,-15.676979,3.356339,1.280377,1.295277,-0.402127,43.305609,-13.70594,-8.495728,4.63583E+18,0.629629,-0.453885,0.414989,0.474699,-8.227523,0.098554,-2.899907,1.356396,-1.599643,-2.455488,45.773006,-1.554597,-8.062342,4.63583E+18,0.289444,-0.737272,0.159237,0.589318,-34.906388,8.954976,-28.30879,9.963458,-8.104702,-8.358237,42.864609,-5.232426,10.626976,4.63582E+18,-0.710795,-0.311779,-0.614653,0.140591,0
-5.494707,-18.366434,0.909869,1.665665,1.41533,-0.709798,43.357815,-13.672195,-7.802833,4.63583E+18,0.631749,-0.453408,0.420754,0.467205,-7.500768,-4.278556,-2.249502,1.527353,-1.448993,-2.351425,45.575195,-0.819,-8.639244,4.63583E+18,0.300741,-0.733328,0.154223,0.589916,-35.401833,16.498829,-48.169757,10.243135,-8.319161,-7.131273,43.669954,-1.637236,7.838597,4.63582E+18,-0.713359,-0.318137,-0.592047,0.198465,0
-3.948587,-18.473444,-1.201062,2.153748,1.603287,-0.980541,43.628046,-13.475205,-6.99252,4.63583E+18,0.63484,-0.452501,0.427332,0.45783,-7.639873,-6.005094,-1.133897,2.024705,-1.226881,-2.264341,45.257146,-0.178855,-9.127487,4.63583E+18,0.313148,-0.729122,0.150949,0.58952,-37.822376,23.114758,-65.304078,10.494079,-8.603895,-6.075024,44.021818,1.361306,4.503815,4.63582E+18,-0.714411,-0.326397,-0.564676,0.253422,0
-3.587189,-16.605731,-3.69419,2.733749,1.770824,-1.149041,43.81247,-13.21883,-6.150146,4.63583E+18,0.638953,-0.450587,0.435082,0.446558,-9.631208,-3.60909,-1.64209,2.408289,-1.041091,-2.176658,45.169434,0.410705,-9.607877,4.63582E+18,0.326328,-0.72468,0.149097,0.588319,-35.430707,20.374748,-78.674882,10.470348,-9.129267,-4.813897,44.051779,3.469674,0.762137,4.63582E+18,-0.715357,-0.335778,-0.531892,0.304316,0
-3.712927,-13.869276,-6.802714,3.348184,1.887944,-1.259187,43.902484,-12.962482,-5.185593,4.63583E+18,0.644108,-0.447292,0.444026,0.43347,-8.985449,-3.947513,-2.026912,2.536263,-0.995819,-2.033984,45.060698,1.147443,-10.001682,4.63582E+18,0.339453,-0.719944,0.148022,0.586977,-24.824046,17.620375,-81.57187,10.265749,-8.540801,-3.058708,43.927702,4.761251,-2.890415,4.63582E+18,-0.715006,-0.348027,-0.496784,0.347634,0
-4.792836,-12.356321,-9.513366,3.885852,2.285831,-1.406912,44.194243,-12.492186,-4.033393,4.63583E+18,0.649574,-0.443396,0.454583,0.4181,-4.614142,-6.462554,-1.772807,2.736635,-0.883676,-1.894192,44.949512,1.782883,-10.314729,4.63582E+18,0.352699,-0.71497,0.147985,0.585254,-17.073579,23.311483,-81.629006,9.336212,-6.940772,-1.32819,43.606523,5.305642,-6.240422,4.63582E+18,-0.713181,-0.362447,-0.463861,0.380576,0
-7.024624,-13.767678,-11.620074,4.439336,2.949119,-1.516968,44.4641,-11.95519,-2.820385,4.63583E+18,0.654695,-0.439161,0.467483,0.399964,-0.099209,-6.000001,-2.362942,3.114522,-0.770632,-1.940052,44.720029,2.172191,-10.696343,4.63582E+18,0.367035,-0.709587,0.148866,0.582761,-21.123068,36.21789,-80.998627,10.062066,-5.040644,0.91974,43.245108,5.148931,-9.074753,4.63582E+18,-0.708454,-0.38563,-0.430907,0.404601,0
-9.891541,-16.240497,-12.547907,5.099411,3.287297,-1.654145,44.494417,-11.492974,-1.298935,4.63583E+18,0.660189,-0.433688,0.481866,0.379303,2.860909,-5.320764,1.44923,3.09393,-0.638601,-1.954705,44.65601,2.457868,-10.962248,4.63582E+18,0.381177,-0.704397,0.149819,0.579727,-32.004688,80.718273,-101.937897,9.836079,-2.708586,4.424579,43.10434,3.191018,-10.648899,4.63582E+18,-0.704265,-0.417529,-0.398643,0.413237,0
-12.515702,-17.287379,-11.617284,5.752388,2.42842,-1.932905,44.685425,-10.748006,0.379525,4.63583E+18,0.66855,-0.425311,0.494067,0.35784,0.485922,-1.438259,1.100251,2.891185,-0.422528,-2.059523,44.78671,3.024795,-10.972387,4.63582E+18,0.394754,-0.699958,0.150284,0.575884,-25.995222,140.298614,-134.062814,12.299253,-0.061486,6.780414,42.98579,-0.09034,-11.334546,4.63583E+18,-0.693497,-0.463952,-0.364704,0.413282,0
-15.676853,-15.954993,-8.313281,6.314058,0.690273,-2.32178,45.019611,-9.82784,1.444025,4.63583E+18,0.681544,-0.413251,0.501191,0.336939,-9.877852,-0.553502,5.29345,2.634546,-0.365046,-1.932023,44.756663,3.524172,-11.099152,4.63582E+18,0.407161,-0.69586,0.150569,0.572126,-38.816297,122.308187,-103.344867,14.186092,-3.783557,3.255933,42.427983,-2.287906,-12.316691,4.63583E+18,-0.676127,-0.502362,-0.322242,0.432024,0
-17.930423,-10.503445,-0.612587,6.36336,0.133929,-2.882355,45.188796,-8.76733,1.739582,4.63583E+18,0.696007,-0.401101,0.505425,0.315021,-16.91784,-5.510323,6.459205,1.989831,-0.240077,-1.715603,44.670085,4.020347,-11.384241,4.63582E+18,0.417043,-0.692913,0.150132,0.568688,-49.345878,-12.075425,45.128405,-3.709108,-2.690565,0.235598,41.911817,-3.395844,-12.928333,4.63583E+18,-0.688129,-0.487009,-0.320994,0.431583,0
-20.225921,-0.353092,8.23165,5.748914,3.084129,-4.22668,45.269669,-7.352702,2.666467,4.63583E+18,0.704328,-0.397055,0.514677,0.285267,-14.895794,0.995453,-3.067542,1.913368,-0.054564,-1.860374,44.572435,4.579407,-11.582744,4.63582E+18,0.426881,-0.690548,0.1494,0.564442,28.171786,-101.191144,-3.813614,-5.546255,3.744109,3.013275,42.1157,-3.95976,-12.256022,4.63583E+18,-0.699566,-0.481525,-0.335382,0.407751,0
-32.394506,10.216057,9.164616,4.89452,6.4463,-5.278277,45.316944,-5.449629,4.882679,4.63583E+18,0.70433,-0.401236,0.530345,0.248318,-13.199458,-6.390862,-4.974315,2.055967,0.104658,-1.583537,44.461274,4.970832,-11.682485,4.63582E+18,0.436328,-0.688052,0.150065,0.560074,-41.85862,-23.345082,30.736442,2.227493,1.225796,-4.10717,42.529703,-3.342631,-11.751017,4.63583E+18,-0.686365,-0.484142,-0.343289,0.420312,0
-50.519708,16.358228,1.081418,4.472795,5.363365,-4.318836,45.234465,-3.418674,7.258323,4.63583E+18,0.704039,-0.402856,0.54326,0.216574,-16.221818,-15.685652,-7.026239,2.6408,0.240956,-1.23849,44.239628,5.122776,-11.691483,4.63582E+18,0.446504,-0.684506,0.153311,0.555501,-124.415197,4.718172,10.288402,1.932705,2.500992,1.138138,42.73723,-2.446308,-11.454991,4.63583E+18,-0.680863,-0.495553,-0.344613,0.414843,0
-55.798859,18.025899,-8.254601,4.128313,1.295966,-2.291136,45.225413,-1.89462,8.340902,4.63583E+18,0.709983,-0.396907,0.546903,0.198207,-14.50486,-14.15415,-9.295363,3.099039,0.361742,-0.861904,44.254218,5.216066,-11.780144,4.63582E+18,0.456965,-0.680036,0.15889,0.550898,-24.944379,-15.033546,8.756479,2.79758,4.99619,2.473488,42.992662,-3.192926,-10.169375,4.63583E+18,-0.672012,-0.51543,-0.348618,0.401494,0
-47.86156,14.414173,-8.390342,3.738354,-2.061829,-0.55767,45.390279,-1.176301,8.007693,4.63583E+18,0.721236,-0.385242,0.542954,0.191334,-10.568869,-13.521042,-13.597181,3.822484,0.594428,-0.491243,44.398327,5.348785,-11.771155,4.63582E+18,0.468368,-0.674327,0.167587,0.545737,1.64564,14.784833,2.17002,2.648446,4.124825,-0.622069,43.36537,-4.272591,-8.08618,4.63583E+18,-0.659356,-0.528521,-0.357093,0.397995,0
-39.273048,12.442558,1.428682,3.404729,-1.90352,0.311553,45.518383,-0.933809,7.226478,4.63583E+18,0.730688,-0.372625,0.540448,0.187515,-7.987414,-15.175099,-17.565413,4.643897,0.978946,-0.148643,44.384302,5.086202,-11.654434,4.63582E+18,0.480878,-0.667432,0.179807,0.539407,-16.284676,17.34672,8.852245,1.741903,4.218198,-0.078879,43.47338,-4.095114,-6.273666,4.63583E+18,-0.649052,-0.54001,-0.3658,0.391548,0
-31.947804,12.659104,5.210597,2.775229,0.100438,1.070801,45.545822,-0.932363,6.880375,4.63583E+18,0.733901,-0.361702,0.544614,0.184272,-4.12145,-16.181183,-18.464868,5.379298,1.319152,0.127736,44.243862,4.602535,-11.325694,4.63582E+18,0.494334,-0.659315,0.195046,0.531879,-9.946362,20.204171,3.35603,1.299292,3.502468,-0.513196,43.207637,-3.452823,-5.092394,4.63583E+18,-0.639934,-0.548311,-0.374164,0.387092,0
-26.665886,9.222553,0.533648,2.217487,0.839141,1.788792,45.553455,-1.422382,7.168951,4.63583E+18,0.733931,-0.351366,0.551608,0.183346,-3.014714,-13.746565,-15.475784,6.137747,1.643208,0.398477,44.235464,3.848325,-10.823049,4.63582E+18,0.508703,-0.649728,0.213253,0.523067,-5.058064,19.881631,4.672906,0.870243,2.995107,-0.806575,43.225412,-3.334473,-4.003236,4.63583E+18,-0.631981,-0.554077,-0.38246,0.383827,0
-25.473924,7.614572,-1.507443,1.768591,0.445393,2.092804,45.413003,-2.101374,7.498457,4.63583E+18,0.733868,-0.341352,0.557419,0.18493,-5.244078,-9.079041,-10.910732,6.614735,1.935278,0.637989,44.566079,3.040077,-10.239294,4.63582E+18,0.52319,-0.639056,0.2336,0.513138,-3.311395,15.594226,2.226758,0.675149,2.211377,-1.17893,43.724992,-3.483815,-2.850071,4.63583E+18,-0.625242,-0.557196,-0.390101,0.382656,0
-26.578905,10.18027,0.669053,1.217821,0.633157,1.777668,45.081852,-2.702543,7.725813,4.63583E+18,0.732747,-0.333861,0.562869,0.186541,-6.740227,-4.36644,-6.66741,6.745483,2.13209,0.836664,44.812871,2.274705,-9.736653,4.63582E+18,0.53696,-0.627781,0.254981,0.502544,-7.168394,9.712632,-1.346328,0.688794,1.665259,-1.627143,44.007717,-3.187247,-1.964583,4.63583E+18,-0.618426,-0.558842,-0.397077,0.384155,0
-28.815979,12.624239,0.93823,0.700634,1.038546,1.136141,44.935452,-3.123619,8.003524,4.63583E+18,0.730402,-0.329745,0.568223,0.186828,-8.069926,0.211068,-2.842216,6.624183,2.267259,1.031293,45.007133,1.380934,-9.101845,4.63582E+18,0.549391,-0.616304,0.276693,0.491711,-7.859769,5.091544,-7.608224,0.605582,1.147813,-1.933917,43.806861,-2.076729,-1.329765,4.63583E+18,-0.612059,-0.558934,-0.403457,0.387554,0
-30.27291,12.353738,-1.657501,0.310795,0.301478,0.74274,45.042283,-3.399787,8.178971,4.63583E+18,0.729549,-0.327162,0.570471,0.187846,-10.703756,3.301291,1.529623,6.148448,2.251795,1.186712,45.274071,0.563667,-8.224609,4.63583E+18,0.559849,-0.605201,0.297564,0.481411,-7.769429,6.758336,-11.167014,0.260878,0.787182,-2.205522,43.631012,-0.830262,-1.083699,4.63583E+18,-0.606605,-0.557056,-0.410068,0.391872,0
-28.833599,10.667553,-2.313205,-0.053714,-0.819641,0.552882,45.15214,-3.59815,7.986655,4.63583E+18,0.731001,-0.325257,0.568759,0.190679,-13.289974,5.956612,4.950621,5.470791,2.15335,1.264027,45.498582,-0.159165,-7.369099,4.63583E+18,0.568173,-0.594963,0.316831,0.472034,-8.347582,5.751531,-11.193048,-0.247984,0.430395,-2.518405,44.181078,-0.548286,-0.935297,4.63583E+18,-0.602527,-0.552548,-0.417513,0.396654,0
-24.687423,7.993989,-0.561305,-0.403127,-1.326262,0.393062,45.126183,-3.814839,7.551755,4.63583E+18,0.733289,-0.324383,0.564995,0.194534,-15.028386,6.470444,7.693332,4.822218,2.044573,1.379445,45.52194,-0.82958,-6.613222,4.63583E+18,0.574483,-0.585555,0.334667,0.463781,-10.051985,2.862271,-11.7416,-0.772608,0.099825,-2.662817,45.188709,-0.69796,-0.864875,4.63583E+18,-0.599814,-0.545966,-0.425123,0.401765,0
-19.57289,3.564407,1.577869,-0.55704,-1.215143,0.22524,45.139928,-4.013189,7.144372,4.63583E+18,0.735219,-0.324455,0.561201,0.198082,-15.962501,5.375006,8.773951,4.372538,1.923365,1.590514,45.619594,-1.594905,-5.989077,4.63583E+18,0.579183,-0.576416,0.351698,0.456727,-13.022186,0.717995,-11.456741,-1.296709,-0.244407,-2.827249,45.62008,0.081168,-0.865712,4.63583E+18,-0.598538,-0.53712,-0.433058,0.407081,0
-14.804935,-0.962486,3.49268,-0.462524,-0.634947,0.04568,45.266563,-4.031502,6.823965,4.63583E+18,0.736053,-0.325129,0.559007,0.200071,-16.146195,4.055977,8.008477,4.120867,1.824113,1.817757,45.717235,-2.499668,-5.110313,4.63582E+18,0.582744,-0.567117,0.368404,0.450629,-16.244258,-1.257987,-9.840802,-1.803264,-0.539994,-2.922003,45.398497,1.441959,-1.073232,4.63583E+18,-0.598655,-0.526235,-0.44124,0.412307,0
-11.432596,-3.575014,3.877441,-0.158271,-0.106068,-0.027771,45.326088,-3.897237,6.584396,4.63583E+18,0.736125,-0.32548,0.558587,0.200408,-15.951894,4.445513,6.014243,3.875337,1.85114,2.031917,45.794223,-3.404182,-4.232879,4.63582E+18,0.585047,-0.557907,0.385069,0.445175,-18.517946,-4.436425,-8.007122,-2.244743,-0.732754,-2.778042,45.203051,2.384799,-1.300417,4.63583E+18,-0.600208,-0.514062,-0.449281,0.416697,0
