Accelerometer-X,Accelerometer-Y,Accelerometer-Z,Gyroscope-X,Gyroscope-Y,Gyroscope-Z,Magnetometer-X,Magnetometer-Y,Magnetometer-Z,Barometer-pressure,Orientation-S,Orientation-X,Orientation-Y,Orientation-Z,Accelerometer-X,Accelerometer-Y,Accelerometer-Z,Gyroscope-X,Gyroscope-Y,Gyroscope-Z,Magnetometer-X,Magnetometer-Y,Magnetometer-Z,Barometer-pressure,Orientation-S,Orientation-X,Orientation-Y,Orientation-Z,Accelerometer-X,Accelerometer-Y,Accelerometer-Z,Gyroscope-X,Gyroscope-Y,Gyroscope-Z,Magnetometer-X,Magnetometer-Y,Magnetometer-Z,Barometer-pressure,Orientation-S,Orientation-X,Orientation-Y,Orientation-Z,jump
-9.871955,0.292696,1.472980,0.151305,-0.005079,-0.123545,43.063039,-16.386732,5.391275,4635730176821428200.000000,-0.704158,0.197670,-0.637984,-0.240966,-9.787259,-0.537126,-0.649010,0.056073,-0.005601,0.044147,43.476616,-15.868668,-3.181994,4635725988691443700.000000,-0.429520,0.611767,-0.428222,-0.507819,-9.818422,0.254858,-0.318591,0.069541,0.029600,0.065583,42.248550,15.845209,7.684448,4635727491929997300.000000,-0.614829,-0.416922,-0.567929,0.354426,0
-9.867151,0.244148,1.510148,0.149193,-0.025683,-0.120317,42.957851,-16.389883,5.363437,4635730176821428200.000000,-0.704462,0.197551,-0.637957,-0.240246,-9.755735,-0.537126,-0.639879,0.049219,-0.000891,0.037646,43.469598,-15.949017,-3.201503,4635725988691443700.000000,-0.429583,0.611616,-0.428474,-0.507734,-9.746459,0.433320,-0.261306,0.056836,0.019017,0.067719,42.385215,15.734232,7.739494,4635727491929997300.000000,-0.614815,-0.417201,-0.567783,0.354356,0
-9.708199,0.248262,1.627965,0.149529,-0.026982,-0.112840,43.011327,-16.202404,5.415973,4635730176821428200.000000,-0.704762,0.197408,-0.637933,-0.239547,-9.700765,-0.526940,-0.677549,0.043971,-0.003028,0.029816,43.544857,-15.854194,-3.191073,4635725988691443700.000000,-0.429653,0.611485,-0.428690,-0.507651,-9.734163,0.263899,-0.206335,0.060554,0.009622,0.073589,42.321977,15.575555,7.551719,4635727642078631900.000000,-0.614826,-0.417487,-0.567598,0.354297,0
-9.533586,0.252242,1.655830,0.145245,-0.007419,-0.102844,43.116547,-16.040527,5.374975,4635730176821428200.000000,-0.704997,0.197269,-0.637970,-0.238871,-9.623477,-0.512711,-0.730423,0.045400,-0.004273,0.024030,43.580429,-15.595889,-3.032529,4635725988691443700.000000,-0.429741,0.611360,-0.428891,-0.507557,-9.741508,0.080694,-0.212388,0.062595,0.002675,0.081066,42.154750,15.638769,7.402652,4635727706678362100.000000,-0.614860,-0.417786,-0.567379,0.354237,0
-9.427840,0.235924,1.562161,0.135239,0.000326,-0.086092,43.087763,-16.069312,5.277323,4635730176821428200.000000,-0.705185,0.197124,-0.638032,-0.238266,-9.600111,-0.522895,-0.749744,0.048244,-0.006055,0.017176,43.585521,-15.569600,-3.197500,4635725988691443700.000000,-0.429854,0.611238,-0.429077,-0.507451,-9.750043,0.139040,-0.151455,0.065687,0.003309,0.086303,42.214287,15.746257,7.433015,4635727706678362100.000000,-0.614894,-0.418105,-0.567148,0.354171,0
-9.354854,0.170388,1.481079,0.121386,-0.008939,-0.065438,43.031097,-16.125980,5.245458,4635730176821428200.000000,-0.705365,0.196957,-0.638071,-0.237768,-9.632684,-0.537126,-0.761951,0.046999,-0.007654,0.010145,43.623186,-15.697739,-3.412981,4635725988691443700.000000,-0.429719,0.611350,-0.428923,-0.507561,-9.736646,0.183111,-0.156213,0.069534,0.016221,0.092069,42.372983,15.661013,7.458724,4635727706678362100.000000,-0.614899,-0.418466,-0.566935,0.354076,0
-9.346886,0.044463,1.481335,0.113910,-0.020699,-0.048753,43.084548,-16.121868,5.376006,4635730176821428200.000000,-0.705554,0.196754,-0.638080,-0.237348,-9.683537,-0.537126,-0.784340,0.048780,-0.009082,0.004627,43.599696,-15.747550,-3.329496,4635725988691443700.000000,-0.429865,0.611243,-0.429073,-0.507439,-9.746368,0.072172,-0.222106,0.085432,0.028083,0.102957,42.429260,15.451128,7.398987,4635727706678362100.000000,-0.614865,-0.418911,-0.566709,0.353970,0
-9.391853,-0.032761,1.558935,0.108591,-0.030268,-0.043794,43.193903,-16.142546,5.505539,4635730212977908700.000000,-0.705759,0.196544,-0.638061,-0.236964,-9.725252,-0.537126,-0.810780,0.052608,-0.014600,0.000354,43.440996,-15.783191,-3.222754,4635725988691443700.000000,-0.430040,0.611126,-0.429210,-0.507316,-9.745182,0.058548,-0.235615,0.119487,0.036950,0.109801,42.322001,15.321595,7.441538,4635727706678362100.000000,-0.614761,-0.419473,-0.566444,0.353912,0
-9.485544,-0.093808,1.668562,0.105724,-0.025219,-0.043074,43.173211,-16.199224,5.439737,4635730284195610600.000000,-0.705947,0.196347,-0.638054,-0.236587,-9.768988,-0.537126,-0.828077,0.055812,-0.019318,-0.001691,43.343397,-15.797367,-3.222754,4635725988691443700.000000,-0.430236,0.610996,-0.429340,-0.507196,-9.681782,0.175632,-0.240473,0.146314,0.045494,0.115567,42.333963,15.406796,7.598915,4635727706678362100.000000,-0.614597,-0.420129,-0.566150,0.353887,0
-9.578976,-0.121933,1.700804,0.100033,-0.012805,-0.043459,43.116547,-16.116904,5.306104,4635730284195610600.000000,-0.706098,0.196180,-0.638077,-0.236215,-9.790338,-0.537126,-0.832129,0.057680,-0.023322,-0.001514,43.407552,-15.711915,-3.222754,4635725988691443700.000000,-0.430444,0.610854,-0.429468,-0.507083,-9.698716,0.364775,-0.235616,0.153492,0.041348,0.118243,42.462072,15.565487,7.645510,4635727706678362100.000000,-0.614434,-0.420803,-0.565830,0.353880,0
-9.627664,-0.089429,1.688737,0.099002,-0.008521,-0.046638,43.116547,-15.926271,5.330933,4635730284195610600.000000,-0.706239,0.196027,-0.638109,-0.235831,-9.775067,-0.537126,-0.817896,0.059907,-0.025013,-0.003027,43.573358,-15.590838,-3.182034,4635725988691443700.000000,-0.430663,0.610708,-0.429593,-0.506967,-9.700028,0.538187,-0.214875,0.146347,0.039200,0.116325,42.395250,15.613269,7.513841,4635727706678362100.000000,-0.614286,-0.421451,-0.565519,0.353864,0
-9.647964,-0.060899,1.696829,0.101462,-0.005713,-0.044850,43.116547,-15.898429,5.461513,4635730284195610600.000000,-0.706374,0.195863,-0.638154,-0.235443,-9.743537,-0.542215,-0.797539,0.067919,-0.027417,-0.004273,43.630257,-15.526819,-3.125095,4635725988691443700.000000,-0.430909,0.610545,-0.429726,-0.506842,-9.667085,0.611549,-0.198995,0.135667,0.039521,0.113121,42.296295,15.502362,7.467255,4635727706678362100.000000,-0.614151,-0.422065,-0.565229,0.353831,0
-9.631369,-0.036622,1.721516,0.098618,-0.007825,-0.042366,43.116547,-15.983878,5.590991,4635730284195610600.000000,-0.706509,0.195700,-0.638192,-0.235071,-9.714035,-0.544245,-0.748712,0.075661,-0.029463,-0.005608,43.549898,-15.612267,-3.084386,4635725988691443700.000000,-0.431179,0.610367,-0.429867,-0.506706,-9.715776,0.562858,-0.110004,0.121253,0.041761,0.111409,42.385146,15.454573,7.530651,4635727706678362100.000000,-0.614034,-0.422640,-0.564969,0.353764,0
-9.545789,-0.032509,1.770074,0.098281,0.000430,-0.040218,43.116547,-16.040527,5.558082,4635730284195610600.000000,-0.706619,0.195541,-0.638254,-0.234701,-9.677415,-0.537126,-0.704974,0.075571,-0.029730,-0.008813,43.537713,-15.697713,-2.986734,4635725988691443700.000000,-0.431454,0.610196,-0.429999,-0.506566,-9.758571,0.468871,-0.107372,0.106723,0.038993,0.111087,42.484126,15.514296,7.488128,4635727706678362100.000000,-0.613947,-0.423173,-0.564723,0.353668,0
-9.460605,-0.016188,1.757733,0.101846,0.020725,-0.035585,43.141229,-16.011733,5.460423,4635730284195610600.000000,-0.706673,0.195379,-0.638384,-0.234320,-9.635708,-0.537126,-0.673440,0.071031,-0.030086,-0.013352,43.616040,-15.747550,-2.970474,4635725988691443700.000000,-0.431729,0.610040,-0.430108,-0.506427,-9.740333,0.388288,-0.181783,0.095825,0.036639,0.111834,42.557357,15.488845,7.390485,4635727706678362100.000000,-0.613887,-0.423677,-0.564486,0.353549,0
-9.444549,-0.012339,1.684094,0.107198,0.025903,-0.030245,43.243262,-15.926285,5.362768,4635730284195610600.000000,-0.706712,0.195193,-0.638538,-0.233937,-9.607226,-0.537126,-0.664286,0.066403,-0.030620,-0.020651,43.635364,-15.783154,-3.185111,4635725988691443700.000000,-0.431656,0.610203,-0.429765,-0.506584,-9.737829,0.280933,-0.267228,0.107108,0.037063,0.111409,42.579422,15.407078,7.361064,4635727706678362100.000000,-0.613804,-0.424208,-0.564234,0.353457,0
-9.477186,-0.028398,1.578738,0.112875,-0.001901,-0.025624,43.348488,-15.869624,5.330910,4635730284195610600.000000,-0.706826,0.194950,-0.638620,-0.233574,-9.632652,-0.537126,-0.671407,0.066492,-0.034447,-0.027860,43.562127,-15.863512,-3.487227,4635725988691443700.000000,-0.431827,0.610183,-0.429663,-0.506550,-9.792681,0.235619,-0.361209,0.134866,0.035146,0.111834,42.579422,15.441031,7.361064,4635727706678362100.000000,-0.613678,-0.424809,-0.563935,0.353433,0
-9.530128,-0.028656,1.603669,0.115371,-0.029245,-0.024219,43.295031,-15.869624,5.428569,4635730284195610600.000000,-0.707012,0.194669,-0.638624,-0.233231,-9.688600,-0.537126,-0.681575,0.065692,-0.037207,-0.033201,43.549897,-15.906246,-3.519840,4635725988691443700.000000,-0.432012,0.610168,-0.429540,-0.506513,-9.806224,0.300164,-0.441804,0.153900,0.034181,0.113648,42.528256,15.466780,7.361064,4635727706678362100.000000,-0.613522,-0.425461,-0.563601,0.353450,0
-9.603501,-0.069261,1.705182,0.120015,-0.038453,-0.028874,43.189793,-15.844952,5.427538,4635730284195610600.000000,-0.707231,0.194377,-0.638603,-0.232870,-9.747599,-0.537126,-0.700906,0.059283,-0.038008,-0.036317,43.658732,-15.804562,-3.288928,4635725988691443700.000000,-0.432195,0.610163,-0.429403,-0.506480,-9.759902,0.363714,-0.455353,0.172264,0.034181,0.115038,42.463536,15.245039,7.565748,4635727706678362100.000000,-0.613336,-0.426163,-0.563238,0.353507,0
-9.701156,-0.077229,1.757994,0.127132,-0.036295,-0.037767,43.189793,-15.796380,5.298013,4635730284195610600.000000,-0.707458,0.194090,-0.638587,-0.232463,-9.795421,-0.542209,-0.723279,0.052875,-0.038720,-0.036317,43.715751,-15.662099,-3.125095,4635725988691443700.000000,-0.432365,0.610166,-0.429254,-0.506457,-9.715924,0.327262,-0.443146,0.195543,0.031942,0.113121,42.445141,15.089692,7.654042,4635727706678362100.000000,-0.613111,-0.426916,-0.562838,0.353627,0
-9.794697,-0.069258,1.802834,0.137497,-0.028088,-0.046682,43.189793,-15.821044,5.392558,4635730284195610600.000000,-0.707680,0.193804,-0.638598,-0.231996,-9.797461,-0.564583,-0.739568,0.052693,-0.043703,-0.037207,43.599799,-15.697682,-3.206429,4635726078116239400.000000,-0.432663,0.610060,-0.429236,-0.506345,-9.713412,0.262553,-0.413887,0.217869,0.030976,0.110663,42.376929,15.174779,7.457934,4635727706678362100.000000,-0.612844,-0.427718,-0.562406,0.353807,0
-9.855485,-0.077232,1.822767,0.153856,-0.017058,-0.058432,43.165131,-15.816192,5.578784,4635730284195610600.000000,-0.707896,0.193509,-0.638648,-0.231442,-9.780171,-0.575789,-0.722277,0.063907,-0.046732,-0.036229,43.507187,-15.747550,-3.320414,4635726203439808500.000000,-0.432992,0.609927,-0.429237,-0.506223,-9.742671,0.303830,-0.377266,0.222819,0.027992,0.110019,42.287801,15.273788,7.245382,4635727706678362100.000000,-0.612574,-0.428526,-0.561959,0.354006,0
-9.875909,-0.061037,1.749408,0.167033,-0.010322,-0.068382,43.141202,-15.710928,5.513037,4635730284195610600.000000,-0.708115,0.193207,-0.638723,-0.230819,-9.765923,-0.561541,-0.697864,0.076192,-0.045752,-0.031334,43.603758,-15.640812,-3.239089,4635726203439808500.000000,-0.433338,0.609767,-0.429277,-0.506086,-9.770767,0.363704,-0.255384,0.220683,0.028942,0.109273,42.381394,15.244720,7.249843,4635727706678362100.000000,-0.612305,-0.429328,-0.561518,0.354200,0
-9.887875,-0.069256,1.701060,0.179840,-0.009973,-0.071915,43.218561,-15.739696,5.383465,4635730284195610600.000000,-0.708345,0.192879,-0.638807,-0.230154,-9.781168,-0.571704,-0.663287,0.082513,-0.044331,-0.029285,43.739124,-15.455621,-3.206406,4635726203439808500.000000,-0.433494,0.609763,-0.429099,-0.506109,-9.803705,0.369905,-0.199001,0.223022,0.033638,0.112681,42.492609,15.120332,7.412012,4635727706678362100.000000,-0.612024,-0.430150,-0.561079,0.354382,0
-9.830704,-0.097781,1.741671,0.188724,-0.008524,-0.069059,43.304012,-15.792270,5.449219,4635730284195610600.000000,-0.708575,0.192519,-0.638906,-0.229472,-9.797463,-0.575793,-0.634785,0.085273,-0.041479,-0.028130,43.708637,-15.441312,-3.361064,4635726203439808500.000000,-0.433846,0.609592,-0.429172,-0.505952,-9.823277,0.434418,-0.220892,0.215360,0.036741,0.112800,42.467239,14.905653,7.402734,4635727706678362100.000000,-0.611750,-0.430957,-0.560659,0.354541,0
-9.753599,-0.138505,1.757866,0.195142,-0.001397,-0.064787,43.385342,-15.702018,5.607537,4635730284195610600.000000,-0.708787,0.192133,-0.639036,-0.228779,-9.749694,-0.566621,-0.629705,0.085186,-0.043615,-0.024746,43.701446,-15.562321,-3.377429,4635726203439808500.000000,-0.434043,0.609538,-0.429067,-0.505937,-9.801386,0.523553,-0.172269,0.204780,0.037385,0.110664,42.496289,14.780848,7.313600,4635727706678362100.000000,-0.611490,-0.431733,-0.560259,0.354678,0
-9.712870,-0.170904,1.741435,0.204047,0.005351,-0.059437,43.433941,-15.457870,5.688881,4635730284195610600.000000,-0.708983,0.191711,-0.639198,-0.228069,-9.682517,-0.568668,-0.612417,0.080648,-0.044418,-0.025277,43.715772,-15.626536,-3.361057,4635726203439808500.000000,-0.434258,0.609468,-0.428983,-0.505907,-9.747725,0.557856,-0.129444,0.198897,0.038877,0.109274,42.680314,14.929200,7.338955,4635727706678362100.000000,-0.611235,-0.432492,-0.559873,0.354803,0
-9.659932,-0.187334,1.696713,0.212222,0.004602,-0.051600,43.409294,-15.324631,5.774449,4635730284195610600.000000,-0.709180,0.191241,-0.639373,-0.227360,-9.663183,-0.566621,-0.603243,0.076018,-0.042905,-0.027327,43.665882,-15.576647,-3.377429,4635726203439808500.000000,-0.434462,0.609413,-0.428888,-0.505879,-9.754865,0.604149,-0.079466,0.195370,0.038030,0.112679,42.750328,15.105158,7.429237,4635727706678362100.000000,-0.610993,-0.433248,-0.559483,0.354912,0
-9.607112,-0.215626,1.676522,0.217203,-0.001068,-0.044493,43.307301,-15.434722,5.880204,4635730284195610600.000000,-0.709389,0.190732,-0.639540,-0.226665,-9.666216,-0.599147,-0.615450,0.074326,-0.040324,-0.024926,43.731919,-15.612206,-3.239136,4635726203439808500.000000,-0.434657,0.609358,-0.428806,-0.505847,-9.740358,0.579970,-0.052515,0.190675,0.042605,0.116529,42.588417,15.149387,7.399072,4635727706678362100.000000,-0.610754,-0.434007,-0.559104,0.354993,0
-9.570493,-0.195207,1.713365,0.223991,-0.004661,-0.040221,43.255381,-15.511281,5.973749,4635730284195610600.000000,-0.709608,0.190190,-0.639706,-0.225967,-9.700787,-0.624627,-0.597183,0.073258,-0.038453,-0.021987,43.895682,-15.662099,-3.165727,4635726203439808500.000000,-0.434842,0.609301,-0.428737,-0.505815,-9.695218,0.476335,-0.091432,0.195772,0.053809,0.119733,42.509867,15.098264,7.236942,4635727706678362100.000000,-0.610484,-0.434803,-0.558740,0.355056,0
-9.533872,-0.150375,1.790602,0.236099,-0.014983,-0.034870,43.360695,-15.401198,5.997611,4635730284195610600.000000,-0.709858,0.189586,-0.639856,-0.225260,-9.714064,-0.605291,-0.561541,0.073523,-0.038898,-0.021363,43.959928,-15.626546,-3.339571,4635726203439808500.000000,-0.435022,0.609245,-0.428664,-0.505790,-9.714551,0.396866,-0.152467,0.206876,0.058425,0.123683,42.565819,15.016502,7.177953,4635727706678362100.000000,-0.610189,-0.435643,-0.558363,0.355127,0
-9.497254,-0.113971,1.818798,0.247120,-0.020286,-0.030986,43.360695,-15.324607,5.904068,4635730284195610600.000000,-0.710127,0.188934,-0.640004,-0.224540,-9.677445,-0.603241,-0.576774,0.076103,-0.038633,-0.019586,43.808475,-15.541102,-3.386736,4635726203439808500.000000,-0.435201,0.609183,-0.428599,-0.505765,-9.737821,0.335824,-0.222031,0.227574,0.061731,0.128701,42.651278,14.999212,7.314292,4635727706678362100.000000,-0.609855,-0.436551,-0.557954,0.355227,0
-9.493462,-0.117971,1.778075,0.252083,-0.018877,-0.032395,43.356592,-15.410052,5.748867,4635730284195610600.000000,-0.710395,0.188274,-0.640158,-0.223804,-9.656056,-0.645907,-0.608316,0.080640,-0.038274,-0.014869,43.665882,-15.491195,-3.182141,4635726203439808500.000000,-0.435504,0.609001,-0.428706,-0.505633,-9.732988,0.266275,-0.354902,0.250647,0.065257,0.133296,42.728200,15.002898,7.364752,4635727706678362100.000000,-0.609478,-0.437533,-0.557511,0.355363,0
-9.538086,-0.109867,1.766178,0.252442,-0.022808,-0.031335,43.401838,-15.438053,5.521538,4635730284195610600.000000,-0.710672,0.187609,-0.640301,-0.223076,-9.686521,-0.690745,-0.597190,0.085717,-0.038189,-0.010861,43.665882,-15.491195,-3.206335,4635726203439808500.000000,-0.435810,0.608804,-0.428832,-0.505501,-9.780418,0.329345,-0.479522,0.270842,0.061752,0.137569,42.750328,15.002898,7.361064,4635727706678362100.000000,-0.609077,-0.438571,-0.557020,0.355540,0
-9.554397,-0.126282,1.819007,0.254587,-0.027413,-0.034199,43.453837,-15.381329,5.555200,4635730320291886100.000000,-0.710965,0.186940,-0.640428,-0.222337,-9.719147,-0.637923,-0.556464,0.085811,-0.033652,-0.008725,43.630343,-15.562271,-3.361029,4635726203439808500.000000,-0.436101,0.608613,-0.428971,-0.505362,-9.759949,0.485490,-0.538268,0.282614,0.055344,0.142586,42.750328,14.943265,7.369583,4635727706678362100.000000,-0.608677,-0.439640,-0.556485,0.355744,0
-9.566502,-0.154594,1.859725,0.259218,-0.019884,-0.040607,43.299266,-15.405940,5.815316,4635730391569793000.000000,-0.711247,0.186281,-0.640577,-0.221560,-9.704885,-0.594052,-0.579789,0.083316,-0.032129,-0.005700,43.585505,-15.697631,-3.336856,4635726203439808500.000000,-0.436374,0.608425,-0.429115,-0.505230,-9.707437,0.673408,-0.583404,0.266563,0.050426,0.137492,42.809950,14.755611,7.236989,4635727706678362100.000000,-0.608308,-0.440648,-0.555970,0.355931,0
-9.574804,-0.130081,1.896249,0.266712,-0.001384,-0.047375,43.279935,-15.429962,5.940904,4635730391569793000.000000,-0.711490,0.185633,-0.640782,-0.220728,-9.694733,-0.647958,-0.607349,0.085092,-0.035249,-0.002316,43.658626,-15.676486,-3.263363,4635726203439808500.000000,-0.436432,0.608406,-0.429003,-0.505298,-9.718230,0.936857,-0.564094,0.230917,0.045409,0.128625,42.886882,14.634403,7.109816,4635727706678362100.000000,-0.608003,-0.441537,-0.555511,0.356068,0
-9.611328,-0.068946,1.863336,0.275591,0.012852,-0.053416,43.487265,-15.270578,5.928696,4635730355490624500.000000,-0.711708,0.184987,-0.641031,-0.219843,-9.650018,-0.643011,-0.585955,0.087588,-0.033028,-0.000624,43.680278,-15.541119,-3.320414,4635726203439808500.000000,-0.436584,0.608303,-0.429021,-0.505275,-9.754852,1.102077,-0.506747,0.174255,0.027398,0.119334,42.857919,14.663365,7.148432,4635727706678362100.000000,-0.607830,-0.442234,-0.555107,0.356130,0
-9.619433,0.028806,1.769977,0.275924,0.025311,-0.058056,43.568029,-14.969701,5.949300,4635730284195610600.000000,-0.711896,0.184361,-0.641315,-0.218930,-9.592003,-0.580881,-0.591030,0.082704,-0.028576,0.001776,43.514460,-15.496269,-3.279817,4635726203439808500.000000,-0.436829,0.608113,-0.429186,-0.505152,-9.714826,1.084191,-0.420167,0.101229,0.017314,0.108231,42.784682,14.574796,7.246083,4635727706678362100.000000,-0.607798,-0.442705,-0.554805,0.356069,0
-9.639935,0.130369,1.749759,0.273095,0.033471,-0.064815,43.437386,-14.860885,6.038846,4635730284195610600.000000,-0.712066,0.183768,-0.641614,-0.217997,-9.606122,-0.573748,-0.577867,0.072731,-0.026260,0.003385,43.523213,-15.533846,-3.182163,4635726203439808500.000000,-0.437039,0.607945,-0.429337,-0.505045,-9.658611,1.045011,-0.237335,0.044440,0.021239,0.097226,42.822151,14.475709,7.275612,4635727706678362100.000000,-0.607845,-0.443013,-0.554618,0.355898,0
-9.655871,0.207803,1.733267,0.270568,0.029876,-0.067644,43.250646,-15.019575,6.140601,4635730284195610600.000000,-0.712244,0.183187,-0.641897,-0.217068,-9.676349,-0.594040,-0.513821,0.065254,-0.023416,0.003468,43.731832,-15.612159,-3.165680,4635726203439808500.000000,-0.437060,0.607936,-0.429279,-0.505086,-9.669397,0.978016,-0.043161,0.009043,0.024990,0.087291,42.899082,14.513179,7.275612,4635727706678362100.000000,-0.607934,-0.443213,-0.554511,0.355663,0
-9.582633,0.288968,1.701017,0.258102,0.018852,-0.065508,43.202000,-15.096280,6.242261,4635730284195610600.000000,-0.712440,0.182629,-0.642137,-0.216187,-9.725176,-0.617505,-0.468954,0.056446,-0.019407,0.006228,43.758635,-15.662099,-3.222754,4635726203439808500.000000,-0.437093,0.607906,-0.429275,-0.505097,-9.816706,0.841486,0.046266,-0.005215,0.023400,0.082149,42.861626,14.641194,7.139377,4635727706678362100.000000,-0.608045,-0.443363,-0.554430,0.355411,0
-9.521686,0.317482,1.737550,0.246368,0.012810,-0.061937,43.251187,-14.961642,6.200646,4635730284195610600.000000,-0.712638,0.182089,-0.642350,-0.215353,-9.738501,-0.595155,-0.460874,0.045321,-0.017271,0.006146,43.665882,-15.626597,-3.263328,4635726203439808500.000000,-0.437092,0.607903,-0.429248,-0.505124,-9.943904,0.682796,0.086580,0.005933,0.014981,0.080434,42.776179,14.745106,7.088808,4635727706678362100.000000,-0.608153,-0.443524,-0.554315,0.355205,0
-9.476868,0.358201,1.737462,0.235305,0.007095,-0.055887,43.401768,-14.836269,5.973255,4635730284195610600.000000,-0.712837,0.181562,-0.642540,-0.214571,-9.722165,-0.568676,-0.419180,0.030022,-0.015135,0.002941,43.731813,-15.612148,-3.279840,4635726203439808500.000000,-0.437055,0.607939,-0.429185,-0.505167,-10.007505,0.507071,-0.021541,0.021435,0.002810,0.083836,42.809926,14.770958,7.288329,4635727706678362100.000000,-0.608265,-0.443715,-0.554140,0.355049,0
-9.444518,0.407027,1.725341,0.218941,-0.001434,-0.049830,43.564551,-14.970884,6.006722,4635730284195610600.000000,-0.713040,0.181060,-0.642694,-0.213859,-9.744512,-0.551400,-0.405848,0.009285,-0.010780,0.000624,43.728239,-15.697592,-3.263318,4635726203439808500.000000,-0.436963,0.608024,-0.429083,-0.505231,-9.869021,0.349503,-0.226501,0.032341,0.008617,0.085452,42.835777,14.711358,7.373271,4635727706678362100.000000,-0.608346,-0.443946,-0.553960,0.354903,0
-9.460737,0.455856,1.717061,0.207557,-0.011085,-0.041635,43.600237,-15.124972,6.234140,4635730284195610600.000000,-0.713252,0.180562,-0.642815,-0.213210,-9.760854,-0.537126,-0.452603,-0.012075,-0.004635,0.000000,43.557156,-15.783031,-3.355895,4635726203439808500.000000,-0.436923,0.608064,-0.429083,-0.505216,-9.700386,0.347751,-0.335544,0.050892,0.032930,0.082472,42.725106,14.523754,7.109361,4635727706678362100.000000,-0.608332,-0.444252,-0.553820,0.354762,0
-9.473028,0.484199,1.668234,0.196861,-0.031020,-0.032381,43.364209,-15.071712,6.266244,4635730284195610600.000000,-0.713500,0.180053,-0.642873,-0.212632,-9.748646,-0.542195,-0.493365,-0.029447,-0.001249,-0.000444,43.578157,-15.797517,-3.486975,4635726114262019100.000000,-0.436689,0.608267,-0.428877,-0.505349,-9.707133,0.587555,-0.439143,0.056190,0.040168,0.078945,42.677082,14.402489,7.003355,4635727706678362100.000000,-0.608286,-0.444575,-0.553696,0.354629,0
-9.534224,0.447417,1.656272,0.186209,-0.043436,-0.023478,43.279824,-14.937604,6.230033,4635730284195610600.000000,-0.713766,0.179539,-0.642892,-0.212118,-9.756716,-0.569611,-0.520782,-0.038091,0.000444,-0.001512,43.708507,-15.747550,-3.520071,4635725988691443700.000000,-0.436456,0.608472,-0.428682,-0.505470,-9.754836,0.845339,-0.484601,0.042882,0.032074,0.074251,42.736665,14.431392,7.194309,4635727706678362100.000000,-0.608276,-0.444840,-0.553581,0.354493,0
-9.639994,0.370157,1.729597,0.184790,-0.037708,-0.015657,43.491284,-14.880825,6.319581,4635730284195610600.000000,-0.714008,0.179013,-0.642932,-0.211625,-9.767992,-0.603231,-0.589883,-0.039259,0.000625,-0.000806,43.715854,-15.712069,-3.329835,4635725988691443700.000000,-0.436223,0.608672,-0.428494,-0.505589,-9.714855,0.864487,-0.488296,0.032917,0.027351,0.068910,42.711466,14.453566,7.284124,4635727706678362100.000000,-0.608288,-0.445062,-0.553478,0.354355,0
-9.729458,0.255881,1.823157,0.189090,-0.019171,-0.011743,43.604843,-14.852156,6.384472,4635730284195610600.000000,-0.714200,0.178478,-0.643035,-0.211118,-9.738509,-0.635714,-0.667267,-0.030732,0.000000,0.003286,43.696293,-15.555656,-3.303854,4635725988691443700.000000,-0.436005,0.608847,-0.428333,-0.505702,-9.650127,0.842311,-0.488296,0.032466,0.026704,0.058357,42.791412,14.453566,7.151655,4635727706678362100.000000,-0.608287,-0.445256,-0.553393,0.354245,0
-9.798602,0.060732,1.855373,0.202265,-0.003211,-0.010688,43.547520,-14.742144,6.347621,4635730284195610600.000000,-0.714357,0.177915,-0.643196,-0.210566,-9.706958,-0.656205,-0.695822,-0.014268,-0.001774,0.007739,43.774597,-15.405743,-3.458613,4635725988691443700.000000,-0.435817,0.608986,-0.428208,-0.505803,-9.648661,1.003999,-0.445747,0.025666,0.022981,0.048519,42.997465,14.513135,7.015912,4635727706678362100.000000,-0.608293,-0.445406,-0.553328,0.354151,0
-9.830978,-0.110324,1.810790,0.218300,-0.007132,-0.017834,43.405279,-14.636677,6.278700,4635730248180869100.000000,-0.714543,0.177320,-0.643355,-0.209953,-9.687612,-0.624653,-0.700888,0.001490,-0.004716,0.010943,43.758723,-15.476664,-3.475206,4635726077806989300.000000,-0.435668,0.609084,-0.428120,-0.505888,-9.673076,1.057232,-0.393220,0.015730,0.016895,0.039973,43.127288,14.487958,7.050714,4635727706678362100.000000,-0.608318,-0.445501,-0.553277,0.354067,0
-9.806564,-0.297296,1.810715,0.241102,-0.006741,-0.033503,43.323924,-14.665335,6.319565,4635730248842267600.000000,-0.714757,0.176699,-0.643523,-0.209233,-9.685536,-0.630633,-0.713095,0.017149,-0.006671,0.014148,43.630421,-15.576647,-3.377547,4635726203439808500.000000,-0.435676,0.609042,-0.428214,-0.505853,-9.646431,0.930698,-0.310350,0.014307,0.010486,0.032173,42.991483,14.406204,7.148373,4635727706678362100.000000,-0.608349,-0.445565,-0.553227,0.354011,0
-9.794430,-0.398895,1.798581,0.269230,0.002859,-0.049160,43.328455,-14.693477,6.413123,4635730391569793000.000000,-0.714979,0.176045,-0.643731,-0.208383,-9.712941,-0.659200,-0.684776,0.033091,-0.008988,0.016909,43.580429,-15.612107,-3.320414,4635726203439808500.000000,-0.435723,0.608961,-0.428345,-0.505799,-9.665672,0.810870,-0.246739,0.020910,0.001845,0.028419,42.810629,14.320766,7.186461,4635727781511790600.000000,-0.608382,-0.445625,-0.553152,0.353996,0
-9.802545,-0.480397,1.823068,0.299860,0.004618,-0.061620,43.540361,-14.583467,6.433086,4635730391569793000.000000,-0.715228,0.175333,-0.643962,-0.207413,-9.741508,-0.633871,-0.604390,0.044579,-0.009613,0.018159,43.615890,-15.697559,-3.320414,4635726203439808500.000000,-0.435797,0.608855,-0.428502,-0.505730,-9.697487,0.713210,-0.206417,0.033177,0.002654,0.027027,42.822089,14.354425,7.190161,4635727814052544500.000000,-0.608389,-0.445713,-0.553063,0.354011,0
-9.782082,-0.577911,1.855525,0.333324,-0.000364,-0.070862,43.726779,-14.502536,6.364149,4635730391569793000.000000,-0.715522,0.174542,-0.644199,-0.206329,-9.716179,-0.588031,-0.546343,0.049760,-0.010057,0.016829,43.670948,-15.813405,-3.315348,4635726114324262900.000000,-0.435702,0.608899,-0.428441,-0.505810,-9.738915,0.624063,-0.169796,0.052273,0.006506,0.027448,42.839477,14.380322,7.122101,4635727814052544500.000000,-0.608352,-0.445857,-0.552955,0.354063,0
-9.725143,-0.610370,1.851434,0.362500,-0.004994,-0.074418,43.649451,-14.551225,6.400902,4635730391569793000.000000,-0.715850,0.173670,-0.644443,-0.205160,-9.690601,-0.568683,-0.514788,0.047362,-0.008909,0.012295,43.607177,-15.840399,-3.272750,4635725988691443700.000000,-0.435684,0.608895,-0.428456,-0.505818,-9.753716,0.581151,-0.201226,0.070656,0.009710,0.031493,42.784743,14.380322,7.092501,4635727739235904500.000000,-0.608279,-0.446061,-0.552821,0.354140,0
-9.676318,-0.589920,1.859678,0.384208,-0.009977,-0.074765,43.568096,-14.498053,6.457716,4635730391569793000.000000,-0.716206,0.172730,-0.644689,-0.203935,-9.694757,-0.551412,-0.515697,0.043533,-0.006409,0.006773,43.436285,-15.646263,-3.227819,4635725988691443700.000000,-0.435774,0.608818,-0.428587,-0.505721,-9.762221,0.582253,-0.270766,0.083281,0.011426,0.036090,42.762535,14.380322,7.160545,4635727706678362100.000000,-0.608186,-0.446310,-0.552664,0.354232,0
-9.631580,-0.532975,1.904416,0.402008,-0.014965,-0.072276,43.519394,-14.363901,6.519061,4635730391569793000.000000,-0.716585,0.171723,-0.644935,-0.202672,-9.680470,-0.537126,-0.552317,0.037670,-0.005966,0.002057,43.407174,-15.533784,-3.270408,4635725988691443700.000000,-0.435859,0.608762,-0.428695,-0.505625,-9.757417,0.611472,-0.335505,0.087264,0.016959,0.041106,42.873106,14.431354,7.122117,4635727706678362100.000000,-0.608080,-0.446589,-0.552505,0.354310,0
-9.590872,-0.463706,1.932858,0.418740,-0.022446,-0.070135,43.548014,-14.278456,6.673537,4635730391569793000.000000,-0.716991,0.170653,-0.645174,-0.201375,-9.670345,-0.537126,-0.568685,0.030715,-0.005784,-0.004169,43.578066,-15.677904,-3.355854,4635725988691443700.000000,-0.435938,0.608729,-0.428772,-0.505530,-9.728202,0.656595,-0.379528,0.081635,0.018483,0.043470,42.912726,14.513097,6.956430,4635727706678362100.000000,-0.607984,-0.446861,-0.552354,0.354366,0
-9.546129,-0.370191,1.957334,0.434047,-0.033134,-0.067293,43.629379,-14.221624,6.734398,4635730391569793000.000000,-0.717433,0.169519,-0.645393,-0.200052,-9.656056,-0.542189,-0.561541,0.030169,-0.005966,-0.009431,43.708467,-15.754978,-3.329923,4635725988691443700.000000,-0.435843,0.608864,-0.428612,-0.505586,-9.742605,0.696919,-0.382133,0.068626,0.016670,0.046770,42.968550,14.487993,6.897183,4635727706678362100.000000,-0.607922,-0.447105,-0.552212,0.354387,0
-9.513596,-0.296887,1.989807,0.447217,-0.046667,-0.066578,43.624931,-14.221624,6.697655,4635730391569793000.000000,-0.717917,0.168333,-0.645581,-0.198706,-9.671243,-0.564520,-0.571665,0.032487,-0.004012,-0.011567,43.715899,-15.662099,-3.222754,4635725988691443700.000000,-0.435831,0.608938,-0.428546,-0.505564,-9.762219,0.691021,-0.301893,0.061112,0.016022,0.055508,42.994473,14.406245,7.033247,4635727706678362100.000000,-0.607888,-0.447349,-0.552062,0.354370,0
-9.489186,-0.231941,1.989807,0.458965,-0.061619,-0.064442,43.437650,-14.274758,6.677612,4635730391569793000.000000,-0.718444,0.167095,-0.645733,-0.197347,-9.687617,-0.591017,-0.580894,0.037098,-0.006122,-0.014146,43.665882,-15.697528,-3.263246,4635725988691443700.000000,-0.435839,0.609004,-0.428479,-0.505534,-9.765923,0.641100,-0.294072,0.061304,0.014534,0.063956,42.892437,14.320800,7.160525,4635727706678362100.000000,-0.607870,-0.447610,-0.551893,0.354335,0
-9.460684,-0.240115,1.989807,0.468926,-0.073354,-0.061233,43.303855,-14.380322,6.779304,4635730391569793000.000000,-0.719004,0.165809,-0.645858,-0.195979,-9.665279,-0.582971,-0.548429,0.042283,-0.010863,-0.016022,43.701329,-15.676657,-3.320414,4635725988691443700.000000,-0.435872,0.609055,-0.428407,-0.505505,-9.748915,0.605570,-0.356207,0.064929,0.007933,0.074410,42.847984,14.243848,7.258189,4635727706678362100.000000,-0.607875,-0.447896,-0.551682,0.354294,0
-9.436323,-0.252269,2.022500,0.476050,-0.071543,-0.056250,43.442429,-14.327194,6.832059,4635730319677792300.000000,-0.719557,0.164488,-0.645995,-0.194606,-9.659048,-0.551407,-0.512711,0.036781,-0.005623,-0.016909,43.710802,-15.475314,-3.279880,4635725988691443700.000000,-0.435883,0.609128,-0.428331,-0.505471,-9.707496,0.555648,-0.420944,0.064737,-0.001355,0.086903,42.958525,14.221624,7.347341,4635727706678362100.000000,-0.607921,-0.448195,-0.551424,0.354238,0
-9.452666,-0.280920,2.067037,0.491387,-0.059097,-0.050190,43.629358,-14.168510,6.823938,4635730176821428200.000000,-0.720079,0.163113,-0.646184,-0.193200,-9.680470,-0.542192,-0.512711,0.023259,-0.001773,-0.018602,43.587819,-15.433814,-3.222754,4635725988691443700.000000,-0.435968,0.609144,-0.428362,-0.505353,-9.658672,0.367095,-0.430965,0.081198,0.004654,0.101951,43.006683,14.281135,7.237247,4635727706678362100.000000,-0.607944,-0.448579,-0.551129,0.354171,0
-9.521924,-0.366272,1.989657,0.516295,-0.060549,-0.039147,43.706690,-14.034328,6.885224,4635730176821428200.000000,-0.720610,0.161630,-0.646394,-0.191760,-9.660208,-0.584794,-0.512711,0.011226,-0.002943,-0.019227,43.500043,-15.647568,-3.263281,4635725988691443700.000000,-0.436024,0.609181,-0.428364,-0.505258,-9.686354,0.250472,-0.495268,0.099814,0.013008,0.114997,42.998180,14.247569,7.050437,4635727706678362100.000000,-0.607932,-0.449053,-0.550803,0.354098,0
-9.607275,-0.374296,1.949244,0.532312,-0.074787,-0.026691,43.710433,-14.030585,7.011135,4635730176821428200.000000,-0.721177,0.160052,-0.646579,-0.190323,-9.646839,-0.649982,-0.532974,0.009693,-0.000182,-0.018783,43.537581,-15.712090,-3.360940,4635725988691443700.000000,-0.436071,0.609225,-0.428368,-0.505161,-9.713388,0.418987,-0.490910,0.115094,0.019418,0.125260,43.053988,14.119600,7.062859,4635727706678362100.000000,-0.607892,-0.449598,-0.550451,0.354022,0
-9.627556,-0.349977,2.010137,0.548699,-0.082243,-0.017435,43.576251,-14.136173,6.986579,4635730176821428200.000000,-0.721762,0.158395,-0.646758,-0.188876,-9.683457,-0.671407,-0.566605,0.018579,0.001954,-0.015943,43.651334,-15.626647,-3.377556,4635725988691443700.000000,-0.435952,0.609405,-0.428187,-0.505201,-9.802098,0.517505,-0.416585,0.132277,0.018388,0.137847,42.977920,14.015632,7.160506,4635727706678362100.000000,-0.607841,-0.450214,-0.550048,0.353955,0
-9.615348,-0.382563,1.916224,0.569706,-0.083686,-0.010320,43.572502,-14.107576,6.917512,4635730248687662100.000000,-0.722356,0.156654,-0.646950,-0.187396,-9.699822,-0.686598,-0.594002,0.035565,0.003204,-0.012375,43.746270,-15.541202,-3.320414,4635725988691443700.000000,-0.435932,0.609494,-0.428131,-0.505158,-9.839167,0.397424,-0.407636,0.165309,0.017834,0.147270,42.882439,13.989684,7.258158,4635727706678362100.000000,-0.607742,-0.450934,-0.549576,0.353941,0
-9.611310,-0.386465,1.733407,0.591427,-0.097939,-0.006762,43.731178,-14.026219,6.942061,4635730391569793000.000000,-0.722994,0.154826,-0.647115,-0.185876,-9.667357,-0.702965,-0.642835,0.055157,0.000989,-0.010863,43.739124,-15.491195,-3.360928,4635725988691443700.000000,-0.435961,0.609542,-0.428114,-0.505090,-9.745671,0.452302,-0.457550,0.193674,0.021133,0.156234,42.962189,13.989684,7.151826,4635727706678362100.000000,-0.607596,-0.451751,-0.549053,0.353962,0
-9.664345,-0.358180,1.709036,0.618493,-0.125016,-0.001411,43.783708,-14.030554,6.945807,4635730391569793000.000000,-0.723715,0.152879,-0.647219,-0.184316,-9.626578,-0.645191,-0.661281,0.066486,-0.003022,-0.010056,43.739124,-15.460816,-3.337063,4635725988691443700.000000,-0.436025,0.609558,-0.428117,-0.505012,-9.704885,0.670496,-0.535586,0.207505,0.017225,0.161385,43.117178,13.998183,7.024504,4635727706678362100.000000,-0.607439,-0.452608,-0.548490,0.354010,0
-9.819040,-0.431383,1.733533,0.648752,-0.157754,0.007838,43.678089,-14.054517,6.819856,4635730391569793000.000000,-0.724529,0.150792,-0.647249,-0.182724,-9.644740,-0.558564,-0.652054,0.065704,-0.003830,-0.014667,43.708757,-15.448319,-3.141772,4635725988691443700.000000,-0.436212,0.609485,-0.428243,-0.504831,-9.730381,0.778646,-0.519048,0.217118,0.016441,0.163102,43.156880,14.052883,6.858865,4635727706678362100.000000,-0.607268,-0.453491,-0.547907,0.354076,0
-9.961281,-0.484293,1.814939,0.675454,-0.153754,0.013182,43.731159,-13.757308,6.868883,4635730319755095000.000000,-0.725340,0.148608,-0.647310,-0.181070,-9.726029,-0.537126,-0.664262,0.063281,-0.006748,-0.021624,43.630448,-15.491195,-3.148924,4635725988691443700.000000,-0.436412,0.609423,-0.428341,-0.504650,-9.707519,0.759493,-0.466515,0.234908,0.014116,0.167144,43.153172,14.024153,6.799524,4635727706678362100.000000,-0.607074,-0.454425,-0.547283,0.354177,0
-10.055039,-0.549406,1.871777,0.705370,-0.121067,0.021373,43.836784,-13.513669,7.015285,4635730176821428200.000000,-0.726070,0.146331,-0.647494,-0.179335,-9.805522,-0.562434,-0.666346,0.071358,-0.011750,-0.025714,43.550060,-15.526626,-3.401400,4635726077734077400.000000,-0.436651,0.609343,-0.428437,-0.504460,-9.692678,0.719162,-0.468667,0.260731,0.007614,0.170998,43.161668,14.001891,6.935471,4635727631942941700.000000,-0.606850,-0.455423,-0.546596,0.354338,0
-10.233995,-0.598163,1.806549,0.741330,-0.156390,0.029915,43.759239,-13.672621,7.023155,4635730176821428200.000000,-0.726903,0.143897,-0.647596,-0.177552,-9.801657,-0.603223,-0.633897,0.085425,-0.011307,-0.031497,43.542610,-15.612071,-3.515732,4635726203439808500.000000,-0.436936,0.609248,-0.428548,-0.504232,-9.675687,0.691038,-0.459097,0.284784,0.001624,0.177919,43.165379,14.052866,7.122277,4635727599304179700.000000,-0.606605,-0.456487,-0.545844,0.354548,0
-10.286690,-0.606324,1.737602,0.776934,-0.221845,0.034538,43.576278,-13.863459,6.937956,4635730176821428200.000000,-0.727922,0.141295,-0.647522,-0.175729,-9.765923,-0.574945,-0.613345,0.092929,-0.014224,-0.039234,43.688791,-15.591248,-3.434759,4635726203439808500.000000,-0.436870,0.609480,-0.428176,-0.504326,-9.651273,0.709100,-0.443179,0.307214,-0.002230,0.184977,43.165379,14.024164,7.050525,4635727599304179700.000000,-0.606334,-0.457618,-0.545035,0.354798,0
-10.176766,-0.606258,1.823047,0.810036,-0.237477,0.033464,43.572432,-13.778014,7.027481,4635730176821428200.000000,-0.728994,0.138581,-0.647417,-0.173819,-9.801342,-0.535038,-0.624665,0.094700,-0.020555,-0.051061,43.789157,-15.455775,-3.279934,4635726203439808500.000000,-0.437124,0.609478,-0.428105,-0.504167,-9.677826,0.745719,-0.464949,0.325927,-0.005434,0.192872,43.216342,13.840501,6.799475,4635727599304179700.000000,-0.606046,-0.458808,-0.544174,0.355076,0
-10.030309,-0.573748,1.888100,0.838881,-0.226433,0.029551,43.731127,-13.721121,7.121060,4635730176821428200.000000,-0.730047,0.135795,-0.647357,-0.171812,-9.821018,-0.544274,-0.605311,0.097201,-0.024202,-0.067342,43.607583,-15.446217,-3.263229,4635726203439808500.000000,-0.437538,0.609398,-0.428127,-0.503887,-9.692678,0.782340,-0.467595,0.340787,-0.013098,0.202903,43.247117,13.710494,6.849972,4635727599304179700.000000,-0.605760,-0.460045,-0.543251,0.355376,0
-9.912323,-0.516643,1.920671,0.873062,-0.211126,0.026699,43.893890,-13.778226,7.116770,4635730176821428200.000000,-0.731070,0.132923,-0.647358,-0.169694,-9.752835,-0.542185,-0.613340,0.098529,-0.031130,-0.087713,43.522915,-15.498343,-3.279941,4635726203439808500.000000,-0.438010,0.609337,-0.428086,-0.503585,-9.667197,0.835950,-0.463881,0.347241,-0.016765,0.210612,43.301793,13.684499,6.968847,4635727599304179700.000000,-0.605480,-0.461310,-0.542292,0.355677,0
-9.822859,-0.357998,1.928723,0.907589,-0.203307,0.019934,43.950612,-13.863486,6.994842,4635730176821428200.000000,-0.732083,0.129969,-0.647394,-0.167459,-9.727211,-0.478511,-0.629726,0.095094,-0.036943,-0.111212,43.797408,-15.390020,-3.263224,4635726203439808500.000000,-0.438377,0.609444,-0.427780,-0.503396,-9.656056,0.939456,-0.480869,0.323690,-0.023036,0.217764,43.383531,13.692993,6.926892,4635727674013829100.000000,-0.605269,-0.462521,-0.541338,0.355919,0
-9.761799,-0.215563,1.875863,0.936069,-0.223632,0.012457,43.755245,-13.725034,7.023381,4635730176821428200.000000,-0.733161,0.126931,-0.647375,-0.165133,-9.761738,-0.292450,-0.622578,0.078737,-0.032334,-0.133382,43.882120,-15.247046,-3.320414,4635726203439808500.000000,-0.438785,0.609594,-0.427443,-0.503146,-9.690027,0.866187,-0.420354,0.294389,-0.026379,0.231185,43.350077,13.688214,6.769792,4635727706678362100.000000,-0.605140,-0.463682,-0.540391,0.356066,0
-9.680427,-0.122096,1.920727,0.960637,-0.264199,0.006764,43.674165,-13.509431,7.108829,4635730176821428200.000000,-0.734353,0.123801,-0.647236,-0.162740,-9.815630,-0.277131,-0.637753,0.062242,-0.027589,-0.155891,43.703716,-15.211638,-3.285004,4635726203439808500.000000,-0.439301,0.609727,-0.427159,-0.502774,-9.687901,0.308358,-0.280237,0.347196,-0.002182,0.244235,43.315582,13.692991,6.578195,4635727706678362100.000000,-0.604873,-0.465040,-0.539400,0.356251,0
-9.594962,-0.170942,2.067184,0.989835,-0.274512,0.004628,43.918294,-13.375200,7.161670,4635730176821428200.000000,-0.735577,0.120576,-0.647073,-0.160264,-9.805854,-0.482896,-0.623795,0.057940,-0.032380,-0.181525,43.719427,-15.126190,-3.194499,4635726203439808500.000000,-0.439869,0.609904,-0.426792,-0.502375,-9.773886,-0.118363,-0.486710,0.405804,0.007802,0.253755,43.371314,13.535353,6.459307,4635727706678362100.000000,-0.604482,-0.466580,-0.538327,0.356524,0
-9.489170,-0.219733,2.160729,1.022946,-0.274161,0.002135,43.999423,-13.318277,7.157614,4635730176821428200.000000,-0.736803,0.117254,-0.646921,-0.157688,-9.695995,-0.485686,-0.578805,0.053179,-0.041368,-0.208044,43.847770,-15.111542,-3.213158,4635726203439808500.000000,-0.440345,0.610246,-0.426147,-0.502091,-9.891174,0.335916,-0.572689,0.436871,0.006734,0.264528,43.346371,13.294940,6.569162,4635727781366163500.000000,-0.604047,-0.468219,-0.537181,0.356840,0
-9.387440,-0.203433,2.193275,1.051425,-0.281284,-0.001783,43.783810,-13.318277,7.198346,4635730176821428200.000000,-0.738051,0.113848,-0.646751,-0.155026,-9.621527,-0.287404,-0.636525,0.037157,-0.046114,-0.233603,43.897823,-15.161595,-3.360870,4635726203439808500.000000,-0.440883,0.610617,-0.425443,-0.501764,-9.848192,0.845487,-0.485114,0.450294,0.009381,0.276278,43.222172,13.110223,6.569177,4635727814052544500.000000,-0.603594,-0.469920,-0.535997,0.357150,0
-9.273509,-0.150534,2.225836,1.073853,-0.295886,-0.009262,43.731051,-13.318277,7.259331,4635730176821428200.000000,-0.739336,0.110382,-0.646534,-0.152286,-9.637561,-0.290147,-0.743420,0.027772,-0.044862,-0.253820,43.963548,-15.090814,-3.342236,4635726203439808500.000000,-0.441438,0.611041,-0.424672,-0.501413,-9.721348,0.930420,-0.536587,0.450666,0.003995,0.281341,43.279480,13.121360,6.339377,4635727814052544500.000000,-0.603158,-0.471623,-0.534786,0.357457,0
-9.159579,-0.040600,2.266519,1.088801,-0.322596,-0.022795,43.942722,-13.265309,7.186005,4635730176821428200.000000,-0.740693,0.106886,-0.646225,-0.149474,-9.700687,-0.536738,-0.727778,0.046788,-0.045747,-0.272677,44.021140,-14.924988,-3.194529,4635726203439808500.000000,-0.442087,0.611458,-0.423896,-0.500990,-9.612552,0.983474,-0.522809,0.463805,0.001811,0.279762,43.375014,13.198312,6.250190,4635727739377627100.000000,-0.602696,-0.473350,-0.533551,0.357800,0
-9.074143,0.142479,2.229816,1.093073,-0.364619,-0.038102,44.125657,-13.102538,7.019209,4635730176821428200.000000,-0.742158,0.103389,-0.645768,-0.146618,-9.663606,-0.602364,-0.634785,0.074144,-0.050094,-0.291828,43.900318,-14.796621,-3.177730,4635726203439808500.000000,-0.442957,0.611759,-0.423246,-0.500403,-9.574322,1.115087,-0.500504,0.466271,-0.002321,0.278787,43.456744,13.169681,6.377531,4635727706678362100.000000,-0.602234,-0.475072,-0.532301,0.358158,0
-8.972390,0.199360,2.164814,1.090574,-0.394853,-0.056264,43.938404,-12.988677,6.982665,4635730176821428200.000000,-0.743696,0.099926,-0.645193,-0.143724,-9.747446,-0.548485,-0.629732,0.088033,-0.065970,-0.315365,43.901215,-14.711175,-3.315804,4635726203439808500.000000,-0.443938,0.612042,-0.422535,-0.499787,-9.613046,1.142727,-0.483527,0.473557,-0.007244,0.278044,43.482769,13.037025,6.373883,4635727706678362100.000000,-0.601764,-0.476801,-0.531026,0.358542,0
-8.846295,0.065048,2.295033,1.083817,-0.379191,-0.088310,43.678089,-12.935734,7.084387,4635730176821428200.000000,-0.745191,0.096577,-0.644636,-0.140740,-9.871564,-0.457139,-0.592266,0.108583,-0.062355,-0.337167,44.145352,-14.625728,-3.430280,4635726203439808500.000000,-0.444861,0.612459,-0.421633,-0.499219,-9.741997,1.186222,-0.416666,0.467806,-0.017459,0.291088,43.533704,12.886810,6.212027,4635727706678362100.000000,-0.601346,-0.478527,-0.529705,0.358899,0
-8.858520,-0.069172,2.392651,1.093785,-0.393804,-0.119639,43.755459,-12.777044,7.072106,4635730176821428200.000000,-0.746730,0.093269,-0.644012,-0.137635,-9.672474,-0.514810,-0.721072,0.106668,-0.041252,-0.352930,44.217743,-14.540282,-3.309053,4635726203439808500.000000,-0.445819,0.612910,-0.420781,-0.498529,-9.646035,0.758650,-0.509474,0.469518,-0.014678,0.288775,43.666363,12.791258,6.152531,4635727706678362100.000000,-0.600911,-0.480253,-0.528390,0.359258,0
-8.907340,-0.154683,2.392651,1.096631,-0.438301,-0.142067,43.991462,-12.695714,6.901232,4635730176821428200.000000,-0.748385,0.089985,-0.643227,-0.134468,-9.972133,-0.652474,-0.716909,0.126479,-0.071599,-0.388508,44.082201,-14.353824,-3.101949,4635726203439808500.000000,-0.447058,0.613234,-0.419949,-0.497721,-9.497942,0.850095,-0.493645,0.510737,-0.008779,0.296334,43.774119,12.718023,6.016741,4635727706678362100.000000,-0.600389,-0.482106,-0.527011,0.359675,0
-8.956188,-0.419177,2.429300,1.107679,-0.437931,-0.163078,44.178610,-12.720096,6.868722,4635730176821428200.000000,-0.750035,0.086721,-0.642427,-0.131205,-10.088903,-0.346513,-0.381371,0.132497,-0.072570,-0.412305,44.092700,-14.059595,-3.132646,4635726203439808500.000000,-0.448362,0.613584,-0.419066,-0.496860,-9.732304,1.502751,-0.463881,0.498705,-0.028269,0.312356,43.740757,12.636294,5.897808,4635727706678362100.000000,-0.599955,-0.483931,-0.525565,0.360063,0
-9.078259,-0.439418,2.490306,1.147907,-0.408744,-0.194051,44.198927,-12.589873,6.897170,4635730176821428200.000000,-0.751619,0.083427,-0.641713,-0.127725,-9.408181,-0.211253,-0.594732,0.061704,-0.028694,-0.413631,44.249288,-13.845744,-3.327964,4635726203439808500.000000,-0.449179,0.614353,-0.417826,-0.496216,-9.511917,1.249724,-0.574205,0.432543,-0.015851,0.296448,43.663793,12.559329,5.939653,4635727706678362100.000000,-0.599601,-0.485573,-0.524279,0.360320,0
-9.200314,-0.040676,2.453687,1.178168,-0.414798,-0.222176,44.194876,-12.345744,6.726267,4635730176821428200.000000,-0.753225,0.080107,-0.640969,-0.124074,-9.315013,-0.996143,-0.790990,0.044264,-0.033918,-0.421695,44.344446,-13.674849,-3.482880,4635726203439808500.000000,-0.450098,0.615053,-0.416670,-0.495488,-9.142457,1.478871,-0.342559,0.396479,0.003243,0.279165,43.692379,12.587916,5.969420,4635727706678362100.000000,-0.599249,-0.487112,-0.523127,0.360500,0
-9.184029,0.227873,2.388572,1.184219,-0.443284,-0.241402,44.353578,-12.130077,6.526891,4635730176821428200.000000,-0.754897,0.076800,-0.640115,-0.120354,-9.694698,-1.698114,-0.506927,0.090487,-0.042252,-0.428255,44.301952,-13.544343,-3.580533,4635726203439808500.000000,-0.451272,0.615565,-0.415710,-0.494589,-9.537814,2.495457,-0.033064,0.330805,-0.014796,0.278552,43.714710,12.610248,5.969420,4635727706678362100.000000,-0.599067,-0.488458,-0.522028,0.360575,0
-9.066018,0.179026,2.278708,1.167484,-0.474616,-0.258138,44.516344,-11.967311,6.673418,4635730176821428200.000000,-0.756634,0.073572,-0.639131,-0.116632,-9.867801,-1.223899,-0.306844,0.097946,-0.016840,-0.423798,44.251839,-13.501388,-3.521683,4635726203439808500.000000,-0.452410,0.616107,-0.414824,-0.493618,-9.974431,2.372657,-0.070017,0.207859,-0.035709,0.276884,43.612842,12.448956,5.909997,4635727632010182700.000000,-0.599177,-0.489461,-0.521063,0.360428,0
-8.854462,0.052898,2.266497,1.140429,-0.482806,-0.285549,44.601791,-11.824912,6.982635,4635730176821428200.000000,-0.758377,0.070493,-0.638083,-0.112895,-9.728101,-0.748789,-0.459205,0.064169,0.005413,-0.413525,44.322517,-13.501388,-3.351987,4635726203439808500.000000,-0.453401,0.616738,-0.413935,-0.492667,-9.807924,1.201361,-0.071135,0.179677,-0.015332,0.277811,43.568222,12.157572,5.816050,4635727599304179700.000000,-0.599301,-0.490424,-0.520189,0.360175,0
-8.585887,0.097650,2.311279,1.110163,-0.425131,-0.314034,44.487861,-11.743528,6.884999,4635730176821428200.000000,-0.759951,0.067612,-0.637177,-0.109131,-9.550417,-1.286081,-0.548514,0.060175,0.010312,-0.393675,44.417694,-13.395406,-3.390249,4635726203439808500.000000,-0.454170,0.617485,-0.412894,-0.491894,-9.480444,0.535082,-0.099766,0.234141,0.029897,0.278044,43.780458,12.069404,5.650479,4635727599304179700.000000,-0.599214,-0.491591,-0.519344,0.359947,0
-8.463803,0.215648,2.107853,1.088446,-0.331847,-0.330412,44.373913,-11.584865,6.620507,4635730176821428200.000000,-0.761258,0.064884,-0.636536,-0.105346,-9.511681,-1.950937,-0.542991,0.089528,0.007519,-0.370916,44.405487,-13.073443,-3.454695,4635726203439808500.000000,-0.455133,0.617995,-0.412168,-0.490972,-9.412961,0.970579,-0.351287,0.236717,0.046348,0.274747,43.941322,11.962760,5.726821,4635727599304179700.000000,-0.599081,-0.492781,-0.518543,0.359698,0
-8.561391,0.349919,1.814873,1.052136,-0.281279,-0.336111,44.345446,-11.283758,6.449597,4635730176821428200.000000,-0.762407,0.062305,-0.636024,-0.101623,-9.517545,-2.243564,-0.626324,0.116899,-0.005298,-0.335197,44.428603,-12.729058,-3.379003,4635726203439808500.000000,-0.456114,0.618365,-0.411564,-0.490102,-9.492022,1.666904,-0.366790,0.197389,0.050712,0.274931,43.920137,11.863495,5.854216,4635727599304179700.000000,-0.599018,-0.493879,-0.517809,0.359354,0
-8.907264,0.492334,1.725289,0.998730,-0.298714,-0.331127,44.288460,-11.096544,6.347872,4635730176821428200.000000,-0.763569,0.059874,-0.635422,-0.098060,-9.581511,-2.389234,-0.683615,0.140982,-0.021648,-0.290407,44.471569,-12.621154,-3.352318,4635726203439808500.000000,-0.457093,0.618577,-0.411093,-0.489317,-9.606653,1.672511,-0.236233,0.156242,0.061994,0.280038,43.889336,11.892109,5.816065,4635727599304179700.000000,-0.599022,-0.494901,-0.517154,0.358884,0
-9.212462,0.610360,1.843287,0.939631,-0.348562,-0.322228,44.369774,-10.990780,6.368117,4635730176821428200.000000,-0.764830,0.057585,-0.634627,-0.094694,-9.560987,-2.403221,-0.607913,0.170194,-0.035506,-0.241240,44.506897,-12.666238,-3.502230,4635726203439808500.000000,-0.458071,0.618619,-0.410781,-0.488611,-9.652337,0.789100,-0.059512,0.218469,0.104102,0.275307,44.004446,11.804083,5.913628,4635727599304179700.000000,-0.598799,-0.496130,-0.516519,0.358473,0
-9.399636,0.622594,1.924690,0.876978,-0.367805,-0.305500,44.613883,-10.876797,6.555376,4635730176821428200.000000,-0.766107,0.055442,-0.633739,-0.091551,-9.390091,-2.382075,-0.475273,0.187624,-0.039151,-0.181426,44.587300,-12.628801,-3.517031,4635726203439808500.000000,-0.458977,0.618518,-0.410650,-0.487997,-9.664543,0.541309,-0.339475,0.299284,0.136295,0.266437,44.056519,11.653887,5.969420,4635727599304179700.000000,-0.598325,-0.497588,-0.515861,0.358191,0
-9.542062,0.569716,1.859702,0.814667,-0.357830,-0.278447,44.772693,-10.876797,6.396889,4635730176821428200.000000,-0.767319,0.053430,-0.632856,-0.088657,-9.304970,-2.549548,-0.409195,0.195428,-0.050046,-0.127353,44.529362,-12.550516,-3.386178,4635726159062431700.000000,-0.459811,0.618287,-0.410654,-0.487502,-9.888911,1.451572,-0.522242,0.320444,0.128281,0.260862,44.056519,11.609241,5.774232,4635727599304179700.000000,-0.597814,-0.499074,-0.515161,0.357984,0
-9.696654,0.492395,1.717145,0.760898,-0.362807,-0.239998,44.736106,-10.799594,5.977705,4635730176821428200.000000,-0.768508,0.051487,-0.631936,-0.086031,-9.366818,-2.620040,-0.361177,0.203831,-0.070782,-0.086279,44.355848,-12.571015,-3.311946,4635726096065626100.000000,-0.460619,0.617927,-0.410740,-0.487123,-9.892305,2.043271,-0.528639,0.282574,0.119541,0.253619,44.048032,11.549835,5.561353,4635727599304179700.000000,-0.597388,-0.500435,-0.514510,0.357731,0
-9.900090,0.480113,1.875687,0.718528,-0.377405,-0.202606,44.679096,-10.535160,5.835044,4635730176821428200.000000,-0.769703,0.049573,-0.630955,-0.083637,-9.444292,-2.345346,-0.338882,0.186547,-0.080667,-0.050778,44.383490,-12.736858,-3.404552,4635726096065626100.000000,-0.461327,0.617518,-0.410863,-0.486867,-9.664695,1.975073,-0.550375,0.239982,0.120049,0.242848,44.103710,11.472876,5.632820,4635727599304179700.000000,-0.597033,-0.501667,-0.513944,0.357412,0
-10.095452,0.549316,2.176893,0.677583,-0.388092,-0.176257,44.679096,-10.286813,5.953150,4635730176821428200.000000,-0.770900,0.047714,-0.629925,-0.081434,-9.518332,-1.951306,-0.317392,0.135953,-0.073377,-0.015602,44.514034,-12.829981,-3.495039,4635726096065626100.000000,-0.461821,0.617161,-0.410988,-0.486746,-9.548872,1.870415,-0.510631,0.229326,0.119958,0.228129,44.248553,11.348724,5.815924,4635727599304179700.000000,-0.596677,-0.502840,-0.513424,0.357106,0
-10.205367,0.589995,2.343756,0.636637,-0.379924,-0.151335,44.731899,-10.229804,5.945005,4635730176821428200.000000,-0.772051,0.045923,-0.628905,-0.079417,-9.693749,-1.914187,-0.342606,0.106769,-0.078068,0.010705,44.587278,-12.729129,-3.476715,4635726096065626100.000000,-0.461838,0.617107,-0.410660,-0.487077,-9.678226,1.906435,-0.522236,0.215546,0.116663,0.212106,44.249756,11.244661,5.812366,4635727599304179700.000000,-0.596332,-0.503938,-0.512949,0.356816,0
-10.266351,0.581969,2.392701,0.607432,-0.356053,-0.129259,44.919008,-10.201378,5.940945,4635730212539804700.000000,-0.773119,0.044175,-0.627951,-0.077544,-9.866497,-1.949783,-0.338102,0.115174,-0.087450,0.031067,44.665553,-12.585833,-3.328916,4635726096065626100.000000,-0.462108,0.616765,-0.410709,-0.487212,-9.758476,1.801510,-0.537126,0.203418,0.115360,0.197570,44.117130,11.218604,5.726921,4635727599304179700.000000,-0.595993,-0.504973,-0.512518,0.356540,0
-10.380283,0.476136,2.380373,0.593894,-0.360662,-0.110387,45.106308,-10.119984,5.867817,4635730284195610600.000000,-0.774183,0.042418,-0.626977,-0.075767,-9.893037,-1.306555,-0.316056,0.097462,-0.073240,0.054125,44.685473,-12.616078,-3.271584,4635726184743067600.000000,-0.462264,0.616444,-0.410812,-0.487383,-9.604736,1.694758,-0.528642,0.215658,0.126495,0.185912,44.068726,11.269505,5.760242,4635727673923631100.000000,-0.595586,-0.506028,-0.512120,0.356294,0
-10.465806,0.423198,2.510547,0.585709,-0.381321,-0.100046,45.102388,-10.042679,5.676560,4635730284195610600.000000,-0.775290,0.040653,-0.625930,-0.074048,-10.061512,-0.869884,-0.451917,0.064764,-0.068569,0.065088,44.541657,-12.694364,-3.352238,4635726310813990900.000000,-0.462403,0.616095,-0.411008,-0.487527,-9.610334,1.943887,-0.550369,0.211040,0.127671,0.175230,44.128111,11.190046,5.854177,4635727706678362100.000000,-0.595170,-0.507051,-0.511753,0.356062,0
-10.421181,0.386636,2.583998,0.571830,-0.375311,-0.105031,44.939656,-9.961300,5.521894,4635730284195610600.000000,-0.776374,0.038947,-0.624893,-0.072349,-10.169875,-1.033376,-0.568708,0.072930,-0.077093,0.064158,44.398327,-12.779811,-3.542507,4635726310813990900.000000,-0.462580,0.615714,-0.411202,-0.487677,-9.805016,2.164841,-0.553058,0.172753,0.115650,0.158612,44.154179,11.035087,5.883968,4635727706678362100.000000,-0.594835,-0.507925,-0.511448,0.355815,0
-10.213772,0.309303,2.465983,0.551895,-0.320151,-0.110724,44.878356,-9.940827,5.391759,4635730284195610600.000000,-0.777307,0.037337,-0.624023,-0.070675,-9.811427,-1.122510,-0.541385,0.109801,-0.073193,0.071702,44.463831,-12.829981,-3.609703,4635726310813990900.000000,-0.462829,0.615257,-0.411498,-0.487768,-9.901236,1.997489,-0.447549,0.144727,0.107376,0.141612,44.103285,11.037555,6.019681,4635727632071795700.000000,-0.594552,-0.508680,-0.511199,0.355567,0
-9.977600,0.256386,2.368298,0.525911,-0.264909,-0.122111,45.089811,-9.969452,5.228920,4635730284195610600.000000,-0.778090,0.035857,-0.623319,-0.069025,-9.551227,-1.349596,-0.477445,0.142030,-0.069430,0.080179,44.627553,-12.829981,-3.552354,4635726310813990900.000000,-0.462985,0.614859,-0.411696,-0.487955,-9.776699,1.887391,-0.428290,0.156672,0.108715,0.129301,44.080933,11.110800,6.138661,4635727599304179700.000000,-0.594221,-0.509440,-0.510962,0.355373,0
-9.884003,0.272525,2.323465,0.497422,-0.263108,-0.139200,45.248915,-9.778485,5.188082,4635730284195610600.000000,-0.778864,0.034513,-0.622606,-0.067391,-9.568471,-1.625900,-0.412147,0.176531,-0.065903,0.093894,44.657402,-12.794719,-3.552354,4635726310813990900.000000,-0.463245,0.614336,-0.412068,-0.488052,-9.640764,2.083485,-0.541239,0.152621,0.102598,0.113426,44.080933,11.082265,6.105372,4635727599304179700.000000,-0.593888,-0.510147,-0.510749,0.355221,0
-9.753900,0.423016,2.396556,0.465753,-0.259237,-0.157002,45.090212,-9.452743,5.236976,4635730284195610600.000000,-0.779624,0.033314,-0.621892,-0.065778,-9.562663,-1.788859,-0.360414,0.215170,-0.065292,0.116444,44.491540,-12.744529,-3.552354,4635726310813990900.000000,-0.463659,0.613614,-0.412707,-0.488028,-9.624188,2.274685,-0.585955,0.115496,0.091175,0.091558,44.131817,11.059907,6.011442,4635727599304179700.000000,-0.593626,-0.510698,-0.510608,0.355070,0
-9.530126,0.634583,2.591859,0.415560,-0.215813,-0.174096,45.008628,-9.423879,5.208571,4635730284195610600.000000,-0.780266,0.032335,-0.621299,-0.064234,-9.503758,-1.736762,-0.337542,0.247266,-0.079059,0.131517,44.368102,-12.815052,-3.552354,4635726266506357800.000000,-0.464147,0.612776,-0.413422,-0.488012,-9.631641,2.285484,-0.543552,0.077728,0.083136,0.072511,44.103294,11.110791,6.108836,4635727599304179700.000000,-0.593433,-0.511104,-0.510544,0.354901,0
-9.330654,0.805618,2.718193,0.356826,-0.177325,-0.189754,45.004780,-9.619364,5.183983,4635730284195610600.000000,-0.780802,0.031601,-0.620812,-0.062790,-9.425486,-1.328761,-0.411545,0.253324,-0.094131,0.140435,44.390547,-12.980899,-3.512067,4635726203439808500.000000,-0.464658,0.611879,-0.414143,-0.488040,-9.665563,2.024640,-0.592763,0.132594,0.103441,0.052452,44.140298,11.192516,6.300428,4635727599304179700.000000,-0.593050,-0.511632,-0.510491,0.354856,0
-9.208549,0.862632,2.665417,0.293795,-0.187226,-0.206501,44.898830,-9.587125,5.245126,4635730284195610600.000000,-0.781356,0.031113,-0.620272,-0.061457,-9.425642,-0.993072,-0.466017,0.231267,-0.102609,0.145962,44.519026,-13.074129,-3.414410,4635726203439808500.000000,-0.464972,0.611119,-0.414637,-0.488274,-9.587207,1.424807,-0.851498,0.357145,0.220795,0.046672,44.166386,11.108382,6.292229,4635727599304179700.000000,-0.591929,-0.512876,-0.510408,0.355052,0
-9.082491,0.878933,2.535193,0.235415,-0.248805,-0.212203,44.951570,-9.318635,5.103097,4635730284195610600.000000,-0.782062,0.030811,-0.619515,-0.060263,-9.512468,-1.034887,-0.466782,0.204055,-0.111034,0.144507,44.569229,-13.109380,-3.472861,4635726203439808500.000000,-0.465280,0.610357,-0.415112,-0.488529,-9.478368,0.979636,-0.833490,0.567903,0.352670,0.044773,44.166386,11.009041,6.203054,4635727599304179700.000000,-0.590072,-0.514827,-0.510339,0.355418,0
-8.887244,0.822163,2.591557,0.159975,-0.313980,-0.210436,45.106185,-9.078338,4.740867,4635730284195610600.000000,-0.782924,0.030732,-0.618525,-0.059275,-9.493707,-1.115151,-0.488296,0.180131,-0.124291,0.137097,44.503782,-13.194822,-3.758632,4635726203439808500.000000,-0.465558,0.609632,-0.415486,-0.488851,-9.804548,1.251905,-0.628694,0.583420,0.328312,0.050469,44.157909,11.096859,6.168469,4635727599304179700.000000,-0.588237,-0.516789,-0.510172,0.355852,0
-8.687786,0.586380,2.982279,0.065269,-0.356724,-0.194436,45.179685,-8.996941,4.549306,4635730284195610600.000000,-0.783877,0.030909,-0.617372,-0.058589,-9.360811,-1.131766,-0.432920,0.172412,-0.129367,0.138992,44.380328,-13.245032,-3.890511,4635726203439808500.000000,-0.465925,0.608820,-0.415969,-0.489103,-10.071431,1.441487,-0.586969,0.590593,0.282676,0.059341,44.213510,11.086026,6.164739,4635727599304179700.000000,-0.586493,-0.518717,-0.509858,0.356376,0
-8.545314,0.228282,3.170002,-0.031570,-0.394089,-0.165598,45.155098,-8.972353,4.545208,4635730319858165800.000000,-0.784905,0.031319,-0.616076,-0.058252,-9.303556,-1.261773,-0.303671,0.173480,-0.125414,0.147471,44.302048,-13.245032,-3.717333,4635726203439808500.000000,-0.466270,0.607999,-0.416482,-0.489360,-9.975842,0.783062,-0.649020,0.671084,0.269322,0.082719,44.248106,10.898860,6.173215,4635727599304179700.000000,-0.584633,-0.520866,-0.509338,0.357040,0
-8.524634,-0.105391,3.108741,-0.122739,-0.468043,-0.130021,45.256709,-8.996950,4.456077,4635730391569793000.000000,-0.786100,0.031918,-0.614518,-0.058276,-9.480991,-1.264418,-0.186639,0.167942,-0.129124,0.149728,44.287073,-13.280267,-3.512086,4635726203439808500.000000,-0.466603,0.607175,-0.416982,-0.489639,-9.827660,0.801877,-0.603606,0.661728,0.234408,0.116333,44.192512,10.878817,6.304073,4635727599304179700.000000,-0.582913,-0.523008,-0.508668,0.357675,0
-8.622526,-0.418742,3.331940,-0.189007,-0.563229,-0.070242,45.362709,-8.948027,4.130656,4635730391569793000.000000,-0.787511,0.032556,-0.612637,-0.058678,-9.697078,-1.044684,-0.142208,0.150345,-0.135280,0.141426,44.437959,-13.395921,-3.489930,4635726203439808500.000000,-0.466781,0.606504,-0.417243,-0.490077,-9.832716,1.829922,-0.548321,0.497251,0.201498,0.161966,44.166386,11.121580,6.554999,4635727599304179700.000000,-0.581686,-0.524794,-0.508061,0.357920,0
-8.545373,-0.646916,3.775915,-0.224649,-0.566888,0.013083,45.334315,-8.923688,3.837295,4635730391569793000.000000,-0.788901,0.033097,-0.610742,-0.059445,-9.785304,-0.840052,-0.211172,0.131185,-0.138672,0.119490,44.516000,-13.489181,-3.620684,4635726203439808500.000000,-0.467004,0.605865,-0.417455,-0.490475,-9.834424,2.306499,-0.511700,0.327296,0.200751,0.213650,44.064684,11.210129,6.640827,4635727599304179700.000000,-0.580906,-0.526275,-0.507590,0.357681,0
-8.455583,-0.638991,3.849596,-0.234640,-0.520211,0.101757,45.277260,-8.903198,3.743672,4635730391569793000.000000,-0.790144,0.033455,-0.609008,-0.060521,-9.702636,-0.646884,-0.198102,0.112080,-0.136845,0.088890,44.286851,-13.494213,-3.815993,4635726203439808500.000000,-0.467332,0.605239,-0.417671,-0.490751,-9.860855,2.369243,-0.585241,0.160067,0.225518,0.265241,44.070738,10.994553,6.513722,4635727599304179700.000000,-0.580516,-0.527495,-0.507313,0.356908,0
-8.537005,-0.464028,3.682576,-0.226460,-0.530798,0.188998,45.273201,-8.960234,3.593270,4635730391569793000.000000,-0.791388,0.033560,-0.607249,-0.061864,-9.630244,-0.444405,-0.052370,0.074053,-0.131570,0.043011,44.128365,-13.602030,-3.850270,4635726203439808500.000000,-0.467649,0.604778,-0.417704,-0.490991,-10.435024,3.219296,-0.715783,-0.157127,0.290598,0.352840,44.211767,10.740219,6.525502,4635727599304179700.000000,-0.580814,-0.528229,-0.507472,0.355108,0
-8.524950,-0.398632,3.751547,-0.206887,-0.647510,0.262003,45.265053,-8.988646,3.340923,4635730391569793000.000000,-0.792905,0.033385,-0.605116,-0.063415,-9.806258,-0.128340,-0.083391,0.020590,-0.136478,-0.027238,44.284254,-13.775725,-3.730434,4635726203439808500.000000,-0.467863,0.604634,-0.417293,-0.491313,-11.266132,4.368516,-0.816172,-0.647116,0.377382,0.436432,44.162364,10.559118,6.818046,4635727599304179700.000000,-0.582126,-0.528077,-0.508377,0.351876,0
-8.333868,-0.597927,3.922601,-0.186932,-0.796741,0.310804,45.265053,-9.098438,3.182142,4635730391569793000.000000,-0.794779,0.032979,-0.602496,-0.065096,-10.071166,0.219057,-0.285124,-0.015211,-0.132945,-0.102310,44.364528,-13.718180,-3.849009,4635726203439808500.000000,-0.468161,0.604675,-0.416658,-0.491517,-10.888371,4.644280,-0.206893,-1.043826,0.430774,0.434099,44.134500,10.349601,7.204917,4635727599304179700.000000,-0.584182,-0.527027,-0.509989,0.347685,0
-8.044915,-0.959788,3.963315,-0.175197,-0.871242,0.328637,45.265053,-9.289598,2.970895,4635730391569793000.000000,-0.796824,0.032469,-0.599627,-0.066818,-10.243474,0.280039,-0.438779,-0.025572,-0.106559,-0.175696,44.259017,-13.438845,-4.108910,4635726203439808500.000000,-0.468631,0.604838,-0.415984,-0.491440,-9.701752,4.504265,1.157633,-1.237300,0.493362,0.400748,44.252104,10.066839,7.324442,4635727599304179700.000000,-0.586464,-0.525511,-0.512093,0.343016,0
-7.703363,-1.472652,3.922810,-0.159867,-0.912813,0.314069,45.289397,-9.517541,2.507032,4635730391569793000.000000,-0.798966,0.031932,-0.596612,-0.068460,-10.269993,0.158652,-0.514860,-0.017150,-0.093117,-0.252098,44.317217,-13.209828,-4.143295,4635726203439808500.000000,-0.469255,0.605144,-0.415160,-0.491165,-9.335928,4.167661,1.949248,-1.288624,0.546308,0.382788,44.368442,9.812484,7.451519,4635727599304179700.000000,-0.588698,-0.523888,-0.514420,0.338153,0
-7.231258,-1.757790,3.812766,-0.171222,-1.017118,0.272079,45.362634,-9.631641,2.071583,4635730391569793000.000000,-0.801363,0.031506,-0.593232,-0.070004,-10.089732,-0.129320,-0.420047,-0.005653,-0.091421,-0.321649,44.480933,-13.229981,-3.988214,4635726203439808500.000000,-0.469926,0.605652,-0.414038,-0.490844,-9.232280,3.549346,1.943463,-1.231267,0.587134,0.365851,44.296678,9.682213,7.778618,4635727599304179700.000000,-0.590675,-0.522409,-0.516786,0.333353,0
-6.824378,-1.871607,3.902056,-0.191211,-1.056856,0.222213,45.383142,-9.716837,1.758049,4635730391569793000.000000,-0.803854,0.031257,-0.589694,-0.071436,-9.798941,-0.567306,-0.209670,0.013636,-0.085514,-0.382839,44.546246,-13.295295,-3.971000,4635726203439808500.000000,-0.470789,0.606213,-0.412846,-0.490328,-9.188438,3.315680,1.481835,-1.174156,0.622948,0.369601,44.107842,9.486650,8.237003,4635727599304179700.000000,-0.592434,-0.521111,-0.519136,0.328577,0
-6.360570,-2.034470,4.032610,-0.173424,-0.916689,0.178435,45.273348,-9.940737,1.546540,4635730391569793000.000000,-0.806000,0.031097,-0.586615,-0.072661,-9.523935,-0.975148,-0.033035,0.059500,-0.078415,-0.433981,44.460801,-13.109324,-4.028443,4635726203439808500.000000,-0.471852,0.606791,-0.411623,-0.489619,-9.107472,3.079508,0.637037,-1.167006,0.660834,0.390898,44.112075,9.250972,8.649066,4635727599304179700.000000,-0.594105,-0.519912,-0.521506,0.323671,0
-5.965535,-2.119948,3.784932,-0.147785,-0.732174,0.128936,45.163338,-9.998033,1.172590,4635730391569793000.000000,-0.807703,0.031026,-0.584150,-0.073634,-9.372416,-0.951496,-0.091175,0.115671,-0.083001,-0.483238,44.370329,-12.779741,-4.073674,4635726203439808500.000000,-0.473263,0.607247,-0.410501,-0.488633,-8.688936,2.724497,-0.556047,-1.241514,0.761872,0.400643,44.260555,8.908917,8.959733,4635727599304179700.000000,-0.595708,-0.518666,-0.524187,0.318348,0
-5.904158,-2.128271,3.243709,-0.128196,-0.670383,0.092253,45.179515,-9.900204,0.655570,4635730391569793000.000000,-0.809262,0.030995,-0.581890,-0.074426,-9.360921,-0.395045,-0.457346,0.126236,-0.094812,-0.541416,44.312874,-12.480313,-4.178508,4635726203439808500.000000,-0.474836,0.607755,-0.409229,-0.487541,-8.639338,2.807178,-1.960025,-1.491846,0.831494,0.383097,44.219712,8.569129,9.316704,4635727599304179700.000000,-0.597648,-0.516831,-0.527386,0.312357,0
-6.074925,-1.977907,2.897209,-0.116077,-0.731581,0.053828,45.281137,-9.928585,0.337973,4635730391569793000.000000,-0.810975,0.030997,-0.579416,-0.075067,-9.500920,-0.115584,-1.041149,0.086461,-0.114603,-0.608648,44.343027,-12.294300,-4.235969,4635726203439808500.000000,-0.476477,0.608413,-0.407663,-0.486431,-9.318367,3.325066,-2.049166,-1.895120,0.823415,0.368251,44.085435,8.311029,9.766609,4635727599304179700.000000,-0.600416,-0.513914,-0.531088,0.305513,0
-6.298786,-1.766161,2.954004,-0.113224,-0.808861,0.012484,45.415501,-9.961335,0.118349,4635730391569793000.000000,-0.812880,0.031063,-0.576672,-0.075571,-9.856347,-0.562172,-1.635739,0.088334,-0.150100,-0.675942,44.516770,-12.143525,-4.200794,4635726203439808500.000000,-0.478315,0.609104,-0.405857,-0.485270,-10.348657,3.337907,-0.901410,-2.316550,0.773177,0.368270,44.061247,8.129915,10.310400,4635727599304179700.000000,-0.604141,-0.509834,-0.535154,0.297815,0
-6.408933,-1.656247,3.027530,-0.111805,-0.904875,-0.000705,45.468523,-9.912412,-0.190749,4635730391569793000.000000,-0.815009,0.031124,-0.573594,-0.076038,-10.127823,-1.049781,-1.769427,0.164281,-0.194644,-0.720678,44.798953,-11.859225,-4.110331,4635726203439808500.000000,-0.480374,0.609735,-0.403829,-0.484134,-11.621359,3.039224,1.542891,-2.583625,0.639601,0.429592,44.017920,7.911953,10.689377,4635727599304179700.000000,-0.608736,-0.504993,-0.539022,0.289617,0
-6.368260,-1.538375,3.023190,-0.114980,-1.037066,-0.017040,45.431999,-9.940783,-0.573265,4635730320270449700.000000,-0.817445,0.031191,-0.570054,-0.076475,-10.136467,-1.171911,-1.475748,0.251936,-0.226253,-0.745373,44.900288,-11.522441,-4.057881,4635726203439808500.000000,-0.482802,0.610121,-0.401909,-0.482828,-12.171978,3.500832,3.758654,-2.639134,0.523351,0.542043,43.902338,7.515392,10.914615,4635727599304179700.000000,-0.613765,-0.500059,-0.542358,0.281215,0
-6.193821,-1.339070,3.145304,-0.134555,-1.083488,-0.042726,45.346555,-9.945187,-0.915145,4635730176821428200.000000,-0.819982,0.031369,-0.566336,-0.076877,-10.007264,-1.257307,-1.126055,0.330289,-0.246548,-0.771822,44.814836,-11.228004,-4.105252,4635726203439808500.000000,-0.485597,0.610274,-0.400140,-0.481299,-12.460410,2.841770,4.743755,-2.514696,0.387876,0.686681,43.937396,6.882222,11.245380,4635727673772954600.000000,-0.618932,-0.495549,-0.544832,0.272970,0
-5.746302,-1.090921,3.080882,-0.162305,-1.052907,-0.046981,45.261102,-9.786490,-1.272955,4635730176821428200.000000,-0.822427,0.031658,-0.562701,-0.077322,-9.717906,-1.515066,-0.752649,0.415797,-0.269041,-0.810587,44.859991,-10.978833,-4.202911,4635726203439808500.000000,-0.488717,0.610265,-0.398394,-0.479599,-12.527558,2.263717,5.478268,-2.207700,0.248154,0.848623,44.047250,6.343575,11.635970,4635727706678362100.000000,-0.623897,-0.491986,-0.546203,0.265262,0
-5.391726,-0.826368,2.738879,-0.199693,-0.992429,-0.059443,45.147292,-9.684522,-1.757181,4635730176821428200.000000,-0.824714,0.032121,-0.559250,-0.077803,-9.409113,-1.774332,-0.391467,0.477334,-0.290280,-0.855697,45.096941,-10.722490,-4.340747,4635726203439808500.000000,-0.492005,0.610239,-0.396470,-0.477860,-12.216296,2.269780,6.131615,-1.808303,0.132407,1.004564,44.089398,5.930465,11.823453,4635727706678362100.000000,-0.628425,-0.489645,-0.546466,0.258272,0
-5.375141,-0.651154,2.721583,-0.229268,-0.910184,-0.062331,44.948049,-9.530655,-2.176523,4635730176821428200.000000,-0.826794,0.032716,-0.556063,-0.078330,-9.521533,-1.867733,-0.338788,0.490523,-0.303036,-0.895662,45.170330,-10.436022,-4.495877,4635726203439808500.000000,-0.495438,0.610200,-0.394461,-0.476023,-11.772165,2.357983,6.709031,-1.389472,0.045275,1.156221,44.101603,5.429848,11.929564,4635727706678362100.000000,-0.632418,-0.488621,-0.545705,0.251999,0
-5.481013,-0.606320,2.954470,-0.247781,-0.871895,-0.037453,44.590429,-8.961347,-2.420949,4635730212449606700.000000,-0.828777,0.033220,-0.553003,-0.078817,-10.144080,-1.817520,-0.521371,0.576910,-0.341647,-0.930401,45.029562,-10.141587,-4.558383,4635726203439808500.000000,-0.499299,0.609878,-0.392558,-0.473970,-11.650582,2.278888,7.071161,-0.981241,-0.034175,1.293817,44.232293,4.779000,12.098663,4635727632239306800.000000,-0.635872,-0.488878,-0.543998,0.246439,0
-5.542104,-0.598163,2.649863,-0.272677,-0.916760,-0.005351,43.996509,-8.528639,-2.619970,4635730284195610600.000000,-0.830838,0.033720,-0.549777,-0.079477,-9.903036,-1.032680,-0.483965,0.627630,-0.396275,-0.964150,45.002199,-9.827150,-4.686072,4635726203439808500.000000,-0.503433,0.609382,-0.390547,-0.471891,-11.725774,1.971602,7.136612,-0.601505,-0.108362,1.420757,44.415404,4.083178,12.226278,4635727599304179700.000000,-0.638822,-0.490330,-0.541423,0.241544,0
-5.582772,-0.666998,2.343521,-0.307928,-0.932202,-0.000005,43.475033,-8.699529,-3.075184,4635730284195610600.000000,-0.832915,0.034324,-0.546477,-0.080237,-8.777426,0.223762,-0.522752,0.442716,-0.397300,-0.997563,45.105566,-9.341821,-4.979042,4635726203439808500.000000,-0.507153,0.609312,-0.388075,-0.470034,-11.527256,1.897835,7.027580,-0.271940,-0.180663,1.536834,44.471569,3.548191,12.070069,4635727599304179700.000000,-0.641353,-0.492829,-0.538063,0.237221,0
-5.574914,-0.935260,2.680498,-0.315531,-0.891972,0.002136,43.388800,-8.651781,-3.746532,4635730284195610600.000000,-0.834848,0.035204,-0.543291,-0.081386,-9.113632,0.034492,-0.366462,0.243541,-0.401912,-1.060309,45.257060,-8.826193,-5.116388,4635726203439808500.000000,-0.510486,0.609741,-0.385035,-0.468368,-11.036852,2.212752,6.855697,-0.025928,-0.242934,1.625300,44.480031,3.135064,11.919970,4635727599304179700.000000,-0.643577,-0.496099,-0.534089,0.233331,0
-5.509526,-1.163937,3.185763,-0.278116,-0.826581,-0.005657,43.592391,-8.301157,-4.276332,4635730284195610600.000000,-0.836652,0.035846,-0.540346,-0.082190,-10.360915,-0.835705,-0.006605,0.155598,-0.435795,-1.143002,45.410746,-8.481397,-4.990767,4635726203439808500.000000,-0.513799,0.610407,-0.381531,-0.466741,-10.576881,2.563833,6.579512,0.114632,-0.296909,1.674395,44.610707,2.473662,11.966168,4635727599304179700.000000,-0.645647,-0.499779,-0.529706,0.229722,0
-5.534065,-1.171533,3.049252,-0.266301,-0.719029,-0.017467,43.799596,-8.466756,-4.366391,4635730284195610600.000000,-0.838224,0.036414,-0.537778,-0.082761,-10.464943,-0.724920,0.078380,0.092660,-0.448243,-1.218846,45.461853,-8.131846,-4.963278,4635726203439808500.000000,-0.517105,0.611288,-0.377675,-0.465070,-10.381853,2.923490,6.202934,0.122234,-0.358125,1.696642,44.726114,1.861692,11.940654,4635727599304179700.000000,-0.647825,-0.503445,-0.525077,0.226185,0
-5.452968,-1.366983,2.267574,-0.280187,-0.651941,-0.007488,44.291155,-9.117822,-4.341479,4635730284195610600.000000,-0.839633,0.037030,-0.535436,-0.083387,-9.848916,-0.741150,-0.041641,0.030370,-0.451637,-1.274337,45.436635,-7.596245,-5.203753,4635726203439808500.000000,-0.520350,0.612366,-0.373538,-0.463372,-10.402644,2.980416,5.842377,0.057042,-0.421805,1.708963,44.701575,1.265314,11.660593,4635727599304179700.000000,-0.650257,-0.506875,-0.520285,0.222594,0
-5.205046,-1.464888,1.895937,-0.293010,-0.654021,-0.000371,45.023984,-9.639349,-4.516417,4635730284195610600.000000,-0.841003,0.037875,-0.533065,-0.084382,-9.360359,-1.757214,0.116794,0.028058,-0.463874,-1.314238,45.502690,-7.045422,-5.463767,4635726203439808500.000000,-0.523668,0.613466,-0.369256,-0.461608,-10.568951,3.038797,5.644414,-0.041657,-0.493706,1.704098,44.687556,0.583541,11.362072,4635727599304179700.000000,-0.653013,-0.509932,-0.515371,0.218943,0
-4.834857,-1.440605,2.099146,-0.299795,-0.635733,0.010299,45.318391,-9.830875,-4.699521,4635730284195610600.000000,-0.842335,0.038633,-0.530759,-0.085281,-9.066041,-2.313035,0.248630,0.059306,-0.507262,-1.354256,45.475566,-6.580071,-5.779516,4635726203439808500.000000,-0.527191,0.614455,-0.364824,-0.459802,-10.691862,3.253906,5.687789,-0.193937,-0.563614,1.684948,44.809729,-0.048272,11.220427,4635727599304179700.000000,-0.656190,-0.512443,-0.510418,0.215152,0
-4.480599,-1.306674,2.266668,-0.295895,-0.482571,0.028438,45.070216,-9.835396,-4.951402,4635730284195610600.000000,-0.843317,0.039390,-0.528992,-0.086211,-8.474059,-1.902804,-0.163248,0.063591,-0.564453,-1.394096,45.440146,-6.235293,-6.147359,4635726203439808500.000000,-0.530869,0.615362,-0.360159,-0.458032,-10.718101,3.163449,5.826775,-0.387366,-0.642007,1.660297,44.921417,-0.612578,11.067310,4635727599304179700.000000,-0.659888,-0.514272,-0.505449,0.211173,0
-4.382027,-1.030113,2.108410,-0.294423,-0.246771,0.064330,44.898830,-9.705029,-5.305601,4635730284195610600.000000,-0.843763,0.040146,-0.528057,-0.087224,-7.413061,-1.769411,-0.732783,0.065962,-0.590935,-1.401936,45.659035,-5.915905,-6.267415,4635726203439808500.000000,-0.534588,0.616200,-0.355405,-0.456291,-10.844979,3.029263,5.897137,-0.601416,-0.732724,1.628000,44.896908,-1.263414,10.630440,4635727599304179700.000000,-0.664167,-0.515334,-0.500457,0.207013,0
-4.670477,-0.712759,1.880092,-0.307607,-0.086346,0.126609,44.898830,-9.684362,-5.493331,4635730284195610600.000000,-0.843829,0.040870,-0.527691,-0.088457,-6.660227,-3.035753,-1.228876,0.124799,-0.622225,-1.369399,45.833783,-5.393405,-6.394974,4635726203439808500.000000,-0.538258,0.616900,-0.350542,-0.454789,-10.765890,2.960733,5.976044,-0.829249,-0.823753,1.592755,44.992822,-2.018382,10.267220,4635727599304179700.000000,-0.669053,-0.515581,-0.495454,0.202658,0
-5.158418,-0.553079,1.891774,-0.313682,-0.015033,0.202057,44.898830,-9.794083,-5.489287,4635730248623242200.000000,-0.843707,0.041476,-0.527585,-0.089957,-6.673090,-3.985058,-1.086881,0.236024,-0.683253,-1.341422,45.716286,-4.734284,-6.733042,4635726203439808500.000000,-0.542392,0.617043,-0.346032,-0.453135,-10.562121,2.755927,6.166728,-1.040309,-0.905334,1.564167,45.163718,-2.740427,10.189432,4635727599304179700.000000,-0.678376,-0.504996,-0.500800,0.184351,0
-5.817228,-0.917937,2.062735,-0.309784,0.038627,0.296356,44.898830,-9.928503,-5.481124,4635730176821428200.000000,-0.843430,0.041881,-0.527684,-0.091771,-6.526408,-3.697542,-0.279049,0.275565,-0.720846,-1.316628,45.553016,-4.105209,-7.055649,4635726203439808500.000000,-0.546613,0.616964,-0.341560,-0.451559,-10.735166,2.521193,6.322554,-1.185209,-0.973689,1.548151,45.216221,-3.326306,9.744953,4635727599304179700.000000,-0.683978,-0.504386,-0.495340,0.180018,0
-6.618485,-1.626396,2.189003,-0.286732,0.108150,0.414133,44.902872,-10.038199,-5.384121,4635730176821428200.000000,-0.842955,0.041972,-0.528054,-0.093935,-6.645571,-3.876251,0.046418,0.245312,-0.771045,-1.283190,45.545822,-3.659619,-7.218058,4635726203439808500.000000,-0.550744,0.616788,-0.336990,-0.450213,-10.907823,2.580530,6.317777,-1.261176,-1.022234,1.527524,45.157030,-3.871843,9.089559,4635727599304179700.000000,-0.689891,-0.503103,-0.490139,0.175220,0
-7.517710,-2.119226,2.314873,-0.231578,0.105940,0.552277,44.935287,-10.196895,-5.184105,4635730176821428200.000000,-0.842455,0.041458,-0.528468,-0.096292,-7.583961,-3.905147,0.258298,0.241953,-0.842019,-1.257613,45.470635,-3.345309,-7.320724,4635726203439808500.000000,-0.554895,0.616425,-0.332303,-0.449095,-10.684163,2.839735,6.315931,-1.280053,-1.049093,1.482241,45.198415,-4.581814,8.836256,4635727599304179700.000000,-0.695804,-0.501611,-0.484927,0.170555,0
-8.417098,-2.537909,2.566858,-0.176323,0.021896,0.693259,44.960030,-10.412177,-5.329527,4635730176821428200.000000,-0.842057,0.040561,-0.528618,-0.099282,-8.241927,-3.259886,0.301072,0.243616,-0.878625,-1.235183,45.392779,-2.825043,-7.545850,4635726203439808500.000000,-0.559038,0.615934,-0.327578,-0.448102,-10.343308,2.786030,6.154322,-1.211901,-1.056070,1.429245,45.287618,-5.143240,8.619265,4635727599304179700.000000,-0.701411,-0.500400,-0.479469,0.166528,0
-9.405028,-3.143799,3.110717,-0.137540,-0.010467,0.834278,44.858501,-10.713475,-5.635779,4635730176821428200.000000,-0.841678,0.039155,-0.528693,-0.102610,-8.520258,-3.431190,0.312769,0.249655,-0.904485,-1.193896,45.496094,-2.258879,-7.976579,4635726203439808500.000000,-0.563132,0.615298,-0.322897,-0.447245,-10.081373,2.747615,5.580462,-1.116271,-1.046041,1.370992,45.246243,-5.607083,7.949604,4635727599304179700.000000,-0.706789,-0.499079,-0.474308,0.162483,0
-10.666159,-3.948825,4.030495,-0.090906,0.057844,0.971313,44.699817,-10.957603,-5.558927,4635730176821428200.000000,-0.841083,0.037313,-0.529043,-0.106301,-9.421354,-4.464398,0.493947,0.324858,-0.966614,-1.122469,45.582443,-1.908991,-8.424764,4635726203439808500.000000,-0.567347,0.614250,-0.318381,-0.446596,-9.705719,3.012499,4.843343,-1.079977,-1.035526,1.293835,45.165497,-6.231577,7.437038,4635727599304179700.000000,-0.711968,-0.497685,-0.469281,0.158703,0
-11.940068,-4.868820,4.529474,-0.061223,0.117811,1.113402,44.593643,-11.282538,-5.379689,4635730176821428200.000000,-0.840281,0.035078,-0.529629,-0.110412,-10.143640,-4.945194,0.732520,0.439899,-1.048274,-1.066363,45.512302,-1.657664,-8.775292,4635726203439808500.000000,-0.571837,0.612679,-0.314017,-0.446117,-9.249344,3.437901,4.107146,-1.124037,-1.009227,1.211671,45.210610,-6.876674,7.273717,4635727599304179700.000000,-0.717014,-0.496195,-0.464274,0.155342,0
-13.160492,-5.666398,4.366300,-0.075768,0.156461,1.232070,44.545171,-11.799090,-5.225305,4635730176821428200.000000,-0.839337,0.032545,-0.530355,-0.114796,-8.604491,-5.257525,0.908002,0.484581,-1.094691,-1.008781,45.376470,-1.343374,-9.108350,4635726203439808500.000000,-0.576372,0.610813,-0.309758,-0.445817,-8.870033,3.661301,3.324043,-1.162806,-0.951380,1.126061,45.291355,-7.448480,6.794725,4635727599304179700.000000,-0.721917,-0.494464,-0.459572,0.152097,0
-14.575724,-6.245711,4.539660,-0.110619,0.275474,1.312246,44.394637,-12.344582,-4.977284,4635730176821428200.000000,-0.838062,0.030013,-0.531476,-0.119517,-6.828313,-7.113279,1.112577,0.497436,-1.160220,-0.869359,45.321078,-0.963393,-9.539068,4635726203439808500.000000,-0.580741,0.608589,-0.305709,-0.445984,-8.393039,3.960847,2.155027,-1.175867,-0.859362,1.028869,45.204009,-7.989296,6.211670,4635727599304179700.000000,-0.726568,-0.492541,-0.455322,0.148940,0
-16.187272,-6.347942,4.984474,-0.155845,0.435924,1.375260,44.292498,-12.861088,-4.793287,4635730176821428200.000000,-0.836366,0.027578,-0.533125,-0.124535,-7.656254,-8.298059,1.813969,0.542132,-1.294893,-0.685724,45.248750,-0.698925,-10.027365,4635726203439808500.000000,-0.585030,0.605748,-0.301869,-0.446861,-7.746067,4.381519,0.993495,-1.192957,-0.728723,0.920743,45.104477,-8.484146,5.915896,4635727599304179700.000000,-0.730987,-0.490159,-0.451954,0.145397,0
-17.608009,-6.065042,4.924573,-0.200325,0.466324,1.409307,44.272405,-13.350005,-4.858356,4635730176821428200.000000,-0.834548,0.025239,-0.534840,-0.129762,-9.337846,-6.718185,1.801923,0.524341,-1.416756,-0.545401,45.019928,-0.533039,-10.515637,4635726203439808500.000000,-0.589142,0.602520,-0.298041,-0.448390,-7.270009,4.635043,0.042330,-1.203966,-0.561203,0.811883,45.141092,-8.841891,5.800402,4635727673631233000.000000,-0.734957,-0.487793,-0.449114,0.142102,0
-18.844993,-5.295880,4.744167,-0.254061,0.378653,1.374141,44.086017,-13.699696,-4.838740,4635730176821428200.000000,-0.832831,0.023423,-0.536184,-0.135468,-9.930567,-5.926836,0.680500,0.460153,-1.518576,-0.428849,44.760480,-0.334297,-11.043938,4635726203439808500.000000,-0.592974,0.599087,-0.294121,-0.450520,-7.263386,4.983386,-1.144521,-1.242167,-0.368781,0.710659,45.218090,-9.045667,5.579756,4635727706678362100.000000,-0.738549,-0.485240,-0.447047,0.138696,0
-20.009360,-4.724845,4.923137,-0.324480,0.301480,1.314706,43.800357,-14.163175,-4.655444,4635730176821428200.000000,-0.831357,0.021635,-0.537210,-0.140650,-9.966540,-7.604439,-0.466987,0.515902,-1.690833,-0.257962,44.772040,-0.283255,-11.619838,4635726203439808500.000000,-0.596807,0.594954,-0.290293,-0.453412,-7.092539,5.266999,-2.446021,-1.324820,-0.181936,0.629394,45.181488,-9.204363,5.298986,4635727706678362100.000000,-0.741882,-0.482389,-0.445731,0.135039,0
-21.042574,-4.638315,5.098260,-0.418788,0.236052,1.262974,43.751335,-14.704491,-4.589784,4635730176821428200.000000,-0.830025,0.020251,-0.537932,-0.145867,-10.397494,-8.045821,-0.611946,0.648355,-1.897555,-0.040124,44.828119,-0.562437,-12.301509,4635726203439808500.000000,-0.600639,0.589881,-0.286555,-0.457340,-6.639992,5.410674,-3.739898,-1.368458,0.018116,0.577876,45.104492,-9.464431,5.085829,4635727706678362100.000000,-0.744875,-0.479410,-0.445139,0.131069,0
-22.056486,-4.970756,5.095320,-0.528402,0.244200,1.240878,43.727119,-15.144455,-4.602490,4635730247820078100.000000,-0.828653,0.019301,-0.538597,-0.151247,-11.144599,-6.696385,-0.796838,0.703633,-2.082503,0.162303,44.250746,-0.456480,-13.135983,4635726203439808500.000000,-0.604526,0.583948,-0.283105,-0.461958,-5.916024,5.157223,-5.464860,-1.314821,0.258945,0.551742,45.031245,-9.718935,5.029450,4635727632359241700.000000,-0.747276,-0.476661,-0.445306,0.126794,0
-22.777700,-5.536913,4.669285,-0.667821,0.199506,1.218845,43.601416,-15.494119,-4.520876,4635730391569793000.000000,-0.827356,0.018853,-0.539000,-0.156863,-11.905615,-6.236703,-1.460756,0.746191,-2.271224,0.339658,43.276562,0.175873,-13.896664,4635726203439808500.000000,-0.608343,0.577281,-0.279666,-0.467389,-4.827804,4.792884,-7.601003,-1.214999,0.547487,0.538431,44.966452,-10.010006,5.105489,4635727599304179700.000000,-0.748915,-0.474326,-0.446340,0.122156,0
-23.052028,-5.931862,4.021726,-0.859222,-0.029993,1.191039,43.446148,-15.985791,-4.556980,4635730391569793000.000000,-0.826549,0.018977,-0.538465,-0.162825,-12.213986,-7.026273,-1.958809,0.840700,-2.482397,0.514604,42.942153,-0.071824,-14.682570,4635726203439808500.000000,-0.612225,0.569695,-0.276266,-0.473609,-3.357549,4.197698,-9.800900,-1.108525,0.898110,0.537360,44.905423,-10.327361,5.409631,4635727599304179700.000000,-0.749672,-0.472463,-0.448424,0.116988,0
-22.744264,-6.152531,3.678567,-1.104008,-0.321356,1.167930,43.389666,-16.556129,-4.812503,4635730356083353600.000000,-0.826358,0.019798,-0.536737,-0.169273,-11.785340,-7.781476,-1.341259,0.896783,-2.723213,0.743565,43.075275,-1.047546,-15.653124,4635726203439808500.000000,-0.615981,0.561149,-0.272868,-0.480855,-1.804432,3.920485,-12.070413,-1.102972,1.277203,0.539086,44.895070,-10.695423,5.724232,4635727599304179700.000000,-0.749681,-0.470782,-0.451671,0.111066,0
-22.129464,-6.059750,3.787274,-1.372612,-0.354676,1.142249,43.222803,-16.890485,-5.207684,4635730284195610600.000000,-0.826196,0.021578,-0.534675,-0.176228,-11.265851,-7.440992,0.255101,0.805202,-2.929235,1.034347,42.374992,-1.107545,-16.798069,4635726159410337800.000000,-0.619075,0.552002,-0.269393,-0.489354,-0.477369,3.226778,-14.293325,-1.157280,1.610845,0.515021,44.805904,-10.984717,6.148640,4635727599304179700.000000,-0.749115,-0.469015,-0.456005,0.104456,0
-21.689271,-5.670087,3.927713,-1.601576,-0.035082,1.118825,43.035878,-17.085583,-5.387605,4635730284195610600.000000,-0.825270,0.024432,-0.533511,-0.183572,-11.836796,-7.512321,0.718642,0.593568,-3.144426,1.325691,41.303744,-1.144451,-18.059763,4635726096065626100.000000,-0.621211,0.542529,-0.265550,-0.499243,2.495362,1.536134,-15.582858,-1.346013,2.058689,0.475343,44.570282,-11.169710,6.831139,4635727599304179700.000000,-0.747989,-0.466732,-0.461867,0.096710,0
-21.638532,-5.015318,3.243003,-1.851282,0.363985,1.072587,42.795756,-17.382183,-5.395461,4635730284195610600.000000,-0.823407,0.028552,-0.533485,-0.191258,-12.956103,-8.131337,0.038822,0.321654,-3.368107,1.639204,40.893594,-2.089918,-19.212505,4635726096065626100.000000,-0.622188,0.532824,-0.261211,-0.510636,6.175194,-1.474499,-16.245906,-1.347068,2.535314,0.355357,44.289532,-11.387512,7.726829,4635727599304179700.000000,-0.745814,-0.464332,-0.469414,0.088360,0
-22.339626,-4.528837,1.758887,-2.147228,0.628421,1.041730,42.588037,-17.736588,-5.504990,4635730284195610600.000000,-0.820870,0.033965,-0.534078,-0.199447,-13.959500,-8.098304,1.140172,-0.026190,-3.520076,2.003612,40.491333,-2.708445,-20.340173,4635726096065626100.000000,-0.621619,0.523161,-0.256478,-0.523556,10.509287,-4.380241,-16.934127,-1.623452,3.073198,0.268461,44.059434,-11.682332,8.552325,4635727599304179700.000000,-0.742962,-0.461033,-0.478816,0.078690,0
-23.541116,-4.718654,-0.066815,-2.396655,0.625646,1.078632,42.453542,-17.960671,-5.684055,4635730284195610600.000000,-0.818182,0.040143,-0.534398,-0.208294,-16.162609,-8.262212,3.071865,-0.396914,-3.641264,2.437304,39.760713,-2.999020,-21.552473,4635726096065626100.000000,-0.619235,0.513569,-0.251489,-0.538097,12.513060,-10.765217,-14.892064,-0.560687,3.284033,0.081071,43.868815,-11.898366,9.650660,4635727450753144800.000000,-0.737443,-0.460625,-0.488796,0.071281,0
-24.231131,-5.098212,-1.968830,-2.551627,0.288891,1.146248,42.343902,-18.123398,-5.858990,4635730284195610600.000000,-0.816053,0.046402,-0.533377,-0.217746,-20.848581,-7.173826,3.600235,-0.816821,-3.736925,2.901445,39.112880,-3.855577,-22.775481,4635726184152964100.000000,-0.614786,0.504170,-0.246212,-0.554283,28.246713,18.436684,-16.564995,-0.525834,4.285129,0.076270,43.575939,-12.069263,11.216639,4635727384555814900.000000,-0.729634,-0.460486,-0.501741,0.061990,0
-24.115938,-5.055122,-3.103683,-2.564157,-0.291461,1.186097,42.152962,-18.374916,-6.163025,4635730284195610600.000000,-0.815065,0.052084,-0.530307,-0.227443,-29.558976,-3.335850,4.509355,-1.216603,-3.695560,3.343033,38.047486,-4.700348,-24.117128,4635726310813990900.000000,-0.608174,0.495223,-0.240941,-0.571687,17.131998,67.367302,-14.594909,-3.799094,4.314309,0.854207,43.073650,-12.569535,12.419119,4635727384555814900.000000,-0.727920,-0.451841,-0.513894,0.043417,0
-22.634076,-5.462354,-2.526607,-2.410716,-1.095363,1.160412,41.953049,-18.789935,-6.805005,4635730284195610600.000000,-0.815798,0.056533,-0.524573,-0.236856,-40.813274,4.264503,3.892621,-1.076849,-3.504635,3.411894,36.501294,-4.928782,-25.437061,4635726310813990900.000000,-0.601225,0.486087,-0.236520,-0.588478,-3.001102,52.074563,0.984018,-4.729583,3.355120,0.846866,42.533751,-13.258661,13.066293,4635727384555814900.000000,-0.729590,-0.439931,-0.523021,0.024659,0
-19.356925,-8.133672,0.950380,-2.074925,-1.828450,1.201873,41.811188,-19.128408,-7.671342,4635730177865021400.000000,-0.818051,0.059020,-0.516610,-0.245813,-43.897367,12.079773,1.895237,-0.279235,-3.184939,3.145543,35.394819,-5.576192,-26.530982,4635726222574653400.000000,-0.595995,0.475809,-0.234224,-0.602938,14.784382,2.724590,17.996662,-3.390592,3.013405,0.603763,42.076410,-13.755576,13.896017,4635727384555814900.000000,-0.729185,-0.431308,-0.531186,0.010150,0
-15.577113,-11.721594,6.592944,-1.666322,-1.760820,1.314451,41.478329,-19.335666,-8.514524,4635729962073063400.000000,-0.820027,0.059932,-0.509249,-0.254222,-37.053476,11.024838,-7.033827,0.347502,-2.516308,3.135917,34.789465,-6.941910,-27.252910,4635726140185294800.000000,-0.591193,0.465513,-0.235070,-0.615248,15.633477,-10.669046,24.818332,-1.859228,3.284275,0.590985,41.699805,-14.217517,14.864167,4635727384555814900.000000,-0.725210,-0.427189,-0.539979,-0.001432,0
-11.865735,-14.308454,10.634911,-1.193993,-0.960609,1.317522,41.046451,-19.587974,-9.068841,4635729962073063400.000000,-0.820339,0.060067,-0.505073,-0.261414,-28.193889,12.181239,-32.264275,-0.081051,-1.319853,2.648470,34.351832,-8.252520,-27.726967,4635726203439808500.000000,-0.585509,0.459717,-0.236767,-0.624324,-5.582536,-3.151316,6.967804,0.905818,3.581458,0.571742,41.244521,-14.536943,15.955094,4635727310306065400.000000,-0.715470,-0.431283,-0.549586,-0.007265,0
-8.030931,-16.161150,10.825558,-0.604262,-0.495079,1.319926,40.753211,-19.940877,-9.427022,4635729962073063400.000000,-0.819771,0.058685,-0.503104,-0.267242,-19.503562,7.347964,-45.517326,-0.126968,-0.089712,2.129295,34.475226,-9.341925,-27.967813,4635726203439808500.000000,-0.579807,0.457692,-0.240325,-0.629751,-22.638851,-2.521408,-9.304650,2.669233,3.275737,0.545017,40.676510,-14.409677,17.364219,4635727425673181200.000000,-0.703065,-0.440458,-0.558234,-0.008450,0
-3.814100,-16.930878,12.600794,-0.019749,-0.707812,1.347272,40.484897,-20.542819,-9.708416,4635729962073063400.000000,-0.819728,0.055010,-0.501045,-0.271980,-15.140589,-10.863996,-37.082824,0.973458,0.529389,1.494102,34.902939,-10.195402,-27.883434,4635726203439808500.000000,-0.577211,0.455237,-0.247036,-0.631317,-27.273664,5.203847,-25.896687,2.357275,3.045689,0.308975,40.188080,-14.066054,18.822616,4635727491929997300.000000,-0.691575,-0.448047,-0.566473,-0.009262,0
-0.342361,-15.270206,18.013923,0.369826,-0.638156,1.242667,40.219890,-21.093219,-9.806701,4635729962073063400.000000,-0.819717,0.050301,-0.499622,-0.275521,-17.064623,-14.661792,-27.131942,0.994487,0.896108,-0.370073,34.900541,-10.383286,-27.515286,4635726159343608800.000000,-0.579153,0.455593,-0.251138,-0.627652,-34.873220,6.587832,-40.884453,1.353645,2.704314,-0.118049,39.698010,-13.910862,19.930043,4635727491929997300.000000,-0.682637,-0.451636,-0.574386,-0.010610,0
2.058863,-12.306659,19.315012,0.611113,-0.405280,1.077992,40.113525,-21.342306,-9.790338,4635729962073063400.000000,-0.819432,0.045376,-0.499221,-0.277940,-24.898799,-10.704268,-22.200323,-0.936600,1.005185,-2.681753,34.857551,-9.413866,-27.089364,4635726096065626100.000000,-0.583293,0.463274,-0.246031,-0.620174,-34.108939,1.350906,-38.457515,0.032404,3.014701,-0.184497,39.176923,-13.849832,20.894313,4635727491929997300.000000,-0.675338,-0.451223,-0.583159,-0.015521,0
3.174646,-8.787397,16.963140,0.799904,-0.475117,0.683843,40.033023,-21.504233,-9.846690,4635729962073063400.000000,-0.819763,0.040545,-0.498711,-0.278626,-27.026175,-10.586079,-31.208361,-3.247328,1.105391,-4.034358,35.298758,-7.683359,-26.855638,4635726096065626100.000000,-0.586185,0.478062,-0.232513,-0.611377,-42.118963,-5.728353,-18.545198,0.211665,2.694191,0.196738,38.652025,-13.729731,21.850224,4635727566150000600.000000,-0.668361,-0.452206,-0.590240,-0.020463,0
0.986989,-3.202074,15.867506,0.866172,-0.315483,0.053746,39.817065,-21.825624,-10.017580,4635729962073063400.000000,-0.820487,0.036981,-0.498708,-0.276990,-20.966983,-4.403248,-41.491421,-3.485206,1.536357,-3.785491,35.940027,-5.852428,-26.829689,4635726096065626100.000000,-0.587262,0.494052,-0.219823,-0.602257,-43.346301,6.923601,7.088441,0.666312,2.226251,0.688060,38.177771,-13.692936,22.675766,4635727599304179700.000000,-0.661563,-0.455664,-0.595056,-0.024766,0
-2.291873,2.262606,12.996282,0.993939,-0.364335,-0.459661,39.762998,-22.074740,-10.067758,4635729962073063400.000000,-0.821909,0.033989,-0.498596,-0.273336,-21.694191,3.872232,-35.495419,-2.989324,1.917077,-4.052056,36.437921,-3.986412,-26.663694,4635726096065626100.000000,-0.589386,0.509779,-0.208648,-0.590945,-35.367944,10.577473,17.478177,1.147607,1.813473,1.111665,37.726075,-13.814833,23.250802,4635727599304179700.000000,-0.654765,-0.461509,-0.597908,-0.028247,0
-3.906987,5.010976,8.622985,1.125035,-0.632091,-0.793856,39.897546,-22.051548,-9.880494,4635729962073063400.000000,-0.824259,0.030937,-0.497653,-0.268294,-22.757768,1.908398,-28.260602,-2.920847,2.274011,-4.531320,36.852100,-2.039644,-26.103918,4635726007903600600.000000,-0.592200,0.526353,-0.197385,-0.577314,-25.212928,9.461265,13.312951,1.604549,1.424183,1.409413,37.282860,-14.036352,23.806572,4635727599304179700.000000,-0.647955,-0.469334,-0.599116,-0.030659,0
-5.039835,6.606962,6.786494,1.230554,0.008578,-0.983338,40.007126,-21.751101,-9.649263,4635730068223131600.000000,-0.825471,0.028629,-0.498982,-0.262289,-21.906782,-5.236172,-23.337504,-1.899921,2.464081,-4.529450,37.457773,-0.190324,-25.206203,4635725881317261300.000000,-0.596761,0.540568,-0.188940,-0.562107,-18.965582,7.276116,5.765016,1.788789,1.229016,1.468001,36.843446,-14.339520,24.527427,4635727599304179700.000000,-0.641188,-0.477738,-0.599661,-0.032427,0
-7.048768,7.616724,5.638316,1.292022,1.172330,-1.091270,40.278458,-21.388345,-9.230885,4635730284195610600.000000,-0.824338,0.027604,-0.504339,-0.255630,-24.368797,-9.746517,-19.838755,-0.668365,2.455340,-4.207787,38.184505,1.362347,-24.191242,4635725881317261300.000000,-0.603069,0.551191,-0.183994,-0.546482,-14.258087,6.056182,0.283964,1.708092,1.200910,1.404472,36.446171,-14.559451,25.232755,4635727599304179700.000000,-0.634587,-0.485690,-0.600195,-0.034196,0
-10.392862,7.470002,3.969149,1.288747,1.711060,-1.199754,40.746765,-21.131999,-8.649395,4635730284195610600.000000,-0.821404,0.028842,-0.511405,-0.250855,-23.012775,-6.983452,-17.566427,0.311841,2.494743,-3.633239,38.767944,2.773427,-23.388990,4635725881317261300.000000,-0.610060,0.558791,-0.182628,-0.531250,-14.182280,7.251565,-0.439833,1.367623,1.305249,1.275978,36.126788,-14.561651,25.777634,4635727599304179700.000000,-0.628372,-0.492378,-0.601139,-0.036667,0
-14.414507,6.503384,2.471638,1.225844,1.288763,-1.357114,41.097302,-20.771112,-8.066795,4635730213454669800.000000,-0.820124,0.028864,-0.516966,-0.243536,-19.816399,-0.839542,-14.808228,0.841616,2.597790,-3.250075,39.147262,4.011844,-22.644427,4635725837267305500.000000,-0.617159,0.564797,-0.183532,-0.516173,-17.771741,7.664696,2.581516,0.939506,1.437221,1.137928,35.715756,-14.437808,26.324929,4635727599304179700.000000,-0.622676,-0.497561,-0.602577,-0.040095,0
-17.856419,5.776687,1.593856,1.101725,0.345689,-1.615492,41.365577,-20.197364,-7.683483,4635730069447245800.000000,-0.821111,0.028797,-0.519113,-0.235521,-16.935332,3.642547,-11.938194,0.981686,2.624193,-2.949979,39.440217,4.907630,-21.854763,4635725773943078900.000000,-0.623737,0.570100,-0.185456,-0.501543,-23.933322,8.411073,8.688049,0.352613,1.528575,1.001054,35.260327,-14.510600,26.780584,4635727599304179700.000000,-0.617952,-0.500844,-0.604386,-0.044817,0
-19.747703,6.175206,2.224859,0.862120,-0.551545,-1.903772,41.682956,-19.623638,-7.527802,4635730069447245800.000000,-0.824230,0.029290,-0.517881,-0.227127,-14.056287,5.645449,-8.361095,0.850294,2.678383,-2.592204,39.763238,5.687332,-20.925137,4635725773943078900.000000,-0.629042,0.575426,-0.188045,-0.487678,-30.366881,7.857850,15.439428,-0.350789,1.551281,0.823084,34.800219,-14.791142,26.981021,4635727599304179700.000000,-0.614640,-0.501852,-0.606443,-0.050882,0
-18.533131,6.715133,3.192840,0.598914,-1.511274,-2.046351,41.891789,-19.025817,-7.745166,4635730069447245800.000000,-0.829440,0.030083,-0.513035,-0.218906,-10.964533,4.952682,-5.126860,0.563803,2.874240,-2.277023,40.204542,6.447302,-19.842500,4635725773943078900.000000,-0.632711,0.581511,-0.191275,-0.474273,-33.178671,5.203421,20.457740,-1.145029,1.553164,0.651241,34.344808,-15.171311,27.225801,4635727599304179700.000000,-0.612985,-0.500366,-0.608654,-0.058511,0
-14.212549,7.918043,3.386062,0.407428,-2.388767,-2.082888,41.931840,-18.378825,-8.383675,4635730034089660400.000000,-0.836412,0.030810,-0.504902,-0.211045,-8.260654,3.233327,-2.755043,0.242082,3.170927,-2.014595,40.683776,7.041405,-18.695028,4635725773943078900.000000,-0.634690,0.588680,-0.195241,-0.460983,-33.101929,0.590350,23.738061,-1.688830,1.577765,0.635307,33.952176,-15.675327,27.530974,4635727599304179700.000000,-0.612356,-0.497404,-0.610778,-0.067527,0
-8.626934,9.821189,3.758277,0.236136,-2.392603,-2.082536,42.126565,-17.707714,-9.115675,4635729962073063400.000000,-0.843222,0.032123,-0.496517,-0.203508,-6.422780,1.747015,-1.017753,0.011564,3.451770,-1.717554,41.032188,7.536937,-17.547452,4635725685858366500.000000,-0.635144,0.596607,-0.200185,-0.447859,-30.896737,-7.332734,24.998007,-0.810125,1.806731,0.575244,33.535361,-16.233092,27.971074,4635727599304179700.000000,-0.609290,-0.496410,-0.613818,-0.074638,0
-4.319971,10.738944,4.571231,0.168012,-1.370883,-2.052981,42.399434,-17.011621,-9.824868,4635729962073063400.000000,-0.847766,0.034476,-0.491598,-0.196050,-5.184499,1.136803,1.345876,-0.075744,3.598285,-1.393862,41.367397,8.030216,-16.359960,4635725559194714100.000000,-0.634489,0.604613,-0.206107,-0.435185,-28.631508,-11.809079,26.073806,0.424574,1.598349,0.864678,33.028483,-16.634392,28.404088,4635727673463742500.000000,-0.604071,-0.499306,-0.616088,-0.078911,0
-2.290155,10.448109,3.397048,0.162518,-0.243644,-1.942546,42.579119,-16.336553,-10.208951,4635729962073063400.000000,-0.849677,0.037953,-0.490598,-0.189532,-4.242187,1.997875,3.934339,-0.346169,3.659860,-1.131904,41.845883,8.565695,-14.999836,4635725559194714100.000000,-0.632461,0.613064,-0.212308,-0.423168,-25.368728,-0.459486,24.403888,2.192582,1.285655,1.432097,32.390207,-16.694195,28.933378,4635727706678362100.000000,-0.595726,-0.508138,-0.616924,-0.079438,0
-1.713669,9.427634,1.268936,0.110004,0.221958,-1.755652,42.652360,-15.576012,-10.242627,4635729962073063400.000000,-0.850555,0.041290,-0.491225,-0.183165,-3.110708,3.315760,6.092438,-0.913396,3.743569,-0.948913,42.403385,9.076565,-13.549017,4635725559194714100.000000,-0.628417,0.622832,-0.218140,-0.411808,-23.356650,13.530299,26.653237,3.479507,0.425791,1.664235,31.908930,-16.354943,29.510902,4635727706678362100.000000,-0.586666,-0.520921,-0.615448,-0.075420,0
-1.314285,7.388104,1.093807,0.042891,0.067588,-1.511025,42.834053,-14.866638,-10.156403,4635729962073063400.000000,-0.851551,0.044137,-0.491282,-0.177637,-1.959456,4.296722,7.741783,-1.612475,3.774343,-0.809747,42.767164,9.449371,-12.211244,4635725471156901900.000000,-0.622111,0.634177,-0.223151,-0.401250,-21.039266,14.580885,28.346780,3.581328,-0.658815,1.611116,31.889235,-15.781514,29.932868,4635727706678362100.000000,-0.580026,-0.534015,-0.611299,-0.068637,0
0.043442,4.969784,1.980049,-0.000132,-0.379728,-1.261932,43.208779,-14.430562,-10.249261,4635729962073063400.000000,-0.853241,0.046295,-0.489748,-0.173156,-0.908121,5.143740,8.261817,-2.438870,3.799019,-0.677429,43.016897,9.813964,-10.600569,4635725344446349300.000000,-0.613169,0.647370,-0.227119,-0.391604,-22.417254,-4.910531,23.898981,3.790336,-1.386321,1.449649,32.195875,-15.049378,30.152001,4635727706678362100.000000,-0.574648,-0.547266,-0.605612,-0.059279,0
2.674617,3.133699,2.350431,-0.062661,-0.879422,-1.028939,43.337389,-14.048761,-10.424648,4635729962073063400.000000,-0.855745,0.047837,-0.486423,-0.169721,-0.257341,5.199066,8.318625,-3.201457,3.882465,-0.504040,43.309894,10.259070,-8.746342,4635725344446349300.000000,-0.601560,0.662221,-0.230431,-0.382740,-21.335539,-12.352987,15.428121,4.550643,-1.643756,1.784181,32.523730,-14.369256,30.251692,4635727706678362100.000000,-0.567879,-0.563042,-0.598478,-0.048181,0
6.253992,2.304795,2.708432,-0.130510,-1.196535,-0.893395,43.085070,-13.616720,-10.658983,4635729962073063400.000000,-0.858752,0.049119,-0.481929,-0.166965,-0.466049,4.042326,8.013282,-3.686058,3.955858,-0.270342,43.572814,10.712278,-7.163016,4635725344446349300.000000,-0.587885,0.677864,-0.233689,-0.374542,-22.202226,13.597720,8.191783,3.280652,-1.987393,2.075835,32.769890,-13.953660,30.139508,4635727706678362100.000000,-0.564661,-0.576383,-0.589348,-0.040114,0
9.620361,2.135168,2.910022,-0.134503,-1.162206,-0.807450,42.941307,-13.379636,-11.179403,4635729962073063400.000000,-0.861597,0.050266,-0.477556,-0.164510,-1.306179,2.827861,7.474469,-3.985359,3.975698,0.039375,43.832516,10.880034,-5.472324,4635725344446349300.000000,-0.572549,0.693609,-0.237278,-0.367141,-26.542220,25.271626,12.339739,0.484700,-2.554064,1.666115,33.158172,-14.116666,29.682933,4635727706678362100.000000,-0.569476,-0.582071,-0.579268,-0.036593,0
11.565514,2.588245,2.940358,-0.083444,-0.709807,-0.759159,43.062564,-13.250186,-11.608753,4635729962073063400.000000,-0.863498,0.051441,-0.474839,-0.162028,-2.174427,2.457076,7.157518,-4.258965,4.006858,0.397127,44.079913,10.779137,-3.588430,4635725344446349300.000000,-0.555517,0.709304,-0.241419,-0.360563,-26.819541,11.002165,11.224621,-1.676149,-2.927617,1.432542,33.731616,-14.756358,28.915345,4635727706678362100.000000,-0.580354,-0.581991,-0.568435,-0.036831,0
11.474380,3.233969,3.318593,-0.063386,-0.058165,-0.741410,43.278596,-13.006057,-11.622275,4635729962073063400.000000,-0.864089,0.052948,-0.474478,-0.159427,-2.703575,2.304694,7.286203,-4.552192,4.083530,0.740216,44.191389,10.774136,-1.649599,4635725344446349300.000000,-0.536677,0.725001,-0.246159,-0.354622,-21.093344,2.475715,9.160287,-3.136389,-3.246398,1.144869,34.244594,-15.631130,27.934495,4635727706678362100.000000,-0.595393,-0.577535,-0.557165,-0.039078,0
9.223957,3.240962,3.263846,-0.047201,0.374326,-0.713316,43.385113,-12.733811,-11.475290,4635729962073063400.000000,-0.863801,0.054628,-0.475686,-0.156799,-2.955355,1.757050,7.071688,-4.844204,4.120996,1.097111,44.192427,10.626950,0.422034,4635725344446349300.000000,-0.516018,0.740539,-0.251459,-0.349421,-16.267708,-2.354852,9.927538,-3.763757,-3.521022,0.660606,34.641048,-16.550432,26.441880,4635727854912202800.000000,-0.612404,-0.570170,-0.546070,-0.040929,0
5.653492,2.773607,2.222956,-0.029029,0.396143,-0.680558,43.437281,-12.432329,-11.398038,4635729962073063400.000000,-0.863444,0.056192,-0.476986,-0.154245,-2.942453,1.228886,7.034588,-4.943248,4.059747,1.473315,44.176964,10.080191,2.361227,4635725344446349300.000000,-0.494191,0.755263,-0.257456,-0.345065,-14.724040,-9.809768,9.791627,-3.759545,-3.704903,0.278975,35.117030,-17.466367,24.803367,4635727921426726900.000000,-0.629594,-0.561682,-0.535176,-0.041367,0
2.153556,2.136120,1.705376,-0.081485,0.136738,-0.642903,43.595951,-12.160143,-11.348699,4635729962073063400.000000,-0.863557,0.057701,-0.477325,-0.151991,-2.514955,0.546656,8.031894,-4.796573,3.982665,1.807490,44.237421,9.137877,4.122388,4635725344446349300.000000,-0.472062,0.768656,-0.264366,-0.341227,-15.011248,-14.061070,9.124555,-3.521369,-3.813238,-0.028297,35.911847,-18.322988,23.124363,4635727921426726900.000000,-0.646220,-0.552880,-0.524507,-0.040202,0
-0.140213,1.266080,2.374166,-0.173956,-0.233299,-0.592364,43.646349,-11.834554,-11.429269,4635729962073063400.000000,-0.864346,0.059209,-0.476282,-0.150190,-1.695426,-0.303143,9.227499,-4.550894,3.935042,2.127905,44.256836,8.121518,5.777397,4635725124647506900.000000,-0.449976,0.780593,-0.272367,-0.337657,-14.396273,-14.735466,7.949248,-3.313423,-3.863602,-0.408043,36.869529,-18.883228,21.406959,4635727921426726900.000000,-0.662244,-0.543570,-0.514359,-0.037412,0
-1.109643,0.558233,2.212385,-0.266028,-0.466857,-0.558611,43.503527,-11.593374,-11.624579,4635729962073063400.000000,-0.865546,0.060834,-0.474344,-0.148749,-0.832651,-0.459871,9.857439,-4.083515,3.854811,2.432930,44.239057,7.101034,7.385381,4635724807575437300.000000,-0.428767,0.790665,-0.281680,-0.334160,-11.825493,-15.119325,6.090938,-3.193991,-3.818098,-0.905858,37.635315,-19.272102,19.753173,4635727921426726900.000000,-0.677679,-0.533258,-0.505264,-0.033096,0
-1.398055,0.684228,0.808113,-0.362006,-0.297170,-0.588525,43.474215,-11.455805,-11.791816,4635729962073063400.000000,-0.866398,0.062968,-0.472947,-0.147345,-0.233511,-1.426843,10.003004,-3.199332,3.677664,2.671638,44.148038,5.859195,8.825740,4635724807575437300.000000,-0.410091,0.798163,-0.292527,-0.330438,-9.415297,-16.125913,4.301632,-3.084509,-3.719957,-1.463088,38.247648,-19.478100,18.062273,4635727921426726900.000000,-0.692438,-0.521810,-0.497498,-0.027211,0
-1.880375,1.472449,0.127055,-0.489679,0.183543,-0.666851,43.607783,-11.103399,-11.813472,4635729962073063400.000000,-0.866308,0.066013,-0.473182,-0.145782,-0.324179,-6.258715,11.406614,-2.061036,3.364740,2.900116,44.008773,4.556473,10.102403,4635724807575437300.000000,-0.395071,0.802626,-0.305026,-0.326603,-8.229123,-16.888449,2.958080,-2.996855,-3.603887,-2.078941,39.035921,-19.334162,16.400108,4635727921426726900.000000,-0.706524,-0.509081,-0.491198,-0.019622,0
-2.616979,2.528825,0.701858,-0.523743,0.568680,-0.739927,43.815660,-10.609855,-11.682845,4635729962073063400.000000,-0.865480,0.069557,-0.474758,-0.143914,-0.067282,-10.328909,15.252858,-1.196841,2.920145,3.103629,43.802312,3.306233,11.332087,4635724807575437300.000000,-0.383079,0.804500,-0.318533,-0.323368,-7.840319,-16.796165,2.242308,-2.908069,-3.464006,-2.693757,40.024453,-18.905414,14.688439,4635727773115573200.000000,-0.719855,-0.495113,-0.486380,-0.010319,0
-3.417320,3.625945,0.351513,-0.546555,0.809839,-0.747849,43.950294,-10.388500,-11.569526,4635729962073063400.000000,-0.863888,0.074228,-0.477041,-0.143593,3.470897,-8.828259,18.215502,-0.414539,2.379375,3.183328,43.574300,2.118881,12.423999,4635724807575437300.000000,-0.374200,0.804043,-0.332400,-0.320935,-7.396777,-16.186386,1.733416,-2.819650,-3.268339,-3.280576,41.053568,-18.244786,12.942925,4635727484238325800.000000,-0.732275,-0.479980,-0.483106,0.000544,0
-4.257454,4.306467,-2.010315,-0.605081,0.973501,-0.666031,44.035746,-10.280282,-11.382224,4635729962073063400.000000,-0.862118,0.078268,-0.480003,-0.142213,6.981476,-6.662790,20.162938,0.174405,1.785044,3.266417,43.435031,1.037495,13.205698,4635724807575437300.000000,-0.367909,0.801549,-0.346320,-0.319725,-7.302656,-15.604779,0.959342,-2.810910,-3.129687,-3.839622,41.868278,-17.301550,11.458526,4635727384555814900.000000,-0.744005,-0.463479,-0.481123,0.012834,0
-4.610944,4.703489,-4.695922,-0.721763,0.674853,-0.646435,44.117186,-9.898596,-11.183273,4635729962073063400.000000,-0.860873,0.082510,-0.481815,-0.141228,8.688936,-5.601544,21.923957,0.774264,1.153997,3.461072,43.328507,-0.071725,13.626274,4635724807575437300.000000,-0.364184,0.796822,-0.360638,-0.319977,-7.193326,-15.181011,0.160907,-2.775318,-3.007630,-4.314494,42.529525,-16.053113,10.352600,4635727384555814900.000000,-0.754959,-0.445835,-0.480180,0.026369,0
-4.552986,4.284098,-5.233019,-0.934170,0.257368,-0.631466,44.194432,-9.542558,-10.983031,4635729962073063400.000000,-0.860396,0.087130,-0.482015,-0.140673,12.116520,-4.238480,20.694013,-0.569109,0.739546,3.437463,43.219741,-1.436161,14.016358,4635724763641436200.000000,-0.356568,0.793432,-0.372374,-0.323515,-7.634909,-14.254679,-0.402005,-2.601662,-2.852986,-4.715772,43.324423,-14.541815,9.153139,4635727384555814900.000000,-0.764765,-0.427660,-0.480152,0.041190,0
-4.477985,2.899530,-3.914126,-1.005664,0.295731,-0.540428,44.275878,-9.433066,-10.897579,4635729997314679800.000000,-0.859743,0.091844,-0.482334,-0.140571,20.641156,-31.626999,-27.226502,-6.503789,2.230167,1.407698,42.949526,-2.996370,14.643895,4635724875906805800.000000,-0.329568,0.803590,-0.371415,-0.328144,-8.822393,-12.214794,-1.063459,-2.302486,-2.702930,-5.056417,44.073050,-13.073039,7.808739,4635727088020635600.000000,-0.773183,-0.409492,-0.480845,0.057384,0
-4.263823,1.594332,-2.989604,-1.065783,0.554584,-0.493600,44.381167,-9.162204,-10.752039,4635730069447245800.000000,-0.858499,0.096829,-0.483550,-0.140654,2.345283,-133.442240,-77.396704,-0.320831,2.452188,-0.496713,42.685964,-3.598435,15.182673,4635725129697984500.000000,-0.325368,0.808123,-0.372657,-0.319688,-9.489192,-9.827751,-2.280042,-1.826174,-2.475736,-5.319660,44.667712,-11.378915,6.567978,4635727029188890600.000000,-0.779765,-0.392110,-0.482285,0.074946,0
-4.794414,-0.222320,-1.138242,-1.024098,0.739811,-0.448742,44.548051,-8.689777,-10.455462,4635730069447245800.000000,-0.856846,0.101681,-0.485458,-0.140734,-77.872619,-140.720063,10.913588,14.151068,-2.175450,1.633461,42.713126,-2.715190,15.158855,4635725129697984500.000000,-0.373610,0.782077,-0.393371,-0.306644,-9.333788,-6.911967,-3.927288,-1.124994,-2.187999,-5.475661,45.217000,-9.408479,5.704178,4635727062433267700.000000,-0.784082,-0.376523,-0.484387,0.093893,0
-6.490067,-2.898787,3.172741,-0.434253,0.328892,-0.320801,44.626646,-8.358834,-10.221602,4635730034218514400.000000,-0.856185,0.103925,-0.486289,-0.140250,-83.223212,35.565484,98.819959,10.278449,-3.965017,1.053454,43.060416,-1.414600,14.499258,4635725129697984500.000000,-0.411851,0.758474,-0.403344,-0.303990,-9.688466,-4.188538,-5.773998,-0.406982,-2.036721,-5.624044,45.724182,-7.471035,5.051379,4635727062433267700.000000,-0.786430,-0.362783,-0.486642,0.114443,0
-8.910271,-6.222984,10.306939,0.014244,-0.728380,-0.068086,44.541196,-8.256209,-10.446057,4635729962073063400.000000,-0.857705,0.103439,-0.483717,-0.140215,-27.546408,123.852899,81.158620,-1.143114,-2.672244,-2.596761,43.549818,-0.426845,13.332421,4635725261399834600.000000,-0.415969,0.761327,-0.389057,-0.309817,-11.669743,-2.091351,-7.362796,0.453615,-2.134122,-5.799344,45.976539,-5.376654,4.234995,4635727062433267700.000000,-0.787095,-0.351214,-0.488119,0.137368,0
-9.851534,-11.061510,12.900760,-1.197869,-1.157134,0.320107,44.455751,-8.316460,-11.009115,4635729962073063400.000000,-0.859316,0.106248,-0.479057,-0.144190,-59.763659,72.756631,24.670980,-9.010722,-3.231775,-4.249783,43.917708,0.161308,12.137841,4635725627401927700.000000,-0.397726,0.778943,-0.357987,-0.326966,-15.244463,-0.414508,-10.820954,1.638523,-2.247213,-6.014845,46.013486,-3.081986,3.466469,4635727062433267700.000000,-0.785546,-0.342883,-0.488433,0.163652,0
-8.100849,-18.116795,6.488458,-2.313475,-0.243780,0.685558,44.370301,-8.507186,-11.251222,4635729962073063400.000000,-0.858328,0.112865,-0.477124,-0.151285,-81.109686,-42.877415,-2.919632,-6.581295,-3.695887,-4.372566,44.230103,0.914691,10.767958,4635725881317261300.000000,-0.387586,0.790832,-0.328477,-0.341271,-20.064556,2.685107,-15.481949,2.478808,-2.361485,-6.067876,46.102383,-0.637255,2.564715,4635727062433267700.000000,-0.782364,-0.336839,-0.487482,0.191850,0
-7.634619,-24.246029,0.122478,-0.978332,0.854246,0.860624,44.288854,-8.703483,-11.150944,4635729962073063400.000000,-0.855614,0.115043,-0.480009,-0.155825,-74.993291,-68.899756,1.229284,2.784086,-3.162861,-2.372220,44.600195,1.992861,9.372231,4635725881317261300.000000,-0.404395,0.784936,-0.319448,-0.343939,-21.019422,8.651313,-17.347412,2.827569,-2.838344,-5.866462,46.287207,1.701315,1.238955,4635727062433267700.000000,-0.779152,-0.331667,-0.483997,0.220603,0
-9.392807,-19.328521,-2.538809,0.819316,0.640316,0.923933,44.243631,-8.832753,-10.862192,4635729962073063400.000000,-0.854116,0.110543,-0.483309,-0.157092,-36.123087,20.277955,4.647012,4.901848,-2.601500,-2.570247,44.964244,3.229591,8.355083,4635725881317261300.000000,-0.427452,0.776125,-0.313584,-0.341437,-16.389863,14.931262,-16.843711,3.647582,-3.033134,-5.587367,46.233575,3.803226,-0.145355,4635727062433267700.000000,-0.774828,-0.329095,-0.478400,0.249943,0
-17.102987,-7.013837,4.317231,0.445623,0.725257,0.472872,44.331882,-9.048886,-10.561010,4635729962073063400.000000,-0.852548,0.108334,-0.486447,-0.157463,-11.348505,32.398563,-4.204889,1.695069,-2.088089,-3.255835,44.944458,4.560103,7.636502,4635725881317261300.000000,-0.440241,0.774279,-0.301705,-0.340080,-14.761449,22.723709,-20.508474,4.431913,-3.167352,-5.052097,45.894211,5.720075,-1.429155,4635727062433267700.000000,-0.769459,-0.329812,-0.470266,0.279297,0
-23.864870,1.473982,9.107863,-0.948218,1.236870,-0.278316,44.604031,-9.099528,-10.308061,4635730032470535200.000000,-0.849781,0.112932,-0.490134,-0.157755,7.355191,-14.735039,-6.482960,1.093424,-2.386689,-3.331321,44.583244,5.850733,6.911415,4635725881317261300.000000,-0.451435,0.772966,-0.288090,-0.340198,-15.882359,33.629528,-31.270111,3.367040,-3.174875,-3.931356,45.597087,7.267716,-2.871834,4635727062433267700.000000,-0.766259,-0.329036,-0.461431,0.302761,0
-19.720280,2.296220,-0.773703,-0.852964,0.609839,-0.414953,44.821584,-8.876628,-10.165177,4635730176821428200.000000,-0.848402,0.117056,-0.491584,-0.157659,27.172709,-22.911383,-2.041713,2.031978,-1.846030,-2.349236,44.398853,6.988818,5.945515,4635725881317261300.000000,-0.463489,0.769267,-0.279907,-0.339203,-12.059546,43.933428,-34.293117,1.635620,-2.692645,-2.909747,45.310846,8.511425,-4.203917,4635727062433267700.000000,-0.765428,-0.325145,-0.454696,0.318829,0
-16.246413,1.179912,-6.327941,0.035735,-0.240891,-0.327984,44.761368,-8.603039,-10.111731,4635730176821428200.000000,-0.849132,0.117300,-0.490647,-0.156462,23.159816,-15.314361,-2.550757,2.986148,-2.306781,-1.760637,44.429960,7.959897,4.911169,4635725881317261300.000000,-0.478185,0.762184,-0.273997,-0.339618,-0.972816,44.879568,-33.636794,0.936148,-1.964906,-2.131396,44.921453,9.405367,-5.044770,4635727062433267700.000000,-0.765017,-0.321385,-0.450047,0.330027,0
-16.207355,0.344264,-0.416877,0.595683,-0.897839,-0.365970,44.626680,-8.496353,-10.179941,4635730176821428200.000000,-0.851493,0.115211,-0.487726,-0.154306,3.913681,-7.832260,0.086105,3.376439,-2.594279,-1.339460,44.417753,8.743003,3.974482,4635725881317261300.000000,-0.493698,0.753189,-0.269315,-0.341230,4.067506,40.897044,-37.521119,0.710007,-1.364149,-0.775541,44.772120,9.803866,-5.577641,4635727062433267700.000000,-0.765567,-0.320238,-0.445760,0.335640,0
-14.835289,-2.427673,9.039572,0.387459,-1.188344,-0.504692,44.593225,-8.444362,-10.403031,4635730176821428200.000000,-0.854409,0.113953,-0.483560,-0.152215,-19.243609,-5.984282,-2.206205,3.245483,-2.549984,-0.983557,44.545197,9.226947,2.831252,4635725881317261300.000000,-0.508083,0.743878,-0.265567,-0.343469,3.722230,42.336389,-38.533109,0.465042,-0.769218,0.371468,44.756129,9.715791,-6.121058,4635727210572018700.000000,-0.766916,-0.321260,-0.442167,0.336333,0
-12.389200,-6.072678,13.015110,-0.270880,0.576247,-0.872445,44.722461,-8.229675,-10.520249,4635730176821428200.000000,-0.853669,0.116895,-0.485072,-0.149300,-31.619606,-3.274525,-5.950159,2.936504,-2.605919,-1.435873,44.770049,9.675655,1.450106,4635725881317261300.000000,-0.522062,0.735413,-0.259776,-0.345160,5.781297,43.891142,-39.178379,0.505368,-0.393006,1.172593,44.642874,9.424915,-6.416908,4635727351247010800.000000,-0.768624,-0.324406,-0.438638,0.334028,0
-10.209001,-11.424363,7.465587,-0.364688,3.096312,-0.978556,44.970599,-7.896090,-9.971779,4635730176821428200.000000,-0.847441,0.123051,-0.495113,-0.146853,-17.923658,-3.221284,-5.278707,2.887772,-2.730374,-1.891488,44.609008,10.361232,0.323197,4635725881317261300.000000,-0.536516,0.727132,-0.252165,-0.346183,8.022592,41.998972,-38.606350,-0.167507,-0.069899,2.073293,44.661008,9.065420,-6.335196,4635727384555814900.000000,-0.771863,-0.327477,-0.435839,0.327155,0
-8.118203,-17.049629,-1.078857,0.432402,2.967250,-0.798937,45.226933,-7.634267,-8.812808,4635730176821428200.000000,-0.841932,0.124950,-0.505425,-0.141716,-7.427304,-6.768895,-3.189156,2.956716,-2.725653,-1.608974,44.243102,11.056715,-0.858381,4635725881317261300.000000,-0.550588,0.718166,-0.245437,-0.347636,10.212244,34.783909,-35.133953,0.104390,0.336820,2.559406,45.036503,8.257627,-6.274605,4635727384555814900.000000,-0.774582,-0.332828,-0.433273,0.318626,0
-7.841299,-19.225657,-2.949734,1.399510,1.164637,-0.704600,45.455303,-7.564592,-7.859709,4635730247150036000.000000,-0.840601,0.122065,-0.510002,-0.135602,-10.788971,-5.597503,-2.997247,2.901980,-2.928213,-1.532199,44.112072,11.492414,-2.248219,4635725881317261300.000000,-0.564411,0.708716,-0.238315,-0.349811,12.090536,37.706096,-22.309762,-0.869791,-0.425578,3.282838,45.267588,6.978712,-6.518787,4635727384555814900.000000,-0.780864,-0.335277,-0.428468,0.307011,0
-8.548960,-17.497059,2.560066,1.709612,0.194489,-0.413506,45.570236,-7.504398,-7.609211,4635730391569793000.000000,-0.841272,0.116920,-0.511473,-0.130334,-8.251166,-6.605231,-1.806912,2.844411,-3.063124,-1.402540,43.998966,11.933871,-3.733506,4635725968974389200.000000,-0.577820,0.698837,-0.231095,-0.352629,2.436917,70.485362,-11.073248,-4.152460,-1.052815,3.185567,45.268001,5.734993,-6.679131,4635727384555814900.000000,-0.792452,-0.325954,-0.425809,0.290619,0
-9.337981,-13.136819,9.695638,1.194692,1.022897,-0.131307,45.546228,-7.313660,-7.401352,4635730391569793000.000000,-0.839730,0.113421,-0.515680,-0.126742,-6.907624,-7.659552,-0.312093,2.730001,-3.235037,-1.259189,43.763278,12.450075,-5.164285,4635726096065626100.000000,-0.590655,0.688606,-0.223632,-0.356283,-22.933653,49.328763,-31.407490,-1.964677,-0.315519,4.063828,45.438010,4.672682,-6.432534,4635727384555814900.000000,-0.800487,-0.326168,-0.421562,0.274083,0
-10.656738,-9.301356,12.533042,0.581324,2.486959,0.275408,45.504995,-7.217364,-6.518027,4635730391569793000.000000,-0.834470,0.111959,-0.524836,-0.125190,-5.807040,-7.882506,1.225931,2.408620,-3.391978,-1.117964,43.473558,12.795345,-6.501275,4635726096065626100.000000,-0.602310,0.678574,-0.215638,-0.360916,-27.503600,-32.217999,-27.675899,0.493254,0.726195,3.521982,45.757058,3.558512,-6.370140,4635727384555814900.000000,-0.802498,-0.334723,-0.418596,0.262174,0
-13.939115,-6.598096,12.564331,0.419164,3.072527,0.791127,45.581412,-7.553285,-5.263380,4635730321198088200.000000,-0.827461,0.110223,-0.536107,-0.125494,-4.631094,-8.974683,1.468750,1.974491,-3.542591,-0.867120,43.137013,13.009591,-8.028610,4635726096065626100.000000,-0.612310,0.668969,-0.207256,-0.366882,-36.224614,-59.463067,-20.539844,3.170915,2.009266,1.943699,45.997872,2.398808,-6.253605,4635727384555814900.000000,-0.796684,-0.350651,-0.419201,0.258089,0
-21.369833,-0.562965,16.924117,-0.074336,2.666596,1.134620,45.680519,-8.054598,-4.317166,4635730176821428200.000000,-0.820818,0.109191,-0.545790,-0.128251,-4.955829,-10.706470,0.037287,1.605037,-3.773564,-0.509372,42.688598,13.115732,-9.589574,4635726139876044800.000000,-0.620751,0.659445,-0.198656,-0.374614,-94.613184,-19.073443,7.435763,1.985795,2.618876,2.874623,46.167928,1.171880,-5.322397,4635727384555814900.000000,-0.792159,-0.365018,-0.421444,0.248258,0
-35.076948,9.924109,23.020869,-0.497593,2.552657,1.516900,45.667277,-8.453458,-3.445510,4635730176821428200.000000,-0.813913,0.108660,-0.554948,-0.133311,-5.419115,-10.971186,-1.028223,1.273389,-3.893569,-0.092379,42.332843,13.088097,-11.072065,4635726203439808500.000000,-0.627548,0.650053,-0.190316,-0.383919,-127.013845,21.226121,-7.327136,1.170490,1.758054,3.721216,46.318203,-0.119094,-4.199716,4635727384555814900.000000,-0.791020,-0.377152,-0.420279,0.235391,0
-49.095604,25.043917,16.871907,0.047080,2.990349,1.227977,45.773133,-8.872059,-2.156254,4635730176821428200.000000,-0.806264,0.107176,-0.565668,-0.135911,-6.890628,-13.071715,-2.918857,0.997881,-3.954149,0.338766,41.992806,12.937908,-12.602937,4635726203439808500.000000,-0.632776,0.640754,-0.182489,-0.394621,-52.471956,-6.321667,-11.784082,0.043298,2.202857,4.081367,46.405791,-1.601994,-3.524746,4635727384555814900.000000,-0.790948,-0.386525,-0.420960,0.218612,0
-46.742182,39.269389,1.606939,0.082290,1.449310,0.153997,45.786814,-9.192175,-1.309136,4635730247167365100.000000,-0.802782,0.107220,-0.570689,-0.135494,-8.130113,-14.116117,-4.699666,0.929363,-3.947453,0.795200,41.572279,12.658893,-14.180945,4635726159634646000.000000,-0.636881,0.631112,-0.175732,-0.406446,-3.465368,-3.867585,2.614432,0.087994,3.183890,3.152613,46.306965,-2.954072,-2.569947,4635727384555814900.000000,-0.787952,-0.395183,-0.426166,0.203333,0
-31.521112,29.409628,-3.500401,-0.171682,-1.251714,0.288496,45.652118,-9.192175,-1.596389,4635730461898400800.000000,-0.805507,0.106267,-0.566573,-0.137333,-4.805437,-13.088252,-3.623292,1.020258,-3.607640,1.326441,41.113431,12.160055,-15.731902,4635726096065626100.000000,-0.639896,0.621235,-0.171378,-0.418604,1.965064,10.855502,12.475130,-0.464310,3.294789,2.720876,46.253853,-4.102016,-1.149478,4635727384555814900.000000,-0.785051,-0.401210,-0.432785,0.188209,0
-28.680142,12.642923,10.527781,-0.271104,1.077786,0.689203,45.626633,-9.348091,-1.564752,4635730606318157800.000000,-0.802436,0.106031,-0.570380,-0.139716,-2.953619,-13.695769,0.189924,1.216965,-3.067177,2.031998,40.761347,11.350744,-17.000774,4635726096065626100.000000,-0.641634,0.611107,-0.170587,-0.430993,6.191947,14.665378,9.771378,-0.295763,3.168791,2.442393,46.354811,-5.091310,0.178325,4635727384555814900.000000,-0.781648,-0.407061,-0.439204,0.174436,0
