Accelerometer-X,Accelerometer-Y,Accelerometer-Z,Gyroscope-X,Gyroscope-Y,Gyroscope-Z,Magnetometer-X,Magnetometer-Y,Magnetometer-Z,Barometer-pressure,Orientation-S,Orientation-X,Orientation-Y,Orientation-Z,Accelerometer-X,Accelerometer-Y,Accelerometer-Z,Gyroscope-X,Gyroscope-Y,Gyroscope-Z,Magnetometer-X,Magnetometer-Y,Magnetometer-Z,Barometer-pressure,Orientation-S,Orientation-X,Orientation-Y,Orientation-Z,Accelerometer-X,Accelerometer-Y,Accelerometer-Z,Gyroscope-X,Gyroscope-Y,Gyroscope-Z,Magnetometer-X,Magnetometer-Y,Magnetometer-Z,Barometer-pressure,Orientation-S,Orientation-X,Orientation-Y,Orientation-Z,jump
-9.204221,0.505483,2.263671,0.598627,-0.008503,0.111973,42.152164,-18.892403,4.548221,4635730928440705000.000000,0.675244,-0.268553,0.596825,0.340185,-9.440362,-0.404100,-1.745477,-0.028409,0.268121,0.203529,44.413317,-14.368114,-1.505731,4635726418188173300.000000,0.284276,-0.698092,0.347328,0.557869,-9.853512,-0.843830,-0.575886,0.348457,-0.169757,0.148074,40.538649,17.355554,12.036164,4635727814052544500.000000,-0.575574,-0.351632,-0.630653,0.383857,0
-9.103996,0.463723,2.353777,0.609940,0.012662,0.113435,42.093378,-18.909267,4.685708,4635730928440705000.000000,0.675711,-0.266608,0.597848,0.338988,-9.414601,-0.271165,-1.634355,-0.105457,0.291149,0.183823,44.270687,-14.292085,-1.189231,4635726418188173300.000000,0.283113,-0.698623,0.347960,0.557402,-9.852891,-0.812724,-0.588093,0.354438,-0.180571,0.164658,40.543546,17.239612,11.804559,4635727814052544500.000000,-0.575791,-0.352617,-0.629403,0.384679,0
-8.974470,0.353639,2.309415,0.624916,0.045398,0.109792,42.078918,-18.840644,4.871317,4635730928440705000.000000,0.676131,-0.264644,0.598989,0.337671,-9.390186,-0.191189,-1.677890,-0.200773,0.308946,0.160677,44.175810,-14.358689,-0.723912,4635726418188173300.000000,0.281699,-0.699340,0.348324,0.556992,-9.783335,-0.931095,-0.596028,0.354678,-0.185858,0.184439,40.641777,17.337846,11.836575,4635727814052544500.000000,-0.576051,-0.353644,-0.628110,0.385461,0
-8.810774,0.270778,2.177347,0.640080,0.072927,0.103804,42.147545,-18.755189,4.985806,4635730928440705000.000000,0.676485,-0.262721,0.600206,0.336302,-9.409216,-0.215694,-1.901844,-0.282769,0.316533,0.140029,44.242415,-14.520170,-0.747435,4635726227123205100.000000,0.280082,-0.700198,0.348445,0.556653,-9.688410,-1.057775,-0.581687,0.363514,-0.184737,0.206870,40.785534,17.441046,11.953519,4635727814052544500.000000,-0.576329,-0.354751,-0.626769,0.386209,0
-8.698695,0.266159,2.138700,0.655034,0.114860,0.098253,42.095747,-18.806988,5.083463,4635730928440705000.000000,0.676755,-0.260824,0.601551,0.334829,-9.466201,-0.350035,-2.135081,-0.322958,0.321990,0.129240,44.392998,-14.539018,-0.583123,4635726203439808500.000000,0.278365,-0.701128,0.348447,0.556342,-9.696008,-1.014153,-0.561541,0.382128,-0.181690,0.229487,40.858775,17.269549,11.743266,4635727814052544500.000000,-0.576605,-0.355966,-0.625370,0.386945,0
-8.630440,0.239149,2.116686,0.664842,0.171948,0.094628,41.951459,-18.951275,5.259568,4635730928440705000.000000,0.676907,-0.258957,0.603076,0.333223,-9.451229,-0.496520,-2.291009,-0.293600,0.322581,0.136729,44.269378,-14.463010,-0.311802,4635726203439808500.000000,0.276714,-0.702013,0.348537,0.555994,-9.848289,-0.905481,-0.561541,0.392808,-0.192827,0.252984,40.904285,17.078157,11.462523,4635727814052544500.000000,-0.577083,-0.357003,-0.624030,0.387440,0
-8.687053,0.182922,2.023647,0.666524,0.215461,0.094855,41.988850,-18.982512,5.376443,4635730928440705000.000000,0.676928,-0.257176,0.604706,0.331602,-9.394233,-0.599587,-2.274621,-0.230555,0.328282,0.146343,44.034649,-14.529582,-0.367646,4635726203439808500.000000,0.275215,-0.702822,0.348808,0.555546,-9.959699,-0.936885,-0.565806,0.402930,-0.194165,0.275924,40.833763,17.093088,11.213747,4635727814052544500.000000,-0.577432,-0.358366,-0.622494,0.388134,0
-8.801901,0.072881,1.825574,0.666524,0.251547,0.094207,42.005676,-18.972710,5.630926,4635730928440705000.000000,0.676871,-0.255411,0.606446,0.329900,-9.354918,-0.545220,-2.455169,-0.169087,0.319488,0.154055,44.083697,-14.767043,-0.628172,4635726203439808500.000000,0.273891,-0.703526,0.349232,0.555042,-10.003673,-1.052558,-0.588088,0.410780,-0.186315,0.297151,40.846560,17.148680,11.150214,4635727814052544500.000000,-0.577779,-0.359815,-0.620929,0.388783,0
-8.963197,0.029223,1.615628,0.675102,0.273074,0.087993,41.819416,-18.970304,5.923925,4635730842214030300.000000,0.676772,-0.253665,0.608246,0.328133,-9.253147,-0.504551,-2.803849,-0.117704,0.297406,0.158682,44.017135,-14.795373,-0.485469,4635726203439808500.000000,0.272738,-0.704113,0.349762,0.554531,-9.962791,-1.108161,-0.596031,0.418714,-0.178754,0.322971,40.936850,17.039790,11.230811,4635727814052544500.000000,-0.578135,-0.361359,-0.619327,0.389377,0
-9.163474,-0.014789,1.437540,0.676348,0.266359,0.083947,41.773735,-18.901698,6.128644,4635730821066522600.000000,0.676690,-0.251914,0.610019,0.326355,-9.230147,-0.305080,-2.931180,-0.079856,0.278659,0.154404,43.410560,-14.361097,-0.225030,4635726298935061500.000000,0.271733,-0.704618,0.350346,0.554015,-9.923069,-1.033366,-0.585955,0.419833,-0.180703,0.351166,41.103489,16.830714,11.145551,4635727814052544500.000000,-0.578606,-0.362862,-0.617738,0.389802,0
-9.459195,-0.024415,1.384250,0.663274,0.248397,0.073025,41.901141,-18.884853,6.243143,4635730821066522600.000000,0.676648,-0.250201,0.611706,0.324595,-9.304785,-0.063662,-2.909418,-0.069190,0.259553,0.140515,42.891209,-14.013981,-0.206174,4635726310813990900.000000,0.270819,-0.705086,0.350891,0.553522,-9.973449,-1.053708,-0.588087,0.429598,-0.181399,0.386601,41.237187,16.699728,10.693496,4635727814052544500.000000,-0.579048,-0.364588,-0.616010,0.390270,0
-9.786388,-0.024415,1.222629,0.633532,0.230028,0.069640,42.001035,-18.884853,6.331001,4635730821066522600.000000,0.676600,-0.248594,0.613277,0.322963,-9.314249,0.028509,-2.861941,-0.082609,0.237477,0.118913,43.215713,-14.270569,-0.196671,4635726310813990900.000000,0.269947,-0.705548,0.351316,0.553089,-9.984099,-1.260065,-0.608813,0.454113,-0.180703,0.423287,41.312556,16.686948,10.478785,4635727814052544500.000000,-0.579507,-0.366467,-0.614183,0.390709,0
-10.037561,-0.053813,1.076326,0.609854,0.206726,0.066000,41.959086,-18.884853,6.504639,4635730821066522600.000000,0.676592,-0.247020,0.614745,0.321393,-9.303393,0.101754,-2.813111,-0.088183,0.222645,0.095532,43.035078,-14.155103,-0.206174,4635726310813990900.000000,0.269134,-0.706016,0.351643,0.552680,-10.045136,-1.300786,-0.654940,0.466257,-0.182517,0.460809,41.355408,16.598793,10.559403,4635727814052544500.000000,-0.580009,-0.368465,-0.612270,0.391087,0
-10.240118,-0.070837,1.069437,0.597065,0.182157,0.060869,41.807436,-18.679049,6.690171,4635730821066522600.000000,0.676636,-0.245459,0.616118,0.319861,-9.486559,-0.020381,-2.710017,-0.063964,0.205911,0.079633,42.713625,-13.919094,-0.218380,4635726310813990900.000000,0.268453,-0.706441,0.351959,0.552267,-10.095523,-1.132016,-0.607098,0.440795,-0.188976,0.494666,41.237179,16.440100,10.527457,4635727814052544500.000000,-0.580617,-0.370474,-0.610326,0.391326,0
-10.415840,-0.014441,1.015449,0.582095,0.146441,0.060674,41.714931,-18.569694,6.726279,4635730821066522600.000000,0.676753,-0.243893,0.617366,0.318403,-9.694060,-0.112590,-2.686984,-0.042842,0.195470,0.059933,43.415053,-14.402092,-0.111208,4635726310813990900.000000,0.267895,-0.706847,0.352254,0.551831,-10.104037,-1.013778,-0.459060,0.400035,-0.199979,0.532420,41.352988,16.298449,10.357136,4635727814052544500.000000,-0.581372,-0.372460,-0.608358,0.391383,0
-10.429941,0.146972,0.942218,0.568648,0.105423,0.060027,41.700489,-18.682629,6.804664,4635730821066522600.000000,0.676958,-0.242311,0.618476,0.317018,-9.597717,-0.284859,-2.707333,0.007839,0.181109,0.052932,43.811050,-14.682819,0.075978,4635726310813990900.000000,0.267523,-0.707172,0.352629,0.551354,-10.159252,-1.091280,-0.397587,0.379976,-0.204849,0.570265,41.612908,16.248055,10.217469,4635727814052544500.000000,-0.582228,-0.374482,-0.606347,0.391302,0
-10.376134,0.163516,1.015941,0.561832,0.102345,0.069246,41.769073,-18.841318,7.059080,4635730821066522600.000000,0.677148,-0.240720,0.619574,0.315679,-9.344089,-0.533057,-2.460470,0.098388,0.173752,0.060884,42.807294,-13.993753,0.238723,4635726310813990900.000000,0.267410,-0.707368,0.353226,0.550775,-10.231932,-1.122960,-0.509579,0.360689,-0.194206,0.597752,41.602829,16.220386,9.936705,4635727814052544500.000000,-0.583126,-0.376541,-0.604346,0.391085,0
-10.256312,0.090113,1.096415,0.561635,0.103610,0.073280,41.923107,-18.872646,7.352058,4635730821066522600.000000,0.677341,-0.239087,0.620688,0.314314,-9.281692,-0.539836,-2.320752,0.155480,0.175889,0.062902,42.601116,-13.904232,0.332321,4635726215360249900.000000,0.267457,-0.707502,0.353963,0.550107,-10.212232,-0.784785,-0.635895,0.307456,-0.165037,0.610422,41.632609,15.995765,9.704885,4635727814052544500.000000,-0.584050,-0.378546,-0.602477,0.390654,0
-9.994691,0.053652,1.061892,0.577275,0.098467,0.072845,41.888272,-18.735496,7.478469,4635730821066522600.000000,0.677559,-0.237404,0.621804,0.312910,-9.310180,-0.396062,-2.632730,0.162240,0.165800,0.053526,43.329500,-14.338273,0.200744,4635726203439808500.000000,0.267560,-0.707618,0.354676,0.549448,-10.037074,-0.197813,-0.805782,0.204291,-0.117990,0.605170,41.816277,15.496927,9.704885,4635727814052544500.000000,-0.585005,-0.380361,-0.600893,0.389899,0
-9.554778,0.127198,0.932283,0.579358,0.125488,0.063205,41.802821,-18.633168,7.495346,4635730907231307800.000000,0.677701,-0.235807,0.622972,0.311483,-9.303399,-0.237385,-3.042306,0.157612,0.145508,0.050441,43.193893,-14.023644,0.172261,4635726203439808500.000000,0.267687,-0.707696,0.355347,0.548852,-9.890677,0.214460,-1.044010,0.045731,-0.069001,0.588356,42.030644,15.236966,9.687871,4635727814052544500.000000,-0.586058,-0.381824,-0.599710,0.388708,0
-9.274612,0.038732,0.746610,0.586651,0.164165,0.051456,41.727164,-18.684863,7.730452,4635730928440705000.000000,0.677778,-0.234235,0.624257,0.309926,-9.334593,-0.252285,-3.207831,0.157967,0.122244,0.049254,42.937514,-13.901522,0.420470,4635726203439808500.000000,0.267852,-0.707722,0.355988,0.548322,-10.012262,0.379591,-1.046615,-0.144336,-0.037379,0.562908,42.080496,15.219410,9.626359,4635727814052544500.000000,-0.587290,-0.382808,-0.598948,0.387052,0
-9.326758,-0.007385,0.649253,0.579121,0.184829,0.050849,41.781270,-18.633168,8.013634,4635730928440705000.000000,0.677790,-0.232711,0.625585,0.308365,-9.295260,-0.299759,-3.157649,0.163783,0.103492,0.046286,43.071785,-14.260954,0.625288,4635726203439808500.000000,0.268068,-0.707703,0.356613,0.547835,-10.237204,0.785615,-1.036786,-0.336584,-0.011507,0.535920,42.044978,15.060701,9.748996,4635727814052544500.000000,-0.588716,-0.383294,-0.598599,0.384938,0
-9.478205,-0.090567,0.517246,0.539946,0.175138,0.058128,41.729584,-18.616289,7.912375,4635730842286258200.000000,0.677759,-0.231300,0.626826,0.306973,-9.181338,-0.326884,-2.997616,0.165444,0.087234,0.035488,42.712399,-13.797147,0.636143,4635726203439808500.000000,0.268337,-0.707660,0.357191,0.547381,-10.131055,1.001498,-1.760154,-0.577090,0.020533,0.493008,42.128292,14.916902,9.883201,4635727776663550000.000000,-0.590373,-0.383131,-0.598778,0.382275,0
-9.636897,-0.178429,0.292403,0.511158,0.152260,0.058959,41.653930,-18.547727,7.873775,4635730821066522600.000000,0.677757,-0.229934,0.627964,0.305674,-9.146064,-0.090942,-3.054543,0.159868,0.065518,0.018993,42.209255,-13.147532,0.526304,4635726203439808500.000000,0.268660,-0.707599,0.357684,0.546981,-10.035561,0.776999,-2.485013,-0.873770,0.050158,0.435059,42.193034,14.801182,9.853525,4635727599304179700.000000,-0.592330,-0.382136,-0.599587,0.378963,0
-9.756415,-0.038604,0.263737,0.485733,0.119122,0.044179,41.698220,-18.530838,8.030489,4635730821066522600.000000,0.677833,-0.228635,0.628960,0.304430,-9.360330,0.372932,-3.042360,0.136371,0.030744,-0.004744,42.531886,-13.443003,0.610354,4635726203439808500.000000,0.269020,-0.707519,0.358014,0.546691,-10.199048,0.437817,-2.505656,-1.131005,0.067202,0.408077,42.202578,14.471036,10.146509,4635727599304179700.000000,-0.594599,-0.380457,-0.600875,0.375039,0
-9.866282,0.058768,0.454661,0.475524,0.104442,0.023449,41.653930,-18.599400,8.225808,4635730821066522600.000000,0.677962,-0.227400,0.629879,0.303166,-9.843058,0.589961,-3.007103,0.114537,-0.004616,-0.036899,42.883133,-13.998980,0.731046,4635726203439808500.000000,0.269441,-0.707431,0.358160,0.546502,-10.402832,0.009539,-2.121915,-1.317562,0.078580,0.392149,42.167040,14.120754,10.371499,4635727599304179700.000000,-0.597092,-0.378283,-0.602491,0.370659,0
-10.044692,0.102625,0.539677,0.468259,0.116253,0.001231,41.639454,-18.547735,8.332966,4635730821066522600.000000,0.678078,-0.226257,0.630798,0.301847,-10.268984,0.295823,-2.699320,0.082734,-0.009494,-0.068113,42.780227,-14.138854,0.744652,4635726203439808500.000000,0.269847,-0.707414,0.358135,0.546339,-10.455369,-0.071651,-1.778050,-1.457833,0.085591,0.385509,42.265209,13.964212,10.273859,4635727599304179700.000000,-0.599758,-0.375740,-0.604329,0.365919,0
-10.298765,0.031521,0.500367,0.463353,0.159907,-0.004918,41.708004,-18.393733,8.496762,4635730821066522600.000000,0.678080,-0.225197,0.631827,0.300479,-10.239331,0.137044,-2.487670,0.044877,-0.008664,-0.093394,42.599836,-13.931451,0.733805,4635726203439808500.000000,0.270197,-0.707479,0.357951,0.546203,-10.676168,-0.164528,-1.209076,-1.566786,0.078207,0.375106,42.428153,13.760409,10.292949,4635727599304179700.000000,-0.602572,-0.372871,-0.606306,0.360927,0
-10.655466,0.002414,0.331605,0.460794,0.167265,0.002371,41.793456,-18.487246,8.621113,4635730821066522600.000000,0.678049,-0.224134,0.632878,0.299132,-9.774253,0.013609,-2.563514,0.008321,-0.008545,-0.117962,42.655348,-13.752382,0.819216,4635726203439808500.000000,0.270496,-0.707623,0.357611,0.546092,-10.803016,-0.436271,-0.684694,-1.599622,0.058888,0.378588,42.570931,13.311916,10.868820,4635727599304179700.000000,-0.605462,-0.369882,-0.608250,0.355856,0
-10.975108,0.039168,0.185266,0.464656,0.098087,0.013697,41.741811,-18.655719,8.574297,4635730821066522600.000000,0.678185,-0.222947,0.633744,0.297872,-9.315822,0.000000,-2.792665,-0.028941,-0.020882,-0.142527,42.664875,-13.733329,0.830103,4635726203439808500.000000,0.270758,-0.707816,0.357100,0.546046,-10.972333,-0.794536,0.006868,-1.548216,0.025266,0.395771,42.545451,13.024245,11.384722,4635727599304179700.000000,-0.608357,-0.367000,-0.609980,0.350909,0
-11.055076,0.195705,0.148905,0.487132,-0.012209,0.010882,41.529069,-18.689535,8.714057,4635730821066522600.000000,0.678634,-0.221566,0.634322,0.296648,-9.026801,0.032539,-2.928373,-0.057788,-0.035718,-0.157606,42.664875,-13.809253,0.656563,4635726203439808500.000000,0.270992,-0.708030,0.356462,0.546069,-10.936790,-0.955864,0.593363,-1.436257,-0.026372,0.424840,42.630894,12.848066,11.521146,4635727599304179700.000000,-0.611230,-0.364385,-0.611345,0.346236,0
-10.942421,0.320055,0.146489,0.504410,-0.134623,0.004473,41.353479,-18.621000,8.742917,4635730821066522600.000000,0.679428,-0.220001,0.634566,0.295471,-9.018546,-0.310423,-2.876913,-0.065629,-0.048773,-0.162950,42.740792,-13.818781,0.548024,4635726203439808500.000000,0.271234,-0.708231,0.355776,0.546135,-10.760589,-1.177203,0.778603,-1.297072,-0.072169,0.459719,42.703618,12.532784,11.484495,4635727599304179700.000000,-0.614035,-0.362133,-0.612318,0.341887,0
-10.570801,0.508221,0.244380,0.499661,-0.198555,-0.024205,41.380795,-18.535559,8.583876,4635730821066522600.000000,0.680418,-0.218447,0.634594,0.294284,-9.183946,-0.560070,-2.825360,-0.051042,-0.058743,-0.158682,42.815396,-13.742866,0.623886,4635726203439808500.000000,0.271524,-0.708387,0.355124,0.546214,-10.485657,-1.276033,0.997165,-1.110686,-0.077887,0.493933,42.673455,12.250991,11.662809,4635727599304179700.000000,-0.616606,-0.360427,-0.612941,0.337925,0
-10.075080,0.510183,0.415377,0.490049,-0.161186,-0.058382,41.532331,-18.391391,8.691996,4635730821066522600.000000,0.681339,-0.217053,0.634683,0.292989,-9.258607,-0.553420,-2.700615,0.004006,-0.068357,-0.143852,42.899486,-13.657414,0.461265,4635726203439808500.000000,0.271957,-0.708435,0.354630,0.546257,-10.427241,-0.997992,1.326764,-0.871245,-0.064142,0.534196,42.496590,12.084324,11.711747,4635727599304179700.000000,-0.618824,-0.359450,-0.613189,0.334442,0
-9.914724,0.343907,0.529972,0.475298,-0.097301,-0.090849,41.693442,-18.222913,9.031700,4635730821066522600.000000,0.682131,-0.215830,0.634914,0.291544,-9.297950,-0.505958,-2.566348,0.047686,-0.064685,-0.127831,42.843960,-13.723783,0.276811,4635726203439808500.000000,0.272477,-0.708419,0.354286,0.546242,-10.447920,-0.624195,1.658475,-0.619333,-0.046726,0.572615,42.624403,11.882769,11.560410,4635727599304179700.000000,-0.620665,-0.359239,-0.613064,0.331473,0
-9.998077,0.109439,0.490609,0.471265,-0.091235,-0.113473,41.724903,-18.316266,9.028424,4635730821066522600.000000,0.682928,-0.214684,0.635135,0.290040,-9.442973,-0.424617,-2.627234,0.049493,-0.063140,-0.126041,42.684005,-13.657442,0.418969,4635726203439808500.000000,0.272996,-0.708401,0.353954,0.546222,-10.500483,-0.501775,2.010833,-0.424858,-0.035249,0.581727,42.941270,11.418933,11.609098,4635727599304179700.000000,-0.622192,-0.359567,-0.612680,0.328957,0
-9.973347,0.070823,0.329297,0.469341,-0.110055,-0.124347,41.666188,-18.357513,8.862272,4635730821066522600.000000,0.683765,-0.213590,0.635274,0.288569,-9.666709,-0.458414,-2.636799,0.032061,-0.068712,-0.133630,42.881687,-13.571992,0.612916,4635726203439808500.000000,0.273488,-0.708401,0.353553,0.546234,-10.508457,-0.084607,2.434846,-0.317222,-0.033211,0.570589,43.140470,11.007974,11.843298,4635727599304179700.000000,-0.623815,-0.359614,-0.612477,0.326197,0
-9.853597,0.122174,0.204905,0.458642,-0.065485,-0.125185,41.514657,-18.291433,8.904239,4635730821066522600.000000,0.684475,-0.212577,0.635525,0.287078,-9.551751,-0.431360,-2.593437,-0.010880,-0.068481,-0.133638,43.049950,-13.486541,0.374610,4635726203439808500.000000,0.273854,-0.708451,0.353054,0.546310,-10.487784,0.251630,2.970336,-0.262049,-0.022758,0.545793,43.079926,10.861981,11.836456,4635727599304179700.000000,-0.625006,-0.360284,-0.611948,0.324165,0
-9.807388,0.202782,0.212469,0.444968,-0.011451,-0.126686,41.617759,-18.068980,9.217187,4635730821066522600.000000,0.685045,-0.211634,0.635922,0.285531,-9.468938,-0.470622,-2.696375,-0.035942,-0.072156,-0.119290,42.775021,-13.336046,0.168358,4635726203439808500.000000,0.274118,-0.708499,0.352536,0.546449,-10.426753,0.192057,3.541426,-0.205501,-0.022373,0.517041,43.094733,10.738460,11.755730,4635727599304179700.000000,-0.626068,-0.361027,-0.611383,0.322349,0
-9.978669,0.278441,0.249087,0.427658,-0.018191,-0.128822,41.651661,-17.959420,9.280049,4635730821066522600.000000,0.685618,-0.210738,0.636275,0.284029,-9.514940,-0.790466,-2.569116,-0.025174,-0.078325,-0.091885,42.824843,-13.686858,0.244054,4635726203439808500.000000,0.274360,-0.708481,0.352117,0.546621,-10.384755,0.358555,4.044045,-0.136156,-0.046085,0.499438,43.165379,10.473467,11.755730,4635727599304179700.000000,-0.627060,-0.361872,-0.610687,0.320790,0
-10.100562,0.292978,0.246570,0.407786,-0.081511,-0.123252,41.583161,-17.944883,9.052559,4635730821066522600.000000,0.686314,-0.209848,0.636413,0.282694,-9.478418,-0.840943,-2.410436,-0.020654,-0.069559,-0.063997,43.800477,-14.459562,0.278034,4635726203439808500.000000,0.274540,-0.708436,0.351800,0.546793,-10.423007,0.667177,4.527133,-0.066860,-0.095546,0.486150,43.165379,10.412915,11.755730,4635727599304179700.000000,-0.628052,-0.362797,-0.609786,0.319515,0
-10.110153,0.332116,0.283287,0.387493,-0.132948,-0.125193,41.566208,-17.876390,9.221903,4635730993195041800.000000,0.687147,-0.208920,0.636389,0.281407,-9.418756,-0.939851,-2.403489,-0.029778,-0.053188,-0.028642,43.911400,-14.182738,0.280770,4635726203439808500.000000,0.274588,-0.708387,0.351585,0.546971,-10.400230,0.570882,4.794918,0.064603,-0.141103,0.483215,43.194977,10.372746,11.755730,4635727636495957000.000000,-0.628955,-0.363995,-0.608593,0.318649,0
-10.058814,0.410290,0.273411,0.373193,-0.140352,-0.122617,41.761872,-17.722467,9.502640,4635731035814887400.000000,0.687982,-0.208017,0.636328,0.280172,-9.422747,-1.190635,-2.469892,-0.027183,-0.049374,0.010524,43.086266,-13.409962,0.248253,4635726203439808500.000000,0.274548,-0.708287,0.351496,0.547177,-10.293137,0.139842,4.660811,0.262050,-0.183790,0.491946,43.323590,10.125981,11.757845,4635727814052544500.000000,-0.629676,-0.365675,-0.607009,0.318324,0
-10.036909,0.613157,0.288131,0.357806,-0.144208,-0.126049,41.937548,-17.629822,9.245306,4635731035814887400.000000,0.688799,-0.207199,0.636221,0.279011,-9.391606,-1.285760,-2.456430,0.000794,-0.040601,0.058571,43.285690,-13.751739,0.168292,4635726203439808500.000000,0.274469,-0.708104,0.351623,0.547372,-9.999243,-0.130269,4.235451,0.497833,-0.216177,0.498229,43.233447,9.848786,11.719322,4635727814052544500.000000,-0.630122,-0.367944,-0.605014,0.318625,0
-10.161683,0.786397,0.361468,0.324660,-0.149549,-0.133959,41.900563,-17.615282,9.011210,4635730863691483100.000000,0.689611,-0.206488,0.636052,0.277915,-9.420006,-1.044722,-2.366988,0.032721,-0.030039,0.106762,44.223587,-14.532686,0.277909,4635726203439808500.000000,0.274359,-0.707838,0.351977,0.547545,-9.594795,0.219247,3.510592,0.691847,-0.222504,0.486768,43.130157,9.780242,11.404781,4635727776891000800.000000,-0.630264,-0.370680,-0.602755,0.319452,0
-10.291014,0.768980,0.437129,0.302687,-0.175434,-0.141647,41.883602,-17.683765,8.982225,4635730821066522600.000000,0.690479,-0.205831,0.635775,0.276879,-9.467466,-0.839812,-2.236814,0.040110,-0.018409,0.142501,44.402315,-14.407716,0.455543,4635726298766126100.000000,0.274171,-0.707537,0.352466,0.547712,-9.261905,0.749101,2.698566,0.830051,-0.212871,0.465179,43.339328,9.777663,10.977279,4635727599304179700.000000,-0.630131,-0.373733,-0.600362,0.320662,0
-10.315256,0.580788,0.451674,0.286243,-0.213254,-0.143988,42.079237,-17.563790,8.974867,4635730821066522600.000000,0.691435,-0.205183,0.635367,0.275911,-9.592145,-0.839569,-2.221747,0.026367,-0.003816,0.167196,44.042095,-14.239448,0.476089,4635726310813990900.000000,0.273866,-0.707249,0.353014,0.547885,-9.029964,1.100068,1.892167,0.924582,-0.177252,0.436853,43.445213,9.674844,10.817872,4635727599304179700.000000,-0.629713,-0.377004,-0.597969,0.322122,0
-10.256560,0.409952,0.441891,0.275355,-0.241650,-0.143344,42.127750,-17.402658,8.962659,4635730821066522600.000000,0.692454,-0.204529,0.634864,0.274996,-9.607226,-0.733949,-2.405963,0.011293,0.001656,0.189747,44.082170,-14.655073,0.313546,4635726310813990900.000000,0.273456,-0.706957,0.353599,0.548089,-8.821262,1.345143,1.341883,0.991711,-0.143564,0.406986,43.336747,9.460272,10.827967,4635727599304179700.000000,-0.629052,-0.380415,-0.595610,0.323769,0
-10.114848,0.319739,0.429685,0.265743,-0.253589,-0.135429,42.059277,-17.371136,8.960234,4635730821066522600.000000,0.693486,-0.203869,0.634320,0.274139,-9.574718,-0.568530,-2.570144,0.011510,0.000240,0.213126,44.461573,-14.926645,0.217124,4635726310813990900.000000,0.272995,-0.706626,0.354252,0.548323,-8.736278,1.711337,1.243964,1.033574,-0.129575,0.382421,43.437433,9.414479,10.808966,4635727599304179700.000000,-0.628245,-0.383885,-0.593258,0.325554,0
-9.936611,0.324746,0.407699,0.255275,-0.262134,-0.132663,42.042297,-17.302673,8.881992,4635730821066522600.000000,0.694527,-0.203221,0.633741,0.273324,-9.581439,-0.538498,-2.685484,0.007957,-0.004740,0.233779,43.912272,-14.444829,0.272535,4635726215511995400.000000,0.272484,-0.706257,0.354951,0.548600,-8.709750,1.965647,1.399373,1.058963,-0.126781,0.356189,43.627148,9.512608,10.684309,4635727599304179700.000000,-0.627340,-0.387353,-0.590908,0.327460,0
-9.870864,0.329600,0.412624,0.239459,-0.272390,-0.122181,42.169436,-17.090083,8.696315,4635730821066522600.000000,0.695568,-0.202579,0.633121,0.272589,-9.571977,-0.591299,-2.578654,0.019802,-0.008185,0.250281,42.644961,-13.665228,0.334944,4635726203439808500.000000,0.271975,-0.705842,0.355722,0.548888,-8.641492,1.731342,1.626144,1.102537,-0.133267,0.322015,43.617050,9.656506,10.491138,4635727599304179700.000000,-0.626321,-0.390833,-0.588523,0.329565,0
-9.824462,0.339380,0.444392,0.230070,-0.278793,-0.116210,42.132532,-16.914395,8.645269,4635730821066522600.000000,0.696610,-0.201939,0.632476,0.271900,-9.494761,-0.663171,-2.411868,0.031791,-0.005701,0.270096,42.353118,-13.650476,0.255129,4635726203439808500.000000,0.271452,-0.705389,0.356581,0.549173,-8.415430,1.757106,1.658858,1.171096,-0.147958,0.291710,43.671898,9.691779,10.320685,4635727599304179700.000000,-0.625169,-0.394387,-0.586040,0.331932,0
-9.785412,0.351587,0.422334,0.225161,-0.290979,-0.116216,42.184000,-16.941519,8.652622,4635730821066522600.000000,0.697678,-0.201299,0.631788,0.271233,-9.398485,-0.573906,-2.435985,0.035956,-0.000601,0.286597,42.638611,-13.941754,0.254982,4635726203439808500.000000,0.270895,-0.704917,0.357503,0.549454,-8.180173,1.924551,1.445457,1.266528,-0.156515,0.282360,43.947100,9.545293,10.198165,4635727599304179700.000000,-0.623851,-0.398145,-0.583403,0.334562,0
-9.670563,0.197554,0.336821,0.209765,-0.309998,-0.113861,42.328116,-17.024534,8.576818,4635730821066522600.000000,0.698779,-0.200677,0.631028,0.270631,-9.365826,-0.529041,-2.625647,0.052432,-0.008531,0.296931,42.828747,-14.204976,0.343022,4635726203439808500.000000,0.270375,-0.704391,0.358484,0.549745,-8.071202,1.895923,1.319281,1.366302,-0.196041,0.287448,43.965529,9.422007,10.015072,4635727599304179700.000000,-0.622450,-0.402107,-0.580496,0.337476,0
-9.555853,0.070700,0.395611,0.202730,-0.302058,-0.119212,42.164141,-17.041534,8.479171,4635730821066522600.000000,0.699857,-0.200099,0.630276,0.270025,-9.341411,-0.514085,-2.714006,0.069642,-0.014353,0.300857,43.302982,-14.818830,0.375681,4635726298727469100.000000,0.269904,-0.703826,0.359508,0.550031,-8.062328,1.832337,1.484743,1.479933,-0.259723,0.302801,43.748786,9.439313,9.815096,4635727599304179700.000000,-0.621011,-0.406297,-0.577217,0.340718,0
-9.465543,-0.019610,0.522599,0.207868,-0.255451,-0.130111,42.047102,-16.914434,8.459730,4635730821066522600.000000,0.700827,-0.199585,0.629656,0.269335,-9.381991,-0.415223,-2.722251,0.083887,-0.025380,0.300270,43.815641,-15.477959,0.313438,4635726310813990900.000000,0.269492,-0.703220,0.360551,0.550326,-7.931386,1.676980,1.715799,1.602660,-0.317624,0.295170,43.728676,9.598006,9.530116,4635727599304179700.000000,-0.619465,-0.410685,-0.573601,0.344358,0
-9.497421,-0.212630,0.519998,0.220480,-0.216371,-0.135873,42.225655,-16.814391,8.371726,4635730821066522600.000000,0.701711,-0.199093,0.629158,0.268561,-9.430816,-0.207895,-2.548963,0.084504,-0.022913,0.301097,43.277729,-15.108181,0.196880,4635726310813990900.000000,0.269077,-0.702616,0.361599,0.550613,-7.699469,1.429076,1.777203,1.729015,-0.378389,0.265042,44.011091,9.744047,9.227068,4635727599304179700.000000,-0.617773,-0.415219,-0.569668,0.348464,0
-9.568224,-0.500760,0.473606,0.227520,-0.193104,-0.133301,42.469762,-16.865820,8.428073,4635730821066522600.000000,0.702535,-0.198600,0.628736,0.267756,-9.425486,-0.172274,-2.570280,0.089125,-0.020535,0.299321,42.974426,-14.834991,0.345664,4635726310813990900.000000,0.268675,-0.702013,0.362655,0.550883,-7.490700,1.232083,1.593660,1.821977,-0.425279,0.227804,44.186154,9.814753,8.919344,4635727599304179700.000000,-0.615941,-0.419812,-0.565511,0.352946,0
-9.592587,-0.766828,0.434555,0.241414,-0.189062,-0.126463,42.449957,-16.755756,8.447523,4635730821066522600.000000,0.703352,-0.198051,0.628347,0.266931,-9.456624,-0.257595,-2.673289,0.113429,-0.032621,0.296237,43.465792,-15.392744,0.561277,4635726310813990900.000000,0.268368,-0.701360,0.363743,0.551148,-7.414107,1.077168,1.347406,1.900141,-0.482259,0.186699,44.103240,9.829499,8.524062,4635727599304179700.000000,-0.614007,-0.424398,-0.561128,0.357795,0
-9.536365,-0.925428,0.427259,0.261713,-0.178798,-0.117275,42.432934,-16.587283,8.281338,4635730821066522600.000000,0.704147,-0.197430,0.628017,0.266070,-9.417393,-0.171037,-2.739810,0.148666,-0.041766,0.290188,43.249858,-15.477616,0.412576,4635726310813990900.000000,0.268192,-0.700653,0.364884,0.551378,-7.430096,0.894492,1.074205,2.006291,-0.540269,0.147694,44.133160,9.887566,8.064834,4635727636358193200.000000,-0.611918,-0.429047,-0.556468,0.363069,0
-9.521774,-0.971726,0.466357,0.282219,-0.152297,-0.105952,42.491582,-16.553238,8.239997,4635730821066522600.000000,0.704875,-0.196748,0.627796,0.265168,-9.466096,0.014704,-2.844203,0.174556,-0.060743,0.280934,42.390557,-14.817899,0.195562,4635726310813990900.000000,0.268142,-0.699887,0.366036,0.551612,-7.405684,0.816638,0.711805,2.113241,-0.591976,0.107698,44.320871,9.841696,7.686442,4635727814052544500.000000,-0.609648,-0.433765,-0.551540,0.368756,0
-9.482678,-0.839754,0.446766,0.310210,-0.108706,-0.104466,42.643016,-16.690076,8.318190,4635730821066522600.000000,0.705509,-0.196029,0.627733,0.264161,-9.483781,0.231677,-2.759005,0.172572,-0.075347,0.266580,42.210590,-14.658481,0.246758,4635726310813990900.000000,0.268140,-0.699110,0.367123,0.551875,-7.370747,0.980378,0.300558,2.189776,-0.626561,0.076760,44.271202,9.937667,7.291191,4635727814052544500.000000,-0.607219,-0.438515,-0.546415,0.374727,0
-9.433853,-0.883872,0.390602,0.324723,-0.065132,-0.096127,42.677082,-16.460273,8.406067,4635730821066522600.000000,0.706031,-0.195291,0.627820,0.263103,-9.441808,0.223847,-2.833356,0.156801,-0.093974,0.247834,42.287683,-14.952298,0.353881,4635726310813990900.000000,0.268163,-0.698336,0.368099,0.552195,-7.312641,1.281298,-0.153128,2.268578,-0.639453,0.054624,44.112947,10.086229,6.832015,4635727814052544500.000000,-0.604584,-0.443353,-0.541124,0.380922,0
-9.443658,-0.834947,0.261172,0.338823,-0.057467,-0.091432,42.540282,-16.062312,8.256993,4635730821066522600.000000,0.706539,-0.194506,0.627949,0.262013,-9.392983,0.154724,-2.800985,0.160570,-0.114146,0.227661,42.157800,-15.207390,0.279543,4635726310813990900.000000,0.268275,-0.697540,0.369001,0.552543,-7.377476,1.660872,-0.631725,2.360226,-0.632902,0.050571,44.084659,10.259641,6.466199,4635727814052544500.000000,-0.601697,-0.448379,-0.535657,0.387283,0
-9.448530,-0.700628,0.183079,0.344373,-0.068796,-0.090793,42.564812,-15.979491,8.137403,4635730821066522600.000000,0.707079,-0.193690,0.628049,0.260919,-9.409163,0.048976,-2.697983,0.183095,-0.132545,0.214951,42.280808,-15.158996,0.181885,4635726310813990900.000000,0.268509,-0.696696,0.369898,0.552896,-7.393483,2.534290,-1.231493,2.399074,-0.603659,0.055834,44.360409,10.476458,6.148408,4635727814052544500.000000,-0.598618,-0.453514,-0.530134,0.393622,0
-9.438758,-0.602999,0.200222,0.355273,-0.080117,-0.091648,42.647832,-16.174944,8.205877,4635730821066522600.000000,0.707655,-0.192834,0.628125,0.259806,-9.531090,0.090796,-2.674794,0.178273,-0.145015,0.195617,42.298653,-15.073544,0.084226,4635726310813990900.000000,0.268792,-0.695856,0.370712,0.553270,-7.394279,3.414550,-2.000195,2.339150,-0.565324,0.076127,44.454764,10.559801,5.736404,4635727814052544500.000000,-0.595539,-0.458561,-0.524712,0.399664,0
-9.426552,-0.419860,0.383392,0.366379,-0.037792,-0.091006,42.674645,-16.360423,8.305952,4635730821066522600.000000,0.708127,-0.191990,0.628336,0.258633,-9.546189,0.238494,-2.727589,0.170677,-0.158659,0.177220,42.092817,-15.291438,0.084078,4635726310813990900.000000,0.269116,-0.695022,0.371439,0.553673,-7.501648,3.932653,-2.408944,2.288763,-0.508985,0.094767,44.384416,10.647750,5.179462,4635727814052544500.000000,-0.592405,-0.463573,-0.519427,0.405403,0
-9.521813,-0.270962,0.388180,0.356543,0.003216,-0.095067,42.608693,-16.257766,8.325449,4635730821066522600.000000,0.708486,-0.191230,0.628652,0.257440,-9.513690,0.137189,-2.756125,0.176471,-0.178233,0.161905,42.001710,-15.612790,0.172118,4635726310813990900.000000,0.269523,-0.694158,0.372113,0.554107,-7.561374,4.644473,-2.904993,2.218195,-0.412487,0.107654,44.447551,10.766534,4.720187,4635727814052544500.000000,-0.589166,-0.468559,-0.514426,0.410733,0
-9.653669,-0.175752,0.261179,0.351847,-0.023517,-0.099553,42.591629,-16.096618,8.393846,4635730821066522600.000000,0.708915,-0.190465,0.628881,0.256266,-9.487903,0.067914,-2.726377,0.192477,-0.193786,0.148849,42.134284,-15.649891,0.269767,4635726310813990900.000000,0.270029,-0.693259,0.372769,0.554545,-7.732265,5.198254,-3.933361,2.037329,-0.316062,0.127661,44.493497,10.678599,4.341788,4635727814052544500.000000,-0.586059,-0.473271,-0.509890,0.415405,0
-9.631626,-0.061008,0.368705,0.349711,-0.023497,-0.102115,42.591629,-16.064943,8.489052,4635730821066522600.000000,0.709343,-0.189713,0.629103,0.255089,-9.485152,0.158523,-2.689755,0.203881,-0.216322,0.133188,42.152164,-15.509077,0.194116,4635726310813990900.000000,0.270640,-0.692319,0.373379,0.555011,-7.821263,5.057917,-4.678327,1.759358,-0.221850,0.118919,44.435343,10.534594,3.980132,4635727814052544500.000000,-0.583248,-0.477418,-0.506050,0.419294,0
-9.609665,0.100134,0.334466,0.339028,0.034194,-0.106816,42.523253,-15.996565,8.498792,4635730821066522600.000000,0.709616,-0.189066,0.629480,0.253880,-9.528475,0.225056,-2.685629,0.209823,-0.233185,0.120010,42.076350,-15.415381,0.269755,4635726310813990900.000000,0.271323,-0.691352,0.373945,0.555501,-7.493026,4.330535,-4.857994,1.417558,-0.088294,0.045906,44.506479,10.513834,3.728782,4635727814052544500.000000,-0.580680,-0.480793,-0.503254,0.422356,0
-9.763518,0.144050,0.307624,0.333902,0.043793,-0.106173,42.574556,-15.852504,8.418206,4635730821066522600.000000,0.709856,-0.188443,0.629878,0.252679,-9.566473,0.166959,-2.718120,0.224640,-0.254893,0.106245,42.142525,-15.481555,0.194127,4635726310813990900.000000,0.272115,-0.690338,0.374480,0.556014,-7.118635,3.857919,-5.197475,1.064754,0.086297,-0.057627,44.529751,10.733164,3.654589,4635727814052544500.000000,-0.578255,-0.483391,-0.501694,0.424566,0
-9.997887,0.234393,0.402856,0.315315,0.010250,-0.101474,42.718603,-15.684055,8.467063,4635730821066522600.000000,0.710165,-0.187825,0.630161,0.251565,-9.559772,0.169528,-2.678924,0.235925,-0.266901,0.089514,42.087173,-15.556184,-0.239323,4635726215540667400.000000,0.272995,-0.689308,0.374979,0.556524,-7.158292,3.897598,-5.824248,0.689633,0.282620,-0.145233,44.385740,10.864589,3.735465,4635727814052544500.000000,-0.576012,-0.485243,-0.501441,0.425802,0
-10.115061,0.295423,0.485860,0.288612,-0.034611,-0.095278,42.818694,-15.581523,8.708782,4635730821066522600.000000,0.710564,-0.187220,0.630287,0.250572,-9.504245,0.170904,-2.673421,0.246606,-0.279477,0.071478,41.927292,-15.564439,-0.542080,4635726203439808500.000000,0.273968,-0.688263,0.375436,0.557031,-7.697882,3.660161,-6.370545,0.353420,0.471645,-0.204798,44.352349,10.852003,3.752246,4635727814052544500.000000,-0.573943,-0.486494,-0.502353,0.426092,0
-10.122378,0.393086,0.344235,0.253148,-0.075414,-0.087160,42.708810,-15.564439,8.921184,4635730821066522600.000000,0.711045,-0.186624,0.630270,0.249692,-9.432385,0.192562,-2.695079,0.264866,-0.303664,0.054269,41.983817,-15.640242,-0.400483,4635726203439808500.000000,0.275069,-0.687167,0.375857,0.557557,-8.352215,2.873048,-6.184208,0.086258,0.636455,-0.251760,44.456524,10.843753,3.881340,4635727814052544500.000000,-0.571983,-0.487297,-0.504226,0.425598,0
-10.159004,0.307617,0.285651,0.210636,-0.107244,-0.082888,42.540348,-15.632807,8.813732,4635730821066522600.000000,0.711557,-0.186147,0.630107,0.249002,-9.391629,0.314436,-2.687007,0.280302,-0.321719,0.030546,42.145072,-15.801496,-0.291798,4635726203439808500.000000,0.276298,-0.686046,0.376224,0.558083,-9.139280,2.225199,-4.647546,-0.164583,0.705755,-0.295068,44.285250,11.134264,4.164207,4635727814052544500.000000,-0.570304,-0.487530,-0.506792,0.424535,0
-10.198064,0.192880,0.544442,0.188208,-0.128605,-0.083956,42.574537,-15.649891,8.620873,4635730821066522600.000000,0.712109,-0.185714,0.629855,0.248381,-9.365838,0.437876,-2.696456,0.286728,-0.342597,0.002192,42.164371,-15.820795,-0.454012,4635726203439808500.000000,0.277642,-0.684911,0.376500,0.558623,-9.496002,2.077974,-2.459502,-0.351861,0.748685,-0.347255,44.122485,11.303687,4.471851,4635727814052544500.000000,-0.568816,-0.487277,-0.509891,0.423109,0
-10.224920,0.307618,0.708024,0.162573,-0.159793,-0.090365,42.845529,-15.454584,8.562273,4635730821066522600.000000,0.712729,-0.185340,0.629480,0.247832,-9.449697,0.494984,-2.719491,0.288279,-0.368697,-0.030438,42.088578,-15.669211,-0.562708,4635726203439808500.000000,0.279107,-0.683762,0.376655,0.559196,-9.730824,1.767541,-0.831246,-0.503149,0.753461,-0.402395,44.253571,11.255588,4.867002,4635727814052544500.000000,-0.567518,-0.486550,-0.513372,0.421475,0
-10.210276,0.478506,0.839850,0.117717,-0.171757,-0.103822,42.967606,-15.210460,8.401163,4635730821066522600.000000,0.713360,-0.185121,0.629013,0.247367,-9.579854,0.576305,-2.668107,0.289347,-0.395403,-0.064501,42.003116,-15.498289,-0.660378,4635726203439808500.000000,0.280695,-0.682600,0.376682,0.559801,-10.358886,1.349099,0.599477,-0.615665,0.696027,-0.447712,44.148540,11.368635,5.326332,4635727814052544500.000000,-0.566483,-0.485350,-0.516997,0.419817,0
-10.215153,0.590822,1.062003,0.079690,-0.148264,-0.128173,42.855336,-15.220178,8.362071,4635730821066522600.000000,0.713925,-0.185103,0.628556,0.246912,-9.638329,0.640093,-2.607076,0.290415,-0.412630,-0.101521,42.145054,-15.478988,-0.844649,4635726203439808500.000000,0.282398,-0.681453,0.376585,0.560408,-10.544088,1.423424,1.927103,-0.701361,0.648632,-0.479023,43.900278,11.648678,5.671239,4635727814052544500.000000,-0.565657,-0.483788,-0.520715,0.418137,0
-10.110194,0.688481,1.247568,0.023937,-0.068591,-0.148897,42.764989,-15.430117,8.528057,4635730821066522600.000000,0.714258,-0.185389,0.628262,0.246482,-9.589711,0.679475,-2.491903,0.287694,-0.424863,-0.135116,42.305127,-15.554779,-1.115756,4635726203439808500.000000,0.284190,-0.680329,0.376370,0.561012,-10.703799,1.572990,2.249971,-0.786280,0.600206,-0.505876,43.943851,11.807358,5.856426,4635727814052544500.000000,-0.565048,-0.481873,-0.524509,0.416424,0
-10.034501,0.815419,1.232964,-0.035233,-0.016888,-0.172393,42.818665,-15.478988,8.725800,4635730821066522600.000000,0.714447,-0.185931,0.628053,0.246059,-9.517847,0.607823,-2.402311,0.289227,-0.436612,-0.165386,42.182311,-15.488647,-1.158323,4635726203439808500.000000,0.286074,-0.679220,0.376057,0.561608,-10.706246,1.043482,1.767602,-0.784257,0.587574,-0.524094,43.785156,11.963962,6.066398,4635727814052544500.000000,-0.564420,-0.479891,-0.528295,0.414775,0
-10.032041,0.998509,1.279315,-0.098251,-0.009399,-0.183292,42.962688,-15.283739,8.745390,4635730821066522600.000000,0.714578,-0.186697,0.627793,0.245761,-9.531220,0.435771,-2.284390,0.286626,-0.442677,-0.198133,42.012804,-15.414030,-0.986485,4635726203439808500.000000,0.288036,-0.678148,0.375635,0.562183,-10.792048,-0.189071,1.286299,-0.634502,0.606251,-0.518844,43.670420,12.097888,6.363908,4635727814052544500.000000,-0.563449,-0.478295,-0.531846,0.413398,0
-9.907575,0.969292,1.313510,-0.153798,-0.021572,-0.190769,42.926138,-15.166502,8.584302,4635730821066522600.000000,0.714690,-0.187675,0.627421,0.245641,-9.566460,0.263488,-2.173143,0.296684,-0.447070,-0.226509,42.437330,-15.687217,-1.040167,4635726203439808500.000000,0.290097,-0.677094,0.375150,0.562717,-11.059855,-1.006886,1.121996,-0.417537,0.614584,-0.500199,43.765978,12.173218,6.742300,4635727814052544500.000000,-0.562050,-0.477257,-0.534997,0.412435,0
-9.807461,0.844804,1.416012,-0.219158,-0.063002,-0.199954,42.772364,-15.090820,8.467092,4635730821066522600.000000,0.714870,-0.188822,0.626853,0.245689,-9.440693,0.125063,-2.009147,0.296119,-0.444712,-0.252386,43.165182,-16.080393,-1.288008,4635726203439808500.000000,0.292212,-0.676082,0.374591,0.563211,-11.941568,-1.695081,1.798619,-0.201131,0.577140,-0.480731,43.797037,12.283772,7.089350,4635727814052544500.000000,-0.560332,-0.476699,-0.537643,0.411979,0
-9.614620,0.622654,1.733337,-0.302899,-0.051279,-0.202734,42.865027,-14.880901,8.359664,4635730821066522600.000000,0.714955,-0.190236,0.626231,0.245937,-9.369992,0.163990,-1.924859,0.279775,-0.450032,-0.280861,43.391551,-16.125980,-1.491594,4635726203439808500.000000,0.294354,-0.675118,0.373904,0.563708,-12.975678,-1.754025,2.589683,0.049230,0.497916,-0.416950,43.590202,12.515709,7.265839,4635727814052544500.000000,-0.558397,-0.476728,-0.539543,0.412088,0
-9.609649,0.437091,1.933592,-0.384502,-0.036535,-0.214051,43.033472,-14.958891,8.269328,4635730821066522600.000000,0.714946,-0.191939,0.625558,0.246352,-9.330609,0.225020,-1.927386,0.242678,-0.454547,-0.313485,43.485287,-16.050217,-1.589480,4635726298638732300.000000,0.296474,-0.674236,0.373031,0.564231,-14.002150,-1.761041,2.826259,0.355806,0.414155,-0.342311,43.504760,12.747626,7.353373,4635727814052544500.000000,-0.556166,-0.477491,-0.540570,0.412875,0
-9.726791,0.441883,1.906833,-0.483391,-0.082004,-0.231352,42.999399,-15.254205,8.340042,4635730821066522600.000000,0.714990,-0.193935,0.624630,0.247012,-9.358929,0.210292,-1.972067,0.216413,-0.460714,-0.344707,43.711463,-16.040527,-1.772359,4635726310813990900.000000,0.298601,-0.673416,0.371998,0.564770,-14.488020,-1.544817,2.446075,0.567460,0.314327,-0.261769,43.421398,12.952391,7.451032,4635727814052544500.000000,-0.553873,-0.478750,-0.540836,0.414148,0
-9.792753,0.656623,1.989742,-0.575898,-0.148650,-0.249510,42.855393,-15.183658,8.518222,4635730821066522600.000000,0.715161,-0.196150,0.623402,0.247870,-9.514585,0.142594,-2.020887,0.197532,-0.467121,-0.371889,43.522686,-15.889021,-1.881063,4635726310813990900.000000,0.300747,-0.672642,0.370834,0.565319,-14.413949,-1.095747,1.807128,0.717546,0.249171,-0.202561,43.358605,13.025633,7.515246,4635727814052544500.000000,-0.551525,-0.480372,-0.540570,0.415749,0
-9.890380,0.912978,2.033741,-0.650251,-0.182853,-0.277062,42.882128,-14.895641,8.381719,4635730821066522600.000000,0.715383,-0.198622,0.621966,0.248866,-9.739592,-0.006399,-2.113002,0.200205,-0.472583,-0.394805,43.494976,-15.945375,-1.978720,4635726310813990900.000000,0.302961,-0.671883,0.369602,0.565847,-12.227571,-0.161894,-0.287175,0.707776,0.306856,-0.165409,43.375646,13.100959,7.415507,4635727814052544500.000000,-0.549124,-0.482150,-0.540374,0.417122,0
-10.009995,1.159551,1.989845,-0.720742,-0.202509,-0.306967,43.150531,-14.705137,7.947324,4635730735234172900.000000,0.715621,-0.201358,0.620368,0.249969,-9.960711,-0.294954,-2.113267,0.235847,-0.485499,-0.407767,43.927839,-15.955076,-2.065558,4635726310813990900.000000,0.305323,-0.671063,0.368399,0.566335,-11.306666,0.204822,-1.880605,0.523142,0.335207,-0.174042,43.494647,13.198958,7.374602,4635727814052544500.000000,-0.547010,-0.483531,-0.540575,0.418038,0
-10.151581,1.228049,2.016631,-0.771600,-0.198468,-0.343705,43.341063,-14.741605,7.624926,4635730713692340200.000000,0.715818,-0.204387,0.618677,0.251138,-9.996475,-0.459427,-2.014510,0.301866,-0.497489,-0.410047,43.680344,-15.295119,-2.096896,4635726310813990900.000000,0.307890,-0.670128,0.367327,0.566748,-10.646230,1.338760,-1.859580,0.260486,0.366956,-0.202284,43.379480,13.328390,7.650934,4635727832476480500.000000,-0.545302,-0.484302,-0.541360,0.418361,0
-10.229764,0.988997,1.977639,-0.801308,-0.164948,-0.386428,43.304599,-14.690445,7.490526,4635730713692340200.000000,0.715942,-0.207635,0.617012,0.252212,-9.803128,-0.411177,-1.872190,0.369401,-0.498825,-0.417742,42.959895,-14.334115,-2.132129,4635726310813990900.000000,0.310664,-0.669110,0.366388,0.567045,-10.505682,2.034803,-1.027466,-0.042587,0.372539,-0.243264,43.103987,13.303623,7.798084,4635727921426726900.000000,-0.544119,-0.484301,-0.542767,0.418080,0
-10.173722,0.566803,1.780034,-0.809012,-0.128848,-0.426799,43.355743,-14.614765,7.461175,4635730713692340200.000000,0.715999,-0.211045,0.615403,0.253149,-9.626669,-0.251383,-1.768976,0.410188,-0.495985,-0.428180,43.023862,-14.286537,-2.471673,4635726310813990900.000000,0.313568,-0.668054,0.365516,0.567254,-10.269882,1.949654,-0.237490,-0.245495,0.363415,-0.258156,43.030744,13.232825,7.744034,4635727921426726900.000000,-0.543338,-0.483788,-0.544534,0.417391,0
-10.029729,0.154132,1.645645,-0.788314,-0.109817,-0.471444,43.431441,-14.531761,7.302623,4635730713692340200.000000,0.716061,-0.214525,0.613824,0.253881,-9.574775,-0.221123,-1.779501,0.437158,-0.502246,-0.443593,43.335374,-14.435495,-2.763524,4635726310813990900.000000,0.316590,-0.666965,0.364652,0.567412,-9.716374,1.261181,0.203340,-0.307840,0.378583,-0.263345,42.955407,13.272595,7.873088,4635727921426726900.000000,-0.542637,-0.483146,-0.546453,0.416540,0
-9.871028,-0.170669,1.584558,-0.759903,-0.112791,-0.505424,43.514445,-14.514603,7.107300,4635730713692340200.000000,0.716181,-0.218002,0.612226,0.254439,-9.538153,-0.208916,-1.706561,0.455221,-0.512563,-0.470027,43.070024,-14.161502,-2.719775,4635726310813990900.000000,0.319737,-0.665860,0.363741,0.567531,-9.226360,0.919024,0.197755,-0.311839,0.398296,-0.271127,42.884609,13.504513,8.120359,4635727903026351100.000000,-0.541882,-0.482508,-0.548435,0.415655,0
-9.536750,-0.417293,1.584510,-0.714847,-0.106609,-0.514204,43.531601,-14.456071,7.068087,4635730713692340200.000000,0.716340,-0.221336,0.610689,0.254806,-9.544800,-0.023612,-1.577826,0.453381,-0.513779,-0.495908,43.258285,-14.275424,-2.872321,4635726310813990900.000000,0.322938,-0.664786,0.362746,0.567614,-9.157645,1.180279,0.268563,-0.295543,0.409131,-0.268960,42.872057,13.696707,8.224639,4635727814052544500.000000,-0.541071,-0.481929,-0.550406,0.414778,0
-9.041320,-0.795514,1.499177,-0.647795,-0.052617,-0.490097,43.590123,-14.236526,6.980301,4635730713692340200.000000,0.716388,-0.224463,0.609399,0.255022,-9.621902,0.086528,-1.432755,0.425449,-0.501476,-0.531949,43.958047,-14.651799,-3.131107,4635726310813990900.000000,0.326124,-0.663825,0.361598,0.567650,-9.148935,1.164265,0.264379,-0.255293,0.415906,-0.261666,42.813455,13.669515,8.403220,4635727814052544500.000000,-0.540173,-0.481466,-0.552305,0.413961,0
-8.652964,-1.308092,1.311284,-0.580498,-0.001117,-0.450587,43.595090,-13.931408,6.870437,4635730713692340200.000000,0.716303,-0.227381,0.608351,0.255181,-9.664092,0.032757,-1.329523,0.403935,-0.498947,-0.574070,44.174115,-14.329935,-3.172535,4635726310813990900.000000,0.329342,-0.662954,0.360282,0.567647,-9.039079,0.868145,0.250419,-0.177787,0.423169,-0.255258,42.823570,13.565187,8.498779,4635727814052544500.000000,-0.539111,-0.481202,-0.554071,0.413292,0
-8.386755,-1.581850,1.269570,-0.514279,-0.020468,-0.386746,43.660904,-13.731076,6.994640,4635730713692340200.000000,0.716272,-0.229878,0.607385,0.255333,-9.711527,0.002783,-1.156161,0.381749,-0.490308,-0.618684,44.115088,-13.979818,-3.260452,4635726120544981000.000000,0.332587,-0.662192,0.358796,0.567584,-8.956389,0.800759,0.280770,-0.091750,0.422043,-0.249581,42.796394,13.748969,8.619769,4635727814052544500.000000,-0.537886,-0.481140,-0.555673,0.412808,0
-8.123109,-1.477302,1.464613,-0.444643,-0.067024,-0.324998,43.746355,-13.628442,6.943695,4635730971027009500.000000,0.716355,-0.231959,0.606409,0.255535,-9.760356,0.129788,-1.102841,0.348909,-0.478802,-0.665439,44.181058,-13.940855,-3.531161,4635726096065626100.000000,0.335831,-0.661564,0.357115,0.567467,-9.007308,1.052929,0.274500,-0.030925,0.411756,-0.248359,42.610529,14.026974,8.927372,4635727814052544500.000000,-0.536563,-0.481198,-0.557142,0.412482,0
-7.991076,-1.167413,1.767274,-0.373292,-0.068374,-0.292488,43.822053,-13.552742,6.541264,4635731035814887400.000000,0.716456,-0.233782,0.605519,0.255701,-9.830816,0.200567,-1.196008,0.324192,-0.474623,-0.711491,44.255695,-13.865145,-3.651087,4635726096065626100.000000,0.339104,-0.661040,0.355250,0.567302,-9.057893,1.240977,0.233703,0.020735,0.410929,-0.252294,42.374638,14.123312,9.224292,4635727814052544500.000000,-0.535129,-0.481359,-0.558526,0.412284,0
-8.088460,-0.981640,1.977393,-0.288073,-0.022706,-0.278799,43.768521,-13.469745,6.513774,4635731035814887400.000000,0.716512,-0.235357,0.604870,0.255638,-9.860796,0.056124,-1.305863,0.318674,-0.467634,-0.747954,44.253232,-13.487713,-3.673035,4635726096065626100.000000,0.342433,-0.660584,0.353275,0.567067,-9.078783,1.201939,0.122530,0.075462,0.419417,-0.258857,42.533337,14.001891,9.143345,4635727814052544500.000000,-0.533553,-0.481639,-0.559846,0.412210,0
-8.332470,-0.942425,1.867939,-0.205390,-0.039909,-0.254464,43.692821,-13.325781,6.833278,4635731035814887400.000000,0.716677,-0.236573,0.604292,0.255418,-9.809517,-0.147198,-1.329212,0.322093,-0.458265,-0.773737,44.392406,-13.072711,-3.760932,4635726096065626100.000000,0.345813,-0.660173,0.351245,0.566755,-9.225920,1.050300,-0.246099,0.110893,0.416915,-0.260080,42.627277,14.054110,9.224807,4635727814052544500.000000,-0.531907,-0.481989,-0.561100,0.412224,0
-8.542502,-0.910717,1.831110,-0.145548,-0.126347,-0.234374,43.736596,-13.225605,6.675367,4635731035814887400.000000,0.717097,-0.237467,0.603539,0.255192,-9.726856,-0.203342,-1.233292,0.315958,-0.446760,-0.801143,44.475409,-12.873921,-3.945092,4635726096065626100.000000,0.349219,-0.659828,0.349137,0.566371,-9.490281,0.704670,-0.714748,0.145927,0.415565,-0.256145,42.405477,14.319602,9.686235,4635727814052544500.000000,-0.530197,-0.482421,-0.562280,0.412312,0
-8.747546,-0.630361,2.191843,-0.108141,-0.183019,-0.223042,43.809830,-13.276657,6.392174,4635731035814887400.000000,0.717666,-0.238199,0.602650,0.255009,-9.781978,-0.185898,-1.242368,0.295233,-0.428385,-0.829864,44.548662,-12.638114,-4.140431,4635726096065626100.000000,0.352603,-0.659587,0.346921,0.565916,-9.728167,0.437061,-1.331380,0.167278,0.426556,-0.251043,42.213200,14.394934,9.993370,4635727850775984100.000000,-0.528426,-0.482929,-0.563435,0.412415,0
-9.023312,-0.444550,2.497267,-0.076735,-0.187148,-0.238168,43.824577,-13.430351,6.345392,4635731035814887400.000000,0.718293,-0.238865,0.601769,0.254699,-10.060629,-0.226358,-1.201909,0.274698,-0.406325,-0.850184,44.697573,-12.307522,-4.335711,4635726096065626100.000000,0.355941,-0.659447,0.344628,0.565391,-9.935688,0.382921,-1.892780,0.148306,0.428327,-0.256173,42.211112,14.490820,9.927023,4635728028800909300.000000,-0.526677,-0.483384,-0.564634,0.412479,0
-9.365036,-0.356556,2.541598,-0.062820,-0.202066,-0.266355,43.961065,-13.328277,6.416094,4635731035814887400.000000,0.719016,-0.239510,0.600843,0.254243,-10.430714,-0.523881,-1.055762,0.283731,-0.384838,-0.859951,44.704905,-11.900812,-4.455357,4635726096065626100.000000,0.359289,-0.659347,0.342355,0.564770,-10.153624,0.417987,-2.055943,0.108944,0.429605,-0.256383,42.203079,14.626864,10.031241,4635728028800909300.000000,-0.525002,-0.483752,-0.565901,0.412447,0
-9.797001,-0.234579,2.685361,-0.061737,-0.209564,-0.297966,44.053969,-13.030665,6.335821,4635730950072724500.000000,0.719790,-0.240223,0.599862,0.253697,-10.679370,-0.950754,-0.843023,0.348578,-0.389019,-0.855251,44.627829,-11.561479,-4.392229,4635726096065626100.000000,0.362805,-0.659122,0.340236,0.564066,-10.380465,0.178630,-2.216648,0.066793,0.435257,-0.262244,42.213200,14.710230,10.207784,4635727992103240700.000000,-0.523386,-0.484022,-0.567263,0.412314,0
-10.268159,-0.061309,2.839224,-0.064511,-0.220660,-0.318922,44.000490,-12.769307,6.233245,4635730928440705000.000000,0.720609,-0.240983,0.598822,0.253105,-10.889685,-1.411837,-0.774651,0.433387,-0.415416,-0.852626,44.747796,-11.372431,-4.295967,4635726381348765700.000000,0.366578,-0.658692,0.338277,0.563307,-10.398621,0.191522,-1.959990,0.028963,0.429862,-0.263988,42.171483,14.795988,10.280719,4635727814052544500.000000,-0.521853,-0.484194,-0.568678,0.412105,0
-10.656518,0.073063,2.800506,-0.071128,-0.224096,-0.331963,43.983273,-12.651880,6.203820,4635730928440705000.000000,0.721442,-0.241792,0.597750,0.252494,-11.205289,-1.108158,-1.212277,0.499088,-0.465062,-0.856165,44.915888,-11.201545,-4.457759,4635726418188173300.000000,0.370602,-0.658036,0.336379,0.562576,-10.338469,0.682431,-1.667644,-0.026940,0.414571,-0.260472,41.941951,14.917447,10.307518,4635727814052544500.000000,-0.520474,-0.484224,-0.570147,0.411785,0
-10.896020,0.126903,2.734549,-0.081163,-0.208105,-0.331771,44.109996,-12.576176,6.201361,4635730928440705000.000000,0.722222,-0.242647,0.596715,0.251891,-11.156529,-0.478242,-1.453359,0.453327,-0.453080,-0.867060,44.848962,-10.738724,-4.739584,4635726418188173300.000000,0.374503,-0.657481,0.334357,0.561847,-10.072592,0.839926,-1.482148,-0.079513,0.401362,-0.264901,41.799933,14.890347,10.438531,4635727814052544500.000000,-0.519222,-0.484104,-0.571684,0.411375,0
-10.947580,0.212254,2.654025,-0.085021,-0.188665,-0.314922,44.268676,-12.561418,6.045415,4635730928440705000.000000,0.722931,-0.243491,0.595749,0.251328,-10.183383,-0.662253,-1.995914,0.401089,-0.447921,-0.838140,44.826983,-10.389643,-4.870373,4635726418188173300.000000,0.378178,-0.656967,0.332292,0.561212,-9.921638,0.737801,-1.288329,-0.105278,0.381797,-0.263624,41.749321,14.771257,10.696068,4635727814052544500.000000,-0.518068,-0.483897,-0.573218,0.410938,0
-10.842832,0.231941,2.734262,-0.072660,-0.160058,-0.280983,44.368892,-12.493194,5.996296,4635730756987342800.000000,0.723545,-0.244243,0.594916,0.250807,-10.491235,-1.841510,-1.587482,0.473711,-0.494841,-0.792611,44.890436,-10.200560,-4.882961,4635726418188173300.000000,0.382003,-0.656153,0.330442,0.560665,-9.681388,0.569290,-1.391936,-0.120205,0.367600,-0.256330,41.749321,14.873658,10.783595,4635727814052544500.000000,-0.516990,-0.483649,-0.574730,0.410477,0
-10.611087,0.231941,2.632171,-0.066018,-0.130788,-0.232511,44.386120,-12.281040,6.062059,4635730713692340200.000000,0.724040,-0.244885,0.594226,0.250386,-11.011957,-1.654747,-1.050357,0.507514,-0.495287,-0.755070,44.898830,-9.889148,-5.228829,4635726513256781800.000000,0.385826,-0.655220,0.328767,0.560123,-9.440198,0.469548,-1.465180,-0.130000,0.360801,-0.249557,41.736822,15.088642,10.895836,4635727814052544500.000000,-0.515956,-0.483382,-0.576229,0.409989,0
-10.403463,0.251433,2.522207,-0.057482,-0.103653,-0.159068,44.444596,-12.231818,6.157257,4635730713692340200.000000,0.724400,-0.245347,0.593701,0.250137,-11.028881,-0.919641,-1.064458,0.487877,-0.507793,-0.731048,44.963679,-9.548740,-5.619466,4635726525562355700.000000,0.389550,-0.654245,0.327085,0.559669,-9.441358,0.370098,-1.521760,-0.137219,0.347462,-0.240647,41.636500,15.174382,11.097690,4635727814052544500.000000,-0.514983,-0.483097,-0.577691,0.409491,0
-10.237399,0.314826,2.531753,-0.049575,-0.070983,-0.073211,44.400893,-12.368250,5.952808,4635730713692340200.000000,0.724597,-0.245607,0.593370,0.250094,-10.882793,-0.711226,-0.922952,0.384703,-0.508561,-0.742661,45.188214,-9.217776,-5.750692,4635726525562355700.000000,0.393014,-0.653440,0.325124,0.559331,-9.677155,0.306701,-1.518164,-0.126878,0.336781,-0.228692,41.429562,15.308367,11.340677,4635727814052544500.000000,-0.514034,-0.482843,-0.579086,0.409012,0
-10.166410,0.261386,2.441692,-0.052330,-0.081142,0.010112,44.376375,-12.402721,5.516127,4635730713692340200.000000,0.724700,-0.245730,0.593062,0.250407,-10.691678,-0.468877,-0.589947,0.237440,-0.478179,-0.756792,45.129765,-9.028671,-5.686246,4635726525562355700.000000,0.396062,-0.652956,0.322825,0.559077,-9.857902,0.201564,-1.605415,-0.114085,0.323368,-0.211262,41.373253,15.369121,11.357331,4635727814052544500.000000,-0.513119,-0.482634,-0.580395,0.408553,0
-10.078610,0.127224,2.436553,-0.054260,-0.107619,0.081268,44.305706,-12.334516,5.420087,4635730799395851300.000000,0.724808,-0.245617,0.592760,0.250920,-10.755715,-0.893302,-0.689806,0.108470,-0.451566,-0.770676,44.978089,-8.868591,-5.762887,4635726525562355700.000000,0.398751,-0.652756,0.320228,0.558893,-9.953197,0.225696,-1.664932,-0.107883,0.297757,-0.198833,41.471192,15.383691,11.452907,4635727814052544500.000000,-0.512274,-0.482423,-0.581611,0.408132,0
-9.922477,0.097659,2.412247,-0.054476,-0.113224,0.144519,44.229991,-12.317270,5.722168,4635730821066522600.000000,0.724877,-0.245310,0.592520,0.251590,-10.377980,-1.405952,-1.096979,0.028767,-0.403245,-0.762817,45.089515,-8.472222,-5.784906,4635726525562355700.000000,0.401135,-0.652782,0.317542,0.558689,-9.973449,0.220281,-1.829578,-0.112433,0.275644,-0.194039,41.602829,15.481616,11.554992,4635727832349837300.000000,-0.511498,-0.482176,-0.582777,0.407734,0
-9.800303,0.146378,2.365884,-0.054476,-0.102140,0.191973,44.088547,-12.443938,5.886210,4635730821066522600.000000,0.724868,-0.244897,0.592360,0.252391,-9.906057,-1.518915,-1.125885,-0.007124,-0.359533,-0.729444,45.171187,-8.131366,-6.045636,4635726525562355700.000000,0.403280,-0.652917,0.314933,0.558463,-9.950569,0.414606,-1.974257,-0.140229,0.247035,-0.192449,41.577869,15.586229,11.725619,4635727921426726900.000000,-0.510849,-0.481824,-0.583925,0.407321,0
-9.748886,0.314665,2.346281,-0.051917,-0.117250,0.215312,44.115008,-12.417478,5.752415,4635730735324453900.000000,0.724874,-0.244402,0.592181,0.253272,-9.570500,-2.303731,-1.177095,0.056431,-0.328158,-0.666667,45.114781,-8.093509,-6.327752,4635726525562355700.000000,0.405407,-0.652930,0.312692,0.558168,-9.816303,0.737889,-2.136296,-0.175883,0.229583,-0.195699,41.429320,15.452494,11.833395,4635727921426726900.000000,-0.510307,-0.481357,-0.585102,0.406863,0
-9.751256,0.461243,2.431554,-0.047859,-0.108975,0.250530,44.392960,-12.334486,5.547348,4635730713692340200.000000,0.724825,-0.243817,0.592067,0.254241,-9.458364,-3.571531,-1.032883,0.237187,-0.302977,-0.582484,45.246789,-8.093509,-6.198019,4635726335528221700.000000,0.407793,-0.652580,0.311140,0.557706,-9.698654,0.565182,-2.098904,-0.215948,0.210358,-0.207039,41.283104,15.496374,11.912348,4635727903155205100.000000,-0.509873,-0.480744,-0.586327,0.406368,0
-9.802448,0.556522,2.521914,-0.054674,-0.072486,0.279812,44.459362,-12.716880,5.447059,4635730713692340200.000000,0.724628,-0.243264,0.592065,0.255333,-9.394511,-4.036569,-0.548650,0.423103,-0.256664,-0.497846,45.329874,-7.791001,-6.263377,4635726310813990900.000000,0.410425,-0.651907,0.310326,0.557016,-9.664109,0.441031,-1.918640,-0.215380,0.190949,-0.205971,41.224657,15.759758,11.918836,4635727814052544500.000000,-0.509485,-0.480101,-0.587507,0.405911,0
-10.107141,0.602987,2.237005,-0.071109,-0.144252,0.318455,44.069510,-12.817774,5.442041,4635730713692340200.000000,0.724569,-0.242543,0.591887,0.256599,-9.322677,-3.872022,-0.337059,0.559668,-0.213205,-0.425758,45.251873,-7.319593,-6.544673,4635726310813990900.000000,0.413201,-0.651001,0.310096,0.556150,-9.650080,0.317138,-1.922539,-0.205017,0.170110,-0.205630,41.287516,15.747296,12.016493,4635727814052544500.000000,-0.509127,-0.479444,-0.588622,0.405519,0
-10.200467,0.610370,2.306905,-0.074770,-0.219927,0.348173,43.318066,-12.096548,5.347039,4635730713692340200.000000,0.724658,-0.241679,0.591504,0.258040,-9.238631,-3.413231,-0.230972,0.658788,-0.166699,-0.369440,45.316254,-7.328220,-6.568988,4635726310813990900.000000,0.416050,-0.649954,0.310326,0.555121,-9.674243,0.241825,-1.865162,-0.183613,0.148974,-0.206654,41.283115,15.711423,12.114144,4635727814052544500.000000,-0.508776,-0.478794,-0.589658,0.405224,0
-10.039703,0.581131,2.558240,-0.063684,-0.250980,0.365496,42.626870,-11.787724,5.088517,4635730713692340200.000000,0.724802,-0.240733,0.591043,0.259572,-9.239598,-2.968192,-0.057715,0.687686,-0.100803,-0.340488,45.477304,-7.412258,-6.394763,4635726310813990900.000000,0.418822,-0.648965,0.310811,0.553921,-9.652152,0.139766,-1.723072,-0.149026,0.139179,-0.197041,41.197662,15.886974,12.209727,4635727814052544500.000000,-0.508395,-0.478223,-0.590595,0.405012,0
-9.841941,0.612728,2.690345,-0.057474,-0.239939,0.383860,42.435500,-12.145534,4.902763,4635730713692340200.000000,0.724904,-0.239730,0.590641,0.261127,-9.316603,-2.647575,0.082175,0.656004,-0.034340,-0.324305,45.345795,-7.130508,-6.642259,4635726310813990900.000000,0.421381,-0.648158,0.311381,0.552605,-9.698905,-0.014283,-1.680717,-0.102936,0.127953,-0.186338,41.126743,16.162848,12.297252,4635727832308990000.000000,-0.507967,-0.477757,-0.591408,0.404912,0
-9.753820,0.720026,2.690554,-0.057465,-0.180637,0.385180,42.615623,-11.912701,5.007181,4635730885119932400.000000,0.724867,-0.238762,0.590427,0.262595,-9.499270,-2.536778,0.378482,0.609987,0.016770,-0.315020,45.239680,-6.800877,-6.677450,4635726310813990900.000000,0.423723,-0.647531,0.311956,0.551222,-9.710631,-0.014043,-1.725393,-0.068543,0.114069,-0.171225,41.101850,16.223639,12.411497,4635727921426726900.000000,-0.507530,-0.477377,-0.592103,0.404893,0
-9.790232,0.705672,2.656394,-0.061091,-0.164926,0.383681,42.655131,-11.507394,5.100127,4635730928440705000.000000,0.724787,-0.237826,0.590254,0.264051,-9.489375,-2.656530,0.415052,0.505349,0.104644,-0.313090,45.379627,-6.827700,-6.418255,4635726310813990900.000000,0.425662,-0.647284,0.312449,0.549737,-9.613210,0.005507,-1.724915,-0.067978,0.101453,-0.159091,40.953285,16.209118,12.557031,4635727921426726900.000000,-0.507143,-0.477006,-0.592746,0.404874,0
-9.675877,0.676335,2.561314,-0.058542,-0.185809,0.383465,42.535745,-12.078954,5.066184,4635730928440705000.000000,0.724760,-0.236858,0.590018,0.265520,-8.945238,-2.479052,0.069506,0.237306,0.327951,-0.306353,45.615300,-6.911734,-6.125313,4635726310813990900.000000,0.426570,-0.648011,0.312741,0.548008,-9.603553,-0.148563,-1.619436,-0.062155,0.093230,-0.141135,40.807037,16.123668,12.444855,4635727921426726900.000000,-0.506795,-0.476678,-0.593325,0.404847,0
-9.312535,0.671407,2.509906,-0.055122,-0.184377,0.372381,43.032384,-13.160011,5.014887,4635730928440705000.000000,0.724742,-0.235909,0.589777,0.266945,-8.356472,-1.859791,-0.159153,-0.162580,0.595682,-0.252579,45.708269,-6.846011,-6.005109,4635726310813990900.000000,0.425924,-0.649986,0.312739,0.546170,-9.738052,-0.100655,-1.597097,-0.077793,0.073602,-0.129024,40.763051,16.054808,12.309438,4635727903193861100.000000,-0.506547,-0.476314,-0.593866,0.404795,0
-8.975492,0.817545,2.424578,-0.068115,-0.154522,0.359350,43.808382,-13.849418,5.024520,4635730928440705000.000000,0.724650,-0.235063,0.589598,0.268332,-8.429219,-2.127862,0.000479,-0.326654,0.568416,-0.223940,45.641131,-6.695753,-5.918239,4635726310813990900.000000,0.424800,-0.652148,0.312390,0.544666,-9.916787,0.207986,-1.578671,-0.133700,0.044278,-0.115320,40.923822,16.091891,12.436118,4635727814052544500.000000,-0.506504,-0.475815,-0.594411,0.404634,0
-8.736050,0.883744,2.434084,-0.080942,-0.145700,0.346532,43.971066,-13.975011,4.951515,4635730928440705000.000000,0.724537,-0.234297,0.589416,0.269703,-8.263952,-3.663082,-0.213148,-0.244488,0.430388,-0.254176,45.555686,-6.526274,-5.735610,4635726310813990900.000000,0.424145,-0.653886,0.311898,0.543372,-9.987501,0.306801,-1.519479,-0.186300,0.031339,-0.102502,41.078141,16.211203,12.642496,4635727814052544500.000000,-0.506620,-0.475216,-0.594991,0.404341,0
-8.506575,0.900882,2.363546,-0.095249,-0.165726,0.327748,43.844422,-14.035928,4.853856,4635730928440705000.000000,0.724478,-0.233597,0.589139,0.271071,-7.808124,-5.293518,-0.676021,-0.123145,0.360469,-0.289668,45.535026,-6.441765,-5.464738,4635726310813990900.000000,0.423990,-0.655295,0.311460,0.542046,-9.905755,0.176676,-1.428266,-0.209719,0.031844,-0.088598,41.126521,16.135895,12.563489,4635727814052544500.000000,-0.506803,-0.474602,-0.595584,0.403959,0
-8.362311,0.971541,2.334080,-0.109351,-0.174313,0.301486,43.812370,-14.187107,4.921809,4635730928440705000.000000,0.724454,-0.232994,0.588793,0.272402,-7.654519,-5.589104,-0.883616,-0.073993,0.347888,-0.328699,45.609198,-6.357716,-5.432294,4635726310813990900.000000,0.424072,-0.656636,0.311003,0.540619,-9.741287,0.089595,-1.430338,-0.210768,0.024186,-0.069734,41.038776,16.038015,12.590197,4635727814052544500.000000,-0.507039,-0.474019,-0.596125,0.403549,0
-8.191546,0.959577,2.448503,-0.113860,-0.160687,0.270308,43.880556,-14.221624,4.788147,4635730928440705000.000000,0.724427,-0.232495,0.588451,0.273636,-7.350320,-5.182122,-1.097691,-0.098716,0.375490,-0.332317,45.824205,-6.121116,-5.345920,4635726310813990900.000000,0.424057,-0.658085,0.310528,0.539140,-9.665972,0.103653,-1.446687,-0.205952,0.015459,-0.053188,40.880084,15.918673,12.671285,4635727814052544500.000000,-0.507315,-0.473472,-0.596606,0.403134,0
-8.154546,1.069063,2.517065,-0.116849,-0.128892,0.239968,43.888083,-14.289808,4.602574,4635730928440705000.000000,0.724352,-0.232117,0.588171,0.274755,-7.139509,-5.073133,-0.637290,-0.160162,0.392417,-0.348252,46.056118,-5.800019,-5.172705,4635726405768121300.000000,0.423885,-0.659698,0.309899,0.537664,-9.586739,0.054615,-1.475026,-0.195578,0.007115,-0.038398,40.760733,16.006401,12.638165,4635727814052544500.000000,-0.507615,-0.472970,-0.597023,0.402729,0
-8.329853,1.400584,2.575629,-0.118348,-0.090238,0.219437,43.885616,-14.501862,4.419480,4635730928440705000.000000,0.724203,-0.231837,0.587986,0.275778,-7.062934,-5.292799,0.354750,-0.360417,0.406428,-0.422149,45.942593,-5.686319,-5.151524,4635726418188173300.000000,0.423308,-0.661787,0.308641,0.536273,-9.556539,-0.044902,-1.460748,-0.170105,0.004435,-0.018809,40.848466,16.165097,12.492526,4635727814052544500.000000,-0.507904,-0.472565,-0.597352,0.402351,0
-8.530102,1.710831,2.558753,-0.128790,-0.048161,0.204688,43.759007,-14.755743,4.392197,4635730928440705000.000000,0.723958,-0.231672,0.587901,0.276741,-7.088265,-4.912204,0.961880,-0.828616,0.458096,-0.528825,45.773118,-5.600875,-5.075957,4635726418188173300.000000,0.421605,-0.664946,0.306130,0.535146,-9.596878,-0.081312,-1.454962,-0.139292,-0.001268,0.001286,40.967833,16.269976,12.606741,4635727814052544500.000000,-0.508180,-0.472266,-0.597578,0.402018,0
-8.559858,1.857724,2.541608,-0.122008,-0.021626,0.187393,43.532138,-14.671235,4.472577,4635730757116196900.000000,0.723673,-0.231560,0.587886,0.277609,-6.326134,-3.779157,-0.669220,-1.384296,0.553424,-0.575552,45.818111,-5.450670,-4.807019,4635726228305680400.000000,0.418332,-0.669331,0.302408,0.534364,-9.535847,-0.050694,-1.571433,-0.107123,-0.010916,0.015714,40.882187,16.123708,12.785492,4635727814052544500.000000,-0.508441,-0.472055,-0.597701,0.401753,0
-8.430798,2.259714,2.548878,-0.141786,0.135428,0.233993,43.619100,-14.636677,4.482586,4635730713692340200.000000,0.722930,-0.231575,0.588367,0.278515,-5.459421,-1.770491,-1.312096,-1.702590,0.591495,-0.471392,45.815798,-5.205626,-4.697539,4635726298379563000.000000,0.413869,-0.674189,0.298318,0.534030,-9.495496,-0.010344,-1.829657,-0.092386,-0.029763,0.032804,40.772933,16.067216,12.864534,4635727814052544500.000000,-0.508748,-0.471886,-0.597725,0.401526,0
-8.875831,2.852642,2.230010,-0.243684,0.276352,0.351542,43.653675,-14.773001,4.411955,4635730713692340200.000000,0.721564,-0.231855,0.589232,0.279989,-4.992107,-0.327965,-0.557797,-1.643195,0.494858,-0.282465,45.738836,-4.960090,-4.687643,4635726310813990900.000000,0.409249,-0.678457,0.294708,0.534190,-9.573092,-0.090010,-2.024778,-0.087370,-0.041513,0.049896,40.848250,16.138187,12.870952,4635727814052544500.000000,-0.509104,-0.471751,-0.597683,0.401298,0
-9.503267,1.683363,1.817388,-0.270662,0.118225,0.336370,43.527070,-14.934183,4.404404,4635730713692340200.000000,0.720601,-0.232014,0.589595,0.281569,-4.544684,0.735647,1.307465,-1.663169,0.411855,-0.155684,45.869233,-4.715946,-4.353083,4635726310813990900.000000,0.404372,-0.682383,0.291254,0.534797,-9.733824,-0.248477,-2.156966,-0.069327,-0.053803,0.066802,40.906814,16.111316,12.954122,4635727814052544500.000000,-0.509482,-0.471675,-0.597551,0.401104,0
-8.881831,1.355022,2.132701,-0.257677,-0.064763,0.176675,43.553404,-15.034441,4.338708,4635730713692340200.000000,0.720285,-0.232311,0.589267,0.282815,-4.783750,2.279268,3.329864,-1.853433,0.462191,-0.113731,46.027946,-4.612088,-4.136516,4635726310813990900.000000,0.398775,-0.686652,0.287565,0.535531,-9.865454,-0.286192,-2.262504,-0.032864,-0.070747,0.082824,40.831501,15.952620,12.931189,4635727814052544500.000000,-0.509858,-0.471688,-0.597290,0.400999,0
-8.156173,1.393967,2.555254,-0.218438,-0.093374,0.043443,43.762949,-15.051728,4.389575,4635730713692340200.000000,0.720248,-0.232754,0.588782,0.283556,-5.965785,0.135009,0.089815,-1.963728,0.373674,-0.019374,45.830503,-4.602191,-4.113895,4635726310813990900.000000,0.392732,-0.690748,0.283733,0.536772,-9.775483,-0.048443,-2.278651,-0.006703,-0.098173,0.098123,40.774988,15.808394,12.768944,4635727814052544500.000000,-0.510276,-0.471749,-0.596897,0.400981,0
-8.380541,1.296742,2.558902,-0.198281,0.052980,0.001335,43.685787,-15.110151,4.416610,4635730713692340200.000000,0.719920,-0.233413,0.588719,0.283978,-6.029583,-1.498172,-0.463339,-1.788055,0.229791,0.157757,45.651107,-4.451120,-4.211012,4635726310813990900.000000,0.386943,-0.693982,0.280550,0.538475,-9.570418,0.071179,-2.221189,0.009384,-0.131135,0.107883,40.872823,15.747550,12.785468,4635727814052544500.000000,-0.510760,-0.471813,-0.596388,0.401046,0
-8.715317,1.834210,2.266555,-0.225285,0.233683,0.001055,43.595263,-15.193119,4.496961,4635730713692340200.000000,0.719122,-0.234367,0.589164,0.284290,-4.874425,-3.927691,-5.299576,-2.452774,0.403289,0.203998,45.631275,-4.442078,-4.051109,4635726310813990900.000000,0.378894,-0.698565,0.276266,0.540484,-9.478584,0.098217,-2.013850,-0.012357,-0.171511,0.107702,41.014997,15.788862,12.848013,4635727814052544500.000000,-0.511387,-0.471762,-0.595829,0.401138,0
-9.137302,1.938661,2.090252,-0.273741,0.237022,0.005543,43.570695,-15.142282,4.438862,4635730713692340200.000000,0.718262,-0.235458,0.589566,0.284730,-6.191462,-13.134823,-8.370934,-1.253799,0.130033,0.399790,45.782309,-4.659259,-3.931349,4635726310813990900.000000,0.374182,-0.700367,0.274802,0.542179,-9.402873,0.353057,-1.873560,-0.042642,-0.203423,0.109164,41.065704,15.991698,12.709234,4635727814052544500.000000,-0.512154,-0.471597,-0.595250,0.401213,0
-9.540303,1.471245,1.985175,-0.326716,0.103373,0.021741,43.509813,-15.193115,4.341203,4635730713692340200.000000,0.717635,-0.236556,0.589500,0.285536,-12.447982,-13.972612,1.989602,0.867185,-0.385954,0.655471,45.953224,-4.978950,-4.004890,4635726310813990900.000000,0.375663,-0.697384,0.278064,0.543335,-9.889592,0.536708,-1.769896,-0.072438,-0.245721,0.123952,41.065704,15.964865,12.445005,4635727814052544500.000000,-0.513109,-0.471334,-0.594600,0.401265,0
-9.278724,0.732009,2.218491,-0.380975,0.063900,0.023932,43.553385,-15.152017,4.321421,4635730713692340200.000000,0.717055,-0.237746,0.589259,0.286500,-11.108744,-12.623138,-0.468924,1.153902,-0.270193,0.619666,45.983869,-5.308555,-4.178076,4635726310813990900.000000,0.377914,-0.694238,0.282044,0.543752,-10.323818,-0.329951,-1.723484,-0.066045,-0.256279,0.142456,41.078088,15.833002,12.307302,4635727814052544500.000000,-0.514108,-0.471112,-0.593880,0.401313,0
-8.812572,0.009210,2.506653,-0.375828,0.071321,0.014983,43.568222,-15.127446,4.399288,4635730713692340200.000000,0.716485,-0.238922,0.589049,0.287380,-8.001839,-0.284102,-0.189160,0.380148,0.007151,0.583609,45.845060,-5.497857,-4.274854,4635726310813990900.000000,0.377675,-0.692967,0.284598,0.544209,-9.751486,-0.327930,-1.691368,-0.069127,-0.232359,0.159212,41.141013,15.833002,12.394807,4635727814052544500.000000,-0.515081,-0.470965,-0.593183,0.401271,0
-8.696622,-0.455435,2.680338,-0.386192,0.077960,0.040919,43.636347,-15.261220,4.496936,4635730713692340200.000000,0.715856,-0.240072,0.588869,0.288355,-7.672778,5.741356,0.820715,-0.318841,0.146309,0.751798,45.761867,-5.593260,-4.209285,4635726310813990900.000000,0.374867,-0.692905,0.286269,0.545351,-9.699021,0.249853,-1.155262,-0.087033,-0.245313,0.185026,41.151157,15.793840,12.461538,4635727814052544500.000000,-0.516163,-0.470820,-0.592436,0.401154,0
-8.711132,-0.391169,2.758696,-0.406902,0.073934,0.103409,43.595291,-15.422373,4.604314,4635730713692340200.000000,0.715139,-0.241124,0.588714,0.289571,-9.296443,-3.362909,-0.731949,-0.058518,-0.065352,0.718721,45.828853,-5.818930,-4.102267,4635726310813990900.000000,0.373135,-0.691987,0.288102,0.546737,-9.810949,0.070864,-1.037949,-0.072550,-0.245161,0.212451,41.163524,15.561899,12.357536,4635727814052544500.000000,-0.517262,-0.470773,-0.591610,0.401012,0
-8.803658,0.113034,2.683509,-0.437630,0.071783,0.163471,43.580429,-15.386461,4.616876,4635730713692340200.000000,0.714321,-0.242118,0.588574,0.291042,-9.768441,-4.876114,-1.308129,0.099371,0.008754,0.729319,45.774082,-6.214084,-4.164985,4635726405689318400.000000,0.371741,-0.690974,0.290438,0.547731,-9.875315,-0.081646,-1.217409,-0.039868,-0.252249,0.241804,41.222339,15.381486,12.147795,4635727814052544500.000000,-0.518361,-0.470857,-0.590656,0.400901,0
-8.835684,0.494687,2.855841,-0.465637,0.137131,0.180285,43.385802,-15.378852,4.468428,4635730713692340200.000000,0.713291,-0.243232,0.588609,0.292564,-10.115351,-2.070552,-1.301090,-0.214154,0.126250,0.678828,45.636117,-6.629136,-4.261223,4635726418188173300.000000,0.369414,-0.690769,0.292092,0.548683,-9.684440,-0.156335,-1.513869,-0.033614,-0.245828,0.262804,41.224551,15.469141,11.897948,4635727814052544500.000000,-0.519467,-0.471015,-0.589662,0.400746,0
-9.120310,0.590728,3.187512,-0.469351,0.255971,0.163708,43.200072,-15.449433,4.207513,4635730713692340200.000000,0.711957,-0.244592,0.588951,0.293986,-11.073294,-1.071293,-0.582167,-0.374442,0.085193,0.664315,45.619064,-6.828441,-4.272591,4635726418188173300.000000,0.366706,-0.690728,0.293272,0.549921,-9.693282,-0.007937,-1.580934,-0.017411,-0.236782,0.281130,41.301916,15.561927,11.847662,4635727814052544500.000000,-0.520548,-0.471268,-0.588624,0.400573,0
-9.532679,0.530062,3.045345,-0.462107,0.298165,0.120847,43.428052,-15.525152,4.374277,4635730713692340200.000000,0.710601,-0.246035,0.589402,0.295157,-10.956949,-2.315188,-0.358892,-0.304953,-0.000341,0.698232,45.705334,-7.064026,-4.348077,4635726418188173300.000000,0.364221,-0.690336,0.294575,0.551366,-9.938886,0.114434,-1.634031,-0.003204,-0.241595,0.294114,41.424288,15.290861,12.016353,4635727814052544500.000000,-0.521633,-0.471574,-0.587525,0.400414,0
-9.852923,0.444610,2.621123,-0.473141,0.211201,0.075334,43.563078,-15.540025,4.586947,4635730713692340200.000000,0.709500,-0.247515,0.589532,0.296308,-10.472666,-2.803069,0.553329,-0.286191,0.042164,0.700954,45.792219,-7.318982,-4.433536,4635726418188173300.000000,0.361728,-0.690004,0.295991,0.552664,-9.920218,0.342092,-1.764183,-0.007887,-0.248711,0.301038,41.654004,14.907297,12.081071,4635727814052544500.000000,-0.522755,-0.471874,-0.586403,0.400243,0
-9.941598,0.067297,2.507475,-0.495122,0.142877,0.047497,43.385855,-15.598397,4.714164,4635730713692340200.000000,0.708574,-0.249042,0.589401,0.297500,-10.434483,-2.402196,0.714542,-0.321995,0.072724,0.687495,45.661991,-7.499828,-4.270957,4635726418188173300.000000,0.359121,-0.689805,0.297329,0.553892,-9.732848,0.451532,-1.843176,-0.034398,-0.251710,0.299429,41.785942,14.917447,11.966945,4635727814052544500.000000,-0.523933,-0.472106,-0.585320,0.400014,0
-9.715573,-0.413517,2.570611,-0.521172,0.182452,0.041875,43.277917,-15.749454,4.658652,4635730713692340200.000000,0.707528,-0.250709,0.589347,0.298696,-10.566716,-2.764326,0.278167,-0.281568,0.067348,0.678203,45.568006,-7.659929,-4.000186,4635726418188173300.000000,0.356655,-0.689538,0.298722,0.555067,-9.511625,0.396812,-1.736999,-0.050911,-0.244066,0.294436,41.783884,14.903039,11.773685,4635727814052544500.000000,-0.525114,-0.472301,-0.584290,0.399741,0
-9.383693,-0.668347,2.412879,-0.536810,0.221856,0.056978,43.263039,-15.852263,4.726359,4635730713692340200.000000,0.706346,-0.252431,0.589401,0.299933,-10.281922,-3.143370,-0.427187,-0.180296,0.115283,0.692301,45.504117,-7.980353,-3.956624,4635726418188173300.000000,0.354385,-0.689208,0.300459,0.555993,-9.536180,0.460187,-1.478732,-0.047514,-0.241221,0.285351,41.786083,14.831995,11.588520,4635727814052544500.000000,-0.526266,-0.472485,-0.583276,0.399488,0
-9.032158,-0.766393,2.212600,-0.532606,0.203050,0.078758,43.194947,-15.869624,4.670862,4635730713692340200.000000,0.705184,-0.254063,0.589425,0.301241,-9.961679,-2.204969,-1.332144,-0.086565,0.184978,0.730146,45.356825,-8.171212,-4.127711,4635726418188173300.000000,0.352206,-0.688847,0.302621,0.556652,-9.609283,0.645202,-1.265056,-0.038082,-0.240513,0.273423,41.859318,14.834052,11.409675,4635727814052544500.000000,-0.527376,-0.472661,-0.582271,0.399283,0
-8.775416,-0.839637,2.065918,-0.524912,0.163345,0.096934,43.177586,-15.801533,4.573203,4635730884810682400.000000,0.704100,-0.255576,0.589358,0.302624,-9.536466,-1.352864,-2.303034,0.024165,0.231072,0.773566,45.122655,-8.406808,-4.312247,4635726323351501800.000000,0.350182,-0.688368,0.305229,0.557098,-9.617377,0.750689,-1.022970,-0.027737,-0.240322,0.260425,41.922280,14.803071,11.314074,4635727814052544500.000000,-0.528442,-0.472828,-0.581273,0.399130,0
-8.631033,-0.825340,1.951102,-0.521690,0.121691,0.102959,43.235943,-15.784172,4.553361,4635730928440705000.000000,0.703111,-0.257012,0.589176,0.304060,-9.280294,-1.160324,-2.783654,0.154370,0.271911,0.804152,45.180404,-8.661738,-4.247372,4635726310813990900.000000,0.348404,-0.687746,0.308283,0.557298,-9.584618,0.724347,-0.799274,-0.005815,-0.232295,0.246900,41.932430,14.561004,11.243018,4635727814052544500.000000,-0.529422,-0.473022,-0.580282,0.399043,0
-8.615944,-0.808171,1.977393,-0.517002,0.108118,0.085741,43.260556,-15.716100,4.699231,4635730928440705000.000000,0.702178,-0.258457,0.588938,0.305446,-9.414923,-0.910320,-2.444012,0.223604,0.301176,0.820726,45.191807,-9.058215,-4.052697,4635726310813990900.000000,0.346744,-0.687062,0.311584,0.557342,-9.444171,0.791924,-0.626439,0.028715,-0.216273,0.234072,41.959149,14.394833,11.226576,4635727814052544500.000000,-0.530273,-0.473287,-0.579294,0.399035,0
-8.803189,-0.737618,2.116223,-0.495494,0.117876,0.049697,43.126896,-15.766791,4.668402,4635730928440705000.000000,0.701287,-0.259939,0.588716,0.306663,-9.867493,-0.706465,-1.530311,0.224118,0.304422,0.817758,45.137912,-9.473217,-3.855975,4635726310813990900.000000,0.345083,-0.686378,0.314877,0.557364,-9.260940,1.091184,-0.485872,0.054116,-0.200970,0.213935,42.103456,14.528865,11.128918,4635727814052544500.000000,-0.531002,-0.473585,-0.578335,0.399102,0
-9.112924,-0.564648,2.080433,-0.469008,0.093473,0.012728,43.092133,-15.978659,4.505156,4635730757373904900.000000,0.700529,-0.261402,0.588413,0.307731,-10.776166,-0.662056,-0.381267,0.145903,0.272354,0.769031,45.206223,-9.812810,-3.736113,4635726310813990900.000000,0.343349,-0.685788,0.317800,0.557503,-9.062001,1.461244,-0.253954,0.051980,-0.190120,0.183671,42.139725,14.497941,11.064131,4635727814052544500.000000,-0.531659,-0.473822,-0.577463,0.399209,0
-9.325814,-0.456856,1.917204,-0.443158,0.033772,-0.012526,43.160196,-16.096382,4.390124,4635730713692340200.000000,0.699975,-0.262774,0.587939,0.308727,-11.600423,-0.788549,0.456492,0.027190,0.218117,0.700408,45.367130,-10.066956,-3.637025,4635726310813990900.000000,0.341504,-0.685325,0.320169,0.557850,-9.129547,1.680514,-0.071306,0.050203,-0.184790,0.152165,42.005560,14.268169,11.147413,4635727814052544500.000000,-0.532253,-0.473988,-0.576667,0.399371,0
-9.450584,-0.371407,1.899386,-0.427732,0.001578,-0.025598,43.303982,-15.987375,4.516093,4635730713692340200.000000,0.699532,-0.264091,0.587375,0.309680,-12.255137,-0.665577,0.711000,-0.076773,0.167170,0.628975,45.311681,-10.170967,-3.625599,4635726310813990900.000000,0.339594,-0.684981,0.322018,0.558375,-9.410311,1.629403,-0.183682,0.048765,-0.184430,0.123146,41.956959,14.123851,11.124709,4635727814052544500.000000,-0.532800,-0.474081,-0.575931,0.399592,0
-9.628511,-0.451243,1.846018,-0.408959,-0.002354,-0.033727,43.530738,-15.887016,4.475579,4635730713692340200.000000,0.699127,-0.265367,0.586813,0.310568,-11.650487,-0.517661,-0.129765,-0.215024,0.161290,0.552695,45.161566,-10.331861,-3.453157,4635726310813990900.000000,0.337471,-0.684916,0.323317,0.558990,-9.670533,1.429885,-0.541665,0.036988,-0.181755,0.092702,42.054830,14.089612,10.929406,4635727814052544500.000000,-0.533313,-0.474079,-0.575281,0.399848,0
-9.862697,-0.612192,1.753337,-0.382711,-0.015747,-0.039502,43.444327,-15.937676,4.232103,4635730713692340200.000000,0.698789,-0.266563,0.586238,0.311388,-10.849003,-0.306483,-1.559175,-0.253481,0.170722,0.524824,45.013629,-10.653688,-3.344049,4635726310813990900.000000,0.335289,-0.684960,0.324457,0.559587,-9.831295,1.202486,-0.846761,0.006159,-0.176953,0.060305,42.264311,14.236000,10.764876,4635727814052544500.000000,-0.533821,-0.473939,-0.574756,0.400091,0
-10.204053,-0.540057,1.694566,-0.358343,-0.032837,-0.038038,43.156769,-15.955076,4.019390,4635730713692340200.000000,0.698517,-0.267662,0.585646,0.312171,-10.776278,-0.323881,-2.121452,-0.237494,0.195548,0.536470,45.071932,-10.984685,-3.494288,4635726405613514800.000000,0.333090,-0.685020,0.325701,0.560104,-9.981658,1.239105,-1.068308,-0.041562,-0.174458,0.032187,42.398365,14.280395,10.771142,4635727814052544500.000000,-0.534370,-0.473629,-0.574371,0.400277,0
-10.618923,-0.172422,1.616564,-0.339945,-0.045675,-0.034833,43.024077,-16.023134,4.212955,4635730713692340200.000000,0.698290,-0.268682,0.585042,0.312933,-10.757585,-0.480468,-2.302234,-0.228392,0.202447,0.532689,45.017284,-11.174154,-3.601943,4635726418188173300.000000,0.330914,-0.685084,0.326963,0.560580,-10.024330,1.275726,-1.190485,-0.100328,-0.172340,0.008517,42.396207,14.109390,10.854434,4635727832102848500.000000,-0.534990,-0.473135,-0.574136,0.400371,0
-10.919770,0.186755,1.540840,-0.332213,-0.028502,-0.020570,43.142786,-16.098857,4.282313,4635730713692340200.000000,0.698011,-0.269666,0.584513,0.313697,-10.614633,-0.511280,-2.373287,-0.216201,0.172775,0.518737,44.868605,-11.194189,-3.527182,4635726418188173300.000000,0.328844,-0.685077,0.328171,0.561102,-10.018076,1.275425,-1.336661,-0.167239,-0.179449,-0.011605,42.308609,13.914389,10.880998,4635727921426726900.000000,-0.535725,-0.472431,-0.574035,0.400364,0
-11.100819,0.450760,1.419003,-0.336229,0.007119,0.003322,43.167866,-16.055450,4.129275,4635730713692340200.000000,0.697608,-0.270650,0.584108,0.314500,-10.358979,-0.609685,-2.261920,-0.198670,0.154625,0.507556,44.849998,-11.334262,-3.343334,4635726418188173300.000000,0.326873,-0.685014,0.329360,0.561633,-9.906048,1.059472,-1.318504,-0.216332,-0.178013,-0.036174,42.188890,13.918595,10.945833,4635727921426726900.000000,-0.536512,-0.471561,-0.574067,0.400291,0
-11.201200,0.500504,1.274991,-0.346041,0.041323,0.035764,43.107051,-15.904432,4.079759,4635730713692340200.000000,0.697066,-0.271628,0.583825,0.315382,-10.111969,-0.741099,-2.030669,-0.150343,0.156516,0.505359,44.860773,-11.579153,-3.234216,4635726418188173300.000000,0.325040,-0.684890,0.330658,0.562085,-9.759864,0.761047,-1.360991,-0.236606,-0.171800,-0.059660,42.247774,14.016327,10.831797,4635727921426726900.000000,-0.537283,-0.470599,-0.574192,0.400208,0
-11.131132,0.383875,1.147965,-0.360122,0.074430,0.064837,43.092133,-15.937658,4.232778,4635730713692340200.000000,0.696389,-0.272619,0.583651,0.316344,-9.932470,-0.993902,-1.872718,-0.074434,0.158903,0.514662,44.786785,-11.684664,-3.136557,4635726418188173300.000000,0.323398,-0.684652,0.332161,0.562437,-9.796486,0.862805,-1.244976,-0.248551,-0.177141,-0.077102,42.184328,14.199617,10.671320,4635727921426726900.000000,-0.538061,-0.469559,-0.574359,0.400146,0
-11.030989,0.120772,1.055052,-0.369973,0.086281,0.093458,43.092133,-16.149446,4.282310,4635730713692340200.000000,0.695631,-0.273583,0.583530,0.317399,-9.890854,-1.025422,-1.704625,0.013122,0.154438,0.518745,44.712083,-11.770142,-3.200545,4635726512994549800.000000,0.322000,-0.684276,0.333873,0.562682,-9.808517,0.937745,-1.098491,-0.268643,-0.181047,-0.090808,41.838255,14.529386,10.714265,4635727921426726900.000000,-0.538863,-0.468433,-0.574576,0.400074,0
-10.797246,-0.104197,1.125106,-0.370014,0.078233,0.124001,43.092133,-16.335300,4.216761,4635730713692340200.000000,0.694851,-0.274463,0.583419,0.318551,-9.952671,-0.723608,-1.469040,0.066885,0.156643,0.505915,44.703510,-12.071179,-3.210547,4635726525562355700.000000,0.320782,-0.683848,0.335676,0.562826,-9.715045,0.795449,-0.927440,-0.267546,-0.178201,-0.103087,41.390967,14.956439,10.876797,4635727921426726900.000000,-0.539635,-0.467285,-0.574820,0.400026,0
-10.334376,-0.020160,1.225237,-0.371280,0.064785,0.147320,43.024112,-16.370129,4.121606,4635730713692340200.000000,0.694070,-0.275270,0.583292,0.319788,-10.122927,-0.500370,-1.354241,0.050941,0.167393,0.480587,44.789744,-12.551686,-2.941070,4635726525562355700.000000,0.319560,-0.683498,0.337383,0.562925,-9.711029,0.736461,-0.671328,-0.244399,-0.177492,-0.112162,41.107916,15.208377,10.831746,4635727921426726900.000000,-0.540344,-0.466167,-0.575044,0.400051,0
-9.889668,0.255161,1.381209,-0.385321,0.087463,0.144874,43.074708,-16.438155,4.023942,4635730713692340200.000000,0.693218,-0.276154,0.583207,0.321025,-10.165908,-0.325200,-1.450592,-0.010403,0.171597,0.450113,44.736502,-12.836581,-2.732917,4635726525562355700.000000,0.318228,-0.683280,0.338862,0.563056,-9.755832,0.693776,-0.604231,-0.216982,-0.177306,-0.118212,40.644162,15.183893,10.577539,4635727903427958800.000000,-0.540989,-0.465096,-0.575233,0.400154,0
-9.617939,0.375689,1.416059,-0.393057,0.128003,0.115927,43.218444,-16.455580,3.858286,4635730713692340200.000000,0.692296,-0.277184,0.583194,0.322150,-9.920912,-0.272856,-1.648086,-0.085106,0.174801,0.419141,44.717148,-12.640300,-2.796254,4635726525562355700.000000,0.316751,-0.683209,0.340082,0.563239,-9.835140,0.675434,-0.577838,-0.187441,-0.171256,-0.122306,40.308846,15.139351,10.425122,4635727814052544500.000000,-0.541554,-0.464091,-0.575394,0.400326,0
-9.628890,0.274065,1.212057,-0.388197,0.138423,0.080901,43.182830,-16.455580,3.665487,4635730713692340200.000000,0.691325,-0.278431,0.583112,0.323306,-9.575451,-0.441002,-1.801744,-0.144920,0.162917,0.390048,44.575611,-12.545583,-2.818480,4635726525562355700.000000,0.315187,-0.683229,0.341061,0.563501,-9.865564,0.628650,-0.598163,-0.168052,-0.166626,-0.125331,40.333386,15.363490,10.439438,4635727814052544500.000000,-0.542064,-0.463130,-0.575538,0.400541,0
-9.789559,-0.027846,0.984850,-0.378170,0.084460,0.064352,43.107093,-16.581862,3.781024,4635730713692340200.000000,0.690590,-0.279482,0.582931,0.324294,-9.318456,-0.496210,-1.829679,-0.194109,0.155633,0.367811,44.416931,-12.752529,-2.733700,4635726525562355700.000000,0.313545,-0.683325,0.341850,0.563822,-9.786125,0.620656,-0.608387,-0.168431,-0.159322,-0.128541,40.477827,15.888274,10.492171,4635727814052544500.000000,-0.542552,-0.462172,-0.575705,0.400747,0
-9.856102,-0.418223,0.969112,-0.376838,0.019499,0.073002,43.092133,-16.740559,4.063769,4635730713692340200.000000,0.690001,-0.280421,0.582573,0.325379,-9.246734,-0.468179,-1.788011,-0.240284,0.154881,0.341737,44.409101,-13.147497,-2.797675,4635726525562355700.000000,0.311832,-0.683514,0.342455,0.564175,-9.617282,0.777403,-0.657156,-0.197114,-0.147753,-0.137443,40.724493,16.109197,10.382315,4635727814052544500.000000,-0.543051,-0.461147,-0.575962,0.400883,0
-9.698443,-0.607358,1.229158,-0.366006,0.046358,0.086888,43.092133,-16.588404,3.883251,4635730713692340200.000000,0.689340,-0.281330,0.582321,0.326445,-9.337988,-0.517761,-1.706849,-0.258875,0.152996,0.322574,44.410534,-13.347067,-2.807703,4635726525562355700.000000,0.310114,-0.683749,0.342958,0.564533,-9.483109,1.017356,-0.636774,-0.252841,-0.137429,-0.147767,41.534270,15.360188,10.290841,4635727814052544500.000000,-0.543615,-0.459987,-0.576354,0.400887,0
-9.510363,-0.343398,1.342549,-0.353822,0.124602,0.080376,43.024144,-16.405051,3.665511,4635730713692340200.000000,0.688509,-0.282326,0.582302,0.327370,-9.437070,-0.643442,-1.578306,-0.239886,0.150860,0.315730,44.421308,-13.442531,-2.635305,4635726525562355700.000000,0.308467,-0.683961,0.343482,0.564859,-9.472945,1.094580,-0.575739,-0.314613,-0.129241,-0.155775,42.239710,14.412645,10.290841,4635727814052544500.000000,-0.544263,-0.458681,-0.576882,0.400745,0
-9.385531,-0.113161,1.257896,-0.340373,0.163310,0.051629,42.938694,-16.438116,3.781000,4635730713692340200.000000,0.687639,-0.283405,0.582377,0.328134,-9.534728,-0.637650,-1.519449,-0.208845,0.156266,0.315104,44.411967,-13.377135,-2.698582,4635726525562355700.000000,0.306902,-0.684145,0.344083,0.565122,-9.474988,1.039531,-0.512664,-0.369953,-0.123905,-0.160401,42.296563,14.174931,10.307180,4635727814052544500.000000,-0.544995,-0.457246,-0.577522,0.400469,0
-9.353366,-0.160658,1.087259,-0.329036,0.145821,0.025316,43.057206,-16.717820,3.830630,4635730713692340200.000000,0.686858,-0.284491,0.582385,0.328814,-9.546189,-0.537813,-1.427521,-0.188114,0.172102,0.303790,44.345884,-13.442529,-2.710043,4635726525562355700.000000,0.305399,-0.684354,0.344721,0.565295,-9.493326,0.801338,-0.451674,-0.391290,-0.122475,-0.161290,42.237667,14.333640,10.370110,4635727814052544500.000000,-0.545760,-0.455761,-0.578201,0.400139,0
-9.360583,-0.280237,1.020699,-0.326003,0.094885,0.010097,43.160122,-16.785179,3.755424,4635730713692340200.000000,0.686224,-0.285535,0.582232,0.329504,-9.600050,-0.524918,-1.459147,-0.181145,0.188246,0.288147,44.337288,-13.527963,-2.451513,4635726336063348700.000000,0.303929,-0.684613,0.345349,0.565390,-9.536024,0.449544,-0.468009,-0.377930,-0.114824,-0.160754,42.272108,14.451480,10.264340,4635727814052544500.000000,-0.546481,-0.454319,-0.578872,0.399825,0
-9.372791,-0.421736,1.139478,-0.321536,0.055270,0.004078,43.109596,-16.522939,3.725753,4635730713692340200.000000,0.685698,-0.286526,0.581963,0.330212,-9.607226,-0.481826,-1.594165,-0.192771,0.193901,0.266468,44.337288,-13.613421,-2.417066,4635726310813990900.000000,0.302468,-0.684929,0.345895,0.565457,-9.556393,0.327596,-0.557496,-0.351229,-0.111798,-0.158443,42.113428,14.392565,10.209507,4635727814052544500.000000,-0.547146,-0.452947,-0.579499,0.399563,0
-9.355865,-0.412833,1.327275,-0.322993,0.040420,0.009152,43.092133,-16.455580,3.800940,4635730713692340200.000000,0.685198,-0.287487,0.581655,0.330955,-9.564133,-0.239078,-1.729883,-0.230224,0.198174,0.235553,44.412702,-13.688102,-2.664850,4635726310813990900.000000,0.300966,-0.685346,0.346268,0.565525,-9.615389,0.390674,-0.598163,-0.325597,-0.110198,-0.159508,41.993503,14.492338,10.307166,4635727814052544500.000000,-0.547756,-0.451633,-0.580088,0.399361,0
-9.302317,-0.364001,1.464338,-0.326198,0.027407,0.023427,43.160109,-16.785749,3.752941,4635730713692340200.000000,0.684705,-0.288405,0.581322,0.331761,-9.493765,-0.067491,-1.874922,-0.274579,0.203388,0.196914,44.347336,-13.696707,-2.611661,4635726310813990900.000000,0.299420,-0.685884,0.346433,0.565593,-9.654016,0.453714,-0.598163,-0.306909,-0.111266,-0.155235,42.095313,14.699789,10.386460,4635727814052544500.000000,-0.548339,-0.450368,-0.580634,0.399196,0
-9.289834,-0.295755,1.566983,-0.326004,0.012673,0.036050,43.109615,-16.928892,3.822855,4635730713692340200.000000,0.684230,-0.289271,0.580961,0.332621,-9.442071,-0.091911,-2.032163,-0.301530,0.204959,0.156455,44.197273,-13.922886,-2.427849,4635726310813990900.000000,0.297890,-0.686516,0.346419,0.565642,-9.658123,0.463881,-0.598163,-0.296407,-0.112334,-0.150785,42.298653,14.744448,10.359979,4635727814052544500.000000,-0.548911,-0.449136,-0.581150,0.399047,0
-9.386931,-0.241932,1.684059,-0.317289,0.011313,0.039303,43.024167,-16.749683,3.757945,4635730713692340200.000000,0.683762,-0.290101,0.580611,0.333469,-9.404008,-0.108431,-2.147788,-0.304422,0.197544,0.120574,44.113962,-14.028463,-2.318686,4635726405558948900.000000,0.296445,-0.687185,0.346286,0.565671,-9.735418,0.472038,-0.596124,-0.287508,-0.113402,-0.145266,42.272143,14.573517,10.280672,4635727814052544500.000000,-0.549477,-0.447935,-0.581637,0.398908,0
-9.509005,-0.348457,1.699327,-0.301510,0.020246,0.033574,42.938715,-16.631759,3.657788,4635730713692340200.000000,0.683299,-0.290913,0.580301,0.334251,-9.399700,-0.120637,-2.225333,-0.294998,0.189000,0.087213,44.320756,-13.963121,-2.221035,4635726418188173300.000000,0.295118,-0.687868,0.346068,0.565668,-9.772039,0.504555,-0.583916,-0.281632,-0.113578,-0.138857,42.139957,14.406828,10.290841,4635727814052544500.000000,-0.550042,-0.446761,-0.582102,0.398769,0
-9.660208,-0.533784,1.619152,-0.281871,0.029228,0.024398,42.930940,-16.750211,3.715483,4635730713692340200.000000,0.682849,-0.291702,0.580031,0.334949,-9.432012,-0.154385,-2.266266,-0.263584,0.171031,0.049389,44.414118,-13.953062,-2.123378,4635726418188173300.000000,0.293996,-0.688523,0.345793,0.565624,-9.800507,0.437391,-0.583937,-0.272553,-0.110554,-0.132092,42.137920,14.565508,10.274539,4635727814052544500.000000,-0.550593,-0.445629,-0.582544,0.398629,0
-9.828581,-0.855261,1.521511,-0.254785,0.007193,0.019883,42.933437,-16.911375,3.745173,4635730713692340200.000000,0.682491,-0.292395,0.579731,0.335595,-9.457863,-0.147926,-2.302888,-0.226576,0.155574,0.015648,44.218105,-14.103846,-2.198043,4635726418188173300.000000,0.293081,-0.689144,0.345488,0.565528,-9.788300,0.297034,-0.642936,-0.259733,-0.114472,-0.123369,42.127750,14.683450,10.193182,4635727814052544500.000000,-0.551143,-0.444540,-0.582939,0.398507,0
-9.931537,-1.092797,1.491803,-0.231890,-0.032060,0.021775,42.923730,-16.943876,3.592346,4635730713692340200.000000,0.682252,-0.292962,0.579352,0.336238,-9.493045,0.068891,-2.317968,-0.196733,0.146275,-0.008981,44.050804,-14.199348,-2.295692,4635726418188173300.000000,0.292322,-0.689741,0.345172,0.565386,-9.782205,0.252280,-0.691765,-0.240862,-0.120344,-0.112864,42.129788,14.612262,10.209482,4635727814052544500.000000,-0.551689,-0.443510,-0.583268,0.398417,0
-9.958740,-1.280894,1.450475,-0.211378,-0.059276,0.034322,42.989181,-16.885634,3.474698,4635730884455169000.000000,0.682086,-0.293403,0.578940,0.336900,-9.583511,0.086890,-2.416326,-0.169778,0.135845,-0.030595,44.247481,-14.198649,-2.221049,4635726418188173300.000000,0.291707,-0.690312,0.344844,0.565207,-9.800508,0.207505,-0.742626,-0.216830,-0.118208,-0.097555,42.152175,14.612262,10.288805,4635727814052544500.000000,-0.552210,-0.442575,-0.583534,0.398346,0
-10.000063,-1.337811,1.430768,-0.198728,-0.084471,0.059465,43.074620,-16.870632,3.532340,4635730928440705000.000000,0.681961,-0.293712,0.578504,0.337634,-9.745783,-0.173000,-2.396967,-0.134594,0.122337,-0.045362,44.340864,-13.981834,-2.123389,4635726418188173300.000000,0.291247,-0.690828,0.344540,0.564999,-9.784229,0.071198,-0.789409,-0.184251,-0.116250,-0.081356,42.186728,14.600044,10.280669,4635727814052544500.000000,-0.552692,-0.441758,-0.583719,0.398313,0
-9.980952,-1.245750,1.408853,-0.196539,-0.093122,0.092335,42.830061,-16.802686,3.630006,4635730928440705000.000000,0.681812,-0.293922,0.578086,0.338466,-9.776690,-0.347504,-2.284976,-0.108644,0.112221,-0.054536,44.274124,-13.877689,-2.036508,4635726418188173300.000000,0.290898,-0.691303,0.344258,0.564770,-9.751679,0.006108,-0.777211,-0.150428,-0.115182,-0.068359,42.056540,14.512549,10.307129,4635727814052544500.000000,-0.553131,-0.441051,-0.583827,0.398330,0
-9.944332,-1.152801,1.374735,-0.199087,-0.093148,0.127363,42.762535,-16.785179,3.572369,4635730757703644200.000000,0.681609,-0.294055,0.577707,0.339403,-9.735061,-0.463128,-2.205973,-0.084077,0.102608,-0.055544,44.328648,-13.867610,-1.940290,4635726418188173300.000000,0.290636,-0.691726,0.344018,0.564533,-9.733368,0.061040,-0.807722,-0.124795,-0.112867,-0.050381,42.105373,14.406774,10.386465,4635727814052544500.000000,-0.555010,-0.438297,-0.585482,0.396321,0
-9.878595,-0.980004,1.376934,-0.209934,-0.088683,0.152420,42.888703,-16.853117,3.474712,4635730713692340200.000000,0.681347,-0.294165,0.577356,0.340432,-9.686231,-0.529926,-2.154263,-0.057626,0.094879,-0.053659,44.272686,-13.942982,-2.014909,4635726418188173300.000000,0.290456,-0.692095,0.343838,0.564283,-9.708957,0.199390,-0.752789,-0.108061,-0.105391,-0.040055,42.284409,14.577679,10.376293,4635727814052544500.000000,-0.555394,-0.437772,-0.585487,0.396356,0
-9.766540,-0.765296,1.379437,-0.220203,-0.078248,0.168905,42.863004,-17.064713,3.386766,4635730713692340200.000000,0.681023,-0.294278,0.577038,0.341519,-9.637407,-0.537126,-2.008544,-0.041287,0.091171,-0.053407,44.113319,-13.877699,-2.026429,4635726418188173300.000000,0.290329,-0.692436,0.343691,0.564019,-9.772026,0.311289,-0.728375,-0.111621,-0.103788,-0.037029,42.186750,14.770958,10.345775,4635727814052544500.000000,-0.555784,-0.437250,-0.585496,0.396372,0
-9.625062,-0.429123,1.418252,-0.234062,-0.047819,0.179614,42.780060,-17.250632,3.301317,4635730713692340200.000000,0.680592,-0.294448,0.576800,0.342632,-9.610109,-0.537126,-1.946743,-0.035753,0.092677,-0.054349,44.093140,-13.867610,-1.940302,4635726418188173300.000000,0.290217,-0.692775,0.343557,0.563742,-9.670304,0.490315,-0.693796,-0.128532,-0.103077,-0.036138,42.080938,14.758758,10.193182,4635727814052544500.000000,-0.556205,-0.436691,-0.585533,0.396343,0
-9.410647,-0.169642,1.418562,-0.237129,0.001865,0.175642,42.956611,-17.353610,3.215865,4635730713692340200.000000,0.680042,-0.294707,0.576693,0.343679,-9.564168,-0.526361,-1.940977,-0.044668,0.092929,-0.059185,44.243846,-13.942962,-1.842653,4635726418188173300.000000,0.290091,-0.693132,0.343388,0.563471,-9.621467,0.628678,-0.620544,-0.150251,-0.094531,-0.042013,42.213200,14.671277,10.176913,4635727814052544500.000000,-0.556635,-0.436081,-0.585636,0.396259,0
-9.314565,0.081682,1.357843,-0.232035,0.028948,0.158826,43.006683,-17.303216,3.266258,4635730713692340200.000000,0.679457,-0.295030,0.576648,0.344633,-9.504581,-0.514155,-1.940977,-0.057232,0.093871,-0.069234,44.339385,-14.028404,-1.917216,4635726418188173300.000000,0.289950,-0.693521,0.343161,0.563203,-9.641814,0.675476,-0.594094,-0.172150,-0.090615,-0.050915,42.186750,14.551225,10.095523,4635727814052544500.000000,-0.557080,-0.435406,-0.585800,0.396134,0
-9.311745,0.308945,1.313704,-0.229022,0.046697,0.130259,42.812613,-17.343903,3.371123,4635730713692340200.000000,0.678873,-0.295438,0.576622,0.345477,-9.454308,-0.523474,-2.016318,-0.062515,0.088346,-0.078974,44.338732,-13.812491,-1.756562,4635726418188173300.000000,0.289825,-0.693917,0.342888,0.562947,-9.696745,0.758892,-0.502545,-0.184433,-0.084206,-0.060706,42.040272,14.650891,10.111788,4635727814052544500.000000,-0.557515,-0.434688,-0.586016,0.395991,0
-9.314249,0.431636,1.209166,-0.236224,0.053599,0.105228,42.830452,-17.494764,3.238416,4635730713692340200.000000,0.678299,-0.295937,0.576573,0.346258,-9.427004,-0.524918,-2.123296,-0.063962,0.080996,-0.090470,44.401867,-13.642239,-1.647348,4635726418188173300.000000,0.289733,-0.694313,0.342568,0.562699,-9.723192,0.750771,-0.439477,-0.187638,-0.083316,-0.066402,41.995479,14.844202,10.207412,4635727814052544500.000000,-0.557944,-0.433950,-0.586249,0.395851,0
-9.353053,0.354662,1.184118,-0.247534,0.044289,0.082580,42.974102,-17.529831,3.198340,4635730713692340200.000000,0.677765,-0.296508,0.576454,0.347014,-9.402592,-0.503395,-2.168581,-0.059381,0.072578,-0.100336,44.485863,-13.472799,-1.807979,4635726418188173300.000000,0.289690,-0.694699,0.342220,0.562458,-9.753716,0.638825,-0.386579,-0.183184,-0.082424,-0.073347,42.142012,14.805490,10.278633,4635727814052544500.000000,-0.558351,-0.433206,-0.586490,0.395736,0
-9.401882,0.193788,1.155015,-0.257586,0.025530,0.062696,43.006683,-17.335813,3.188639,4635730713692340200.000000,0.677292,-0.297127,0.576241,0.347760,-9.421223,-0.425173,-2.151395,-0.062515,0.069683,-0.114657,44.356085,-13.527889,-2.089387,4635726228875622400.000000,0.289675,-0.695101,0.341820,0.562212,-9.737427,0.524910,-0.427259,-0.168410,-0.077262,-0.077263,42.198948,14.612262,10.264381,4635727814052544500.000000,-0.558711,-0.432495,-0.586724,0.395657,0
-9.392509,0.071399,1.186295,-0.267198,0.023060,0.045169,42.870885,-17.285683,2.963039,4635730713692340200.000000,0.676837,-0.297812,0.575985,0.348482,-9.488685,-0.415052,-2.202310,-0.075262,0.067546,-0.122078,44.337288,-13.613340,-2.124088,4635726203439808500.000000,0.289643,-0.695524,0.341366,0.561980,-9.660126,0.474057,-0.423189,-0.161112,-0.072634,-0.079577,42.127750,14.650928,10.207427,4635727814052544500.000000,-0.559043,-0.431803,-0.586961,0.395592,0
-9.435990,-0.028766,1.264221,-0.269173,0.047263,0.033171,42.777583,-17.479671,2.837466,4635730713692340200.000000,0.676339,-0.298566,0.575779,0.349145,-9.572681,-0.501133,-2.220300,-0.079731,0.057878,-0.126603,44.401851,-13.623462,-1.865843,4635726203439808500.000000,0.289623,-0.695936,0.340877,0.561778,-9.676399,0.518810,-0.400808,-0.161647,-0.066937,-0.081713,42.127750,14.884923,10.278633,4635727814052544500.000000,-0.559358,-0.431114,-0.587216,0.395521,0
-9.545513,-0.155510,1.242984,-0.264082,0.071228,0.021642,42.762535,-17.529831,3.052668,4635730713692340200.000000,0.675805,-0.299368,0.575633,0.349733,-9.604332,-0.523471,-2.135667,-0.087643,0.054729,-0.130876,44.410534,-13.623462,-1.658950,4635726203439808500.000000,0.289594,-0.696356,0.340352,0.561590,-9.654021,0.478122,-0.382498,-0.169123,-0.065157,-0.078331,42.113507,15.086316,10.294912,4635727814052544500.000000,-0.559687,-0.430419,-0.587481,0.395420,0
-9.619094,-0.270393,1.194156,-0.255976,0.083476,0.018378,42.704346,-17.461946,3.258357,4635730713692340200.000000,0.675255,-0.300172,0.575529,0.350276,-9.607226,-0.503401,-2.091812,-0.106543,0.055417,-0.128558,44.195359,-13.623462,-1.732621,4635726203439808500.000000,0.289504,-0.696797,0.339791,0.561430,-9.647918,0.415050,-0.345877,-0.173396,-0.063555,-0.074236,42.030088,15.037482,10.362049,4635727814052544500.000000,-0.560026,-0.429725,-0.587749,0.395295,0
-9.709216,-0.389946,1.184118,-0.248280,0.080361,0.020704,42.747471,-17.386199,3.140850,4635730713692340200.000000,0.674719,-0.300945,0.575429,0.350811,-9.607226,-0.554296,-2.065949,-0.117423,0.054602,-0.127236,44.306246,-13.548152,-1.831727,4635726203439808500.000000,0.289380,-0.697247,0.339206,0.561288,-9.676402,0.351980,-0.374360,-0.188172,-0.053941,-0.070498,41.983294,14.844202,10.290841,4635727814052544500.000000,-0.560374,-0.429022,-0.588056,0.395109,0
-9.748694,-0.482927,1.203511,-0.242500,0.068862,0.031544,42.956465,-17.439011,2.945537,4635730713692340200.000000,0.674201,-0.301657,0.575318,0.351377,-9.628744,-0.701402,-1.987741,-0.110092,0.053534,-0.118637,44.464941,-13.387390,-1.757249,4635726203439808500.000000,0.289259,-0.697673,0.338663,0.561150,-9.719127,0.349941,-0.423185,-0.201345,-0.044685,-0.064445,42.066705,14.858436,10.272541,4635727814052544500.000000,-0.560732,-0.428318,-0.588396,0.394859,0
-9.773108,-0.616861,1.266712,-0.232069,0.061135,0.049453,43.006683,-17.582640,2.992630,4635730713692340200.000000,0.673687,-0.302286,0.575223,0.351977,-9.599370,-0.687965,-1.923813,-0.102362,0.059055,-0.109025,44.343932,-13.302563,-1.745659,4635726203439808500.000000,0.289130,-0.698089,0.338172,0.560995,-9.731334,0.386570,-0.467948,-0.210424,-0.038987,-0.059461,42.139950,14.941854,10.180974,4635727814052544500.000000,-0.561101,-0.427614,-0.588754,0.394564,0
-9.739349,-0.714860,1.330254,-0.227955,0.075935,0.069526,42.880642,-17.683150,3.092791,4635730713692340200.000000,0.673113,-0.302877,0.575199,0.352605,-9.627291,-0.576044,-1.948834,-0.109945,0.063581,-0.104118,44.325081,-13.293862,-1.573545,4635726203439808500.000000,0.288961,-0.698517,0.337683,0.560844,-9.755739,0.329626,-0.500495,-0.216122,-0.044148,-0.049849,42.188794,14.964269,10.183007,4635727814052544500.000000,-0.561507,-0.426912,-0.589092,0.394242,0
-9.690515,-0.742140,1.371903,-0.219031,0.098776,0.088974,42.721935,-17.564988,3.190457,4635730713692340200.000000,0.672466,-0.303429,0.575277,0.353236,-9.588613,-0.615326,-1.974699,-0.114852,0.064089,-0.096080,44.540223,-13.218562,-1.464283,4635726203439808500.000000,0.288758,-0.698941,0.337206,0.560708,-9.824928,0.079437,-0.583891,-0.210968,-0.058034,-0.033829,42.127750,14.758767,10.176927,4635727814052544500.000000,-0.561964,-0.426238,-0.589360,0.393920,0
-9.709557,-0.734956,1.234007,-0.216834,0.060345,0.109896,42.689289,-17.597698,3.132984,4635730713692340200.000000,0.671883,-0.303868,0.575277,0.353969,-9.518269,-0.697877,-1.934571,-0.113477,0.067854,-0.086594,44.569229,-13.208410,-1.624795,4635726203439808500.000000,0.288531,-0.699358,0.336764,0.560570,-9.800529,-0.256355,-0.720205,-0.169133,-0.063912,-0.013889,42.139941,14.736320,10.079268,4635727814052544500.000000,-0.562394,-0.425700,-0.589510,0.393663,0
-9.668624,-0.732444,1.273876,-0.217682,0.008421,0.127015,42.747453,-17.809159,3.122582,4635730713692340200.000000,0.671397,-0.304192,0.575151,0.354818,-9.455788,-0.643495,-1.939526,-0.124517,0.070244,-0.088275,44.418649,-13.208410,-1.734046,4635726392652340200.000000,0.288273,-0.699796,0.336294,0.560438,-9.725237,-0.211659,-0.840279,-0.129608,-0.056969,-0.000538,42.213183,14.929654,9.995832,4635727814052544500.000000,-0.562758,-0.425300,-0.589587,0.393460,0
-9.588201,-0.693670,1.429695,-0.212813,0.008890,0.139644,42.830388,-17.859430,3.047547,4635730713692340200.000000,0.670896,-0.304472,0.575048,0.355689,-9.394752,-0.548740,-2.048534,-0.147687,0.067674,-0.091480,44.333792,-13.208410,-1.659614,4635726418188173300.000000,0.287958,-0.700260,0.335758,0.560341,-9.715038,0.010177,-0.824012,-0.105578,-0.053585,0.015483,42.290482,14.891076,10.018142,4635727814052544500.000000,-0.563097,-0.425000,-0.589604,0.393273,0
-9.531830,-0.596373,1.455195,-0.210645,0.039740,0.148849,42.906147,-17.665559,2.940194,4635730713692340200.000000,0.670310,-0.304769,0.575047,0.356541,-9.355230,-0.537126,-2.170595,-0.166606,0.062588,-0.095625,44.540168,-13.208410,-1.561965,4635726418188173300.000000,0.287605,-0.700740,0.335159,0.560281,-9.757801,0.008122,-0.783329,-0.078341,-0.054120,0.031505,42.371899,14.697714,10.180974,4635727814052544500.000000,-0.563415,-0.424803,-0.589547,0.393115,0
-9.560544,-0.583440,1.404219,-0.207033,0.047847,0.144672,42.737074,-17.876978,2.936954,4635730713692340200.000000,0.669715,-0.305078,0.575067,0.357363,-9.383133,-0.537126,-2.303421,-0.171590,0.049720,-0.098015,44.709033,-13.272935,-1.636374,4635726229004476400.000000,0.287261,-0.701200,0.334525,0.560262,-9.713033,0.075222,-0.716203,-0.050210,-0.052339,0.047172,42.359717,14.683503,10.197215,4635727814052544500.000000,-0.563705,-0.424713,-0.589421,0.392987,0
-9.628757,-0.605340,1.430412,-0.203608,0.046371,0.135499,42.553601,-18.012727,2.864448,4635730713692340200.000000,0.669140,-0.305396,0.575076,0.358151,-9.430510,-0.537126,-2.340915,-0.170090,0.048067,-0.093565,44.588121,-13.356934,-1.647999,4635726203439808500.000000,0.286912,-0.701646,0.333906,0.560250,-9.680505,0.229844,-0.628698,-0.031873,-0.051274,0.060346,42.284450,14.612262,10.278633,4635727814052544500.000000,-0.563981,-0.424701,-0.589243,0.392870,0
-9.731078,-0.668523,1.469550,-0.197012,0.027273,0.129278,42.518387,-17.836493,2.766788,4635730713692340200.000000,0.668628,-0.305683,0.575033,0.358931,-9.457831,-0.558634,-2.386838,-0.151957,0.040539,-0.089165,44.354145,-13.367106,-1.734033,4635726203439808500.000000,0.286617,-0.702047,0.333333,0.560240,-9.613347,0.368181,-0.596134,-0.019585,-0.046108,0.070137,42.184798,14.624434,10.231973,4635727814052544500.000000,-0.564239,-0.424749,-0.589040,0.392752,0
-9.763407,-0.732075,1.448020,-0.191231,0.004622,0.129874,42.460233,-17.844338,2.824203,4635730713692340200.000000,0.668177,-0.305918,0.574936,0.359727,-9.579020,-0.593799,-2.371145,-0.120373,0.027290,-0.083011,44.389600,-13.152049,-1.917705,4635726203439808500.000000,0.286418,-0.702371,0.332836,0.560232,-9.580784,0.502531,-0.575818,-0.017619,-0.048595,0.080817,42.028105,14.699698,9.983671,4635727814052544500.000000,-0.564517,-0.424825,-0.588809,0.392618,0
-9.727159,-0.870634,1.459855,-0.182499,0.006784,0.123530,42.512978,-18.121086,3.009071,4635730713692340200.000000,0.667740,-0.306146,0.574849,0.360481,-9.627273,-0.565908,-2.228468,-0.104198,0.031280,-0.071899,44.473585,-13.047699,-1.854966,4635726203439808500.000000,0.286235,-0.702669,0.332413,0.560203,-9.564522,0.496491,-0.504643,-0.025636,-0.057854,0.091144,41.973064,14.744601,9.975264,4635727814052544500.000000,-0.564848,-0.424892,-0.588551,0.392456,0
-9.717093,-1.029326,1.464888,-0.165254,0.049246,0.119225,42.588736,-18.121196,2.974326,4635730713692340200.000000,0.667229,-0.306401,0.574901,0.361128,-9.567126,-0.626056,-2.231045,-0.093134,0.031104,-0.066734,44.548293,-12.962239,-1.671277,4635726203439808500.000000,0.286072,-0.702946,0.332031,0.560165,-9.548175,0.417079,-0.388652,-0.022974,-0.063911,0.099866,42.082889,14.585904,10.305034,4635727814052544500.000000,-0.565204,-0.424976,-0.588259,0.392290,0
-9.804298,-1.013597,1.426131,-0.143486,0.047947,0.116021,42.661974,-18.045442,2.789471,4635730713692340200.000000,0.666754,-0.306600,0.574977,0.361715,-9.504640,-0.742299,-2.008175,-0.072105,0.032858,-0.062462,44.481761,-12.952055,-1.572739,4635726487142651900.000000,0.285958,-0.703196,0.331713,0.560098,-9.651869,0.453613,-0.313338,-0.011032,-0.062311,0.109479,42.237570,14.467756,10.345885,4635727814052544500.000000,-0.565550,-0.425115,-0.587934,0.392128,0
-9.885101,-0.875033,1.474201,-0.120205,0.017729,0.110273,42.686772,-18.224141,2.688524,4635730713692340200.000000,0.666389,-0.306703,0.574997,0.362268,-9.443610,-0.638609,-1.676601,-0.080717,0.049103,-0.061012,44.546820,-12.876805,-1.648547,4635726525562355700.000000,0.285794,-0.703492,0.331398,0.559997,-9.804624,0.585955,-0.297029,-0.021704,-0.058039,0.117319,42.296627,14.553198,10.176976,4635727814052544500.000000,-0.565917,-0.425255,-0.587622,0.391914,0
-9.803309,-0.793864,1.557129,-0.093316,0.034421,0.108103,42.621462,-18.400446,2.828453,4635730713692340200.000000,0.666021,-0.306762,0.575100,0.362730,-9.425572,-0.547320,-1.754054,-0.123639,0.052212,-0.070292,44.696785,-12.866603,-1.574198,4635726525562355700.000000,0.285521,-0.703859,0.330959,0.559934,-9.731445,0.606201,-0.305245,-0.044304,-0.051287,0.116074,42.300618,14.610297,10.095523,4635727814052544500.000000,-0.566306,-0.425349,-0.587365,0.391636,0
-9.710306,-0.713450,1.506931,-0.072328,0.059241,0.106187,42.603836,-18.365355,3.014077,4635730713692340200.000000,0.665624,-0.306804,0.575302,0.363104,-9.445618,-0.569379,-2.049606,-0.152764,0.046695,-0.077210,44.790977,-12.866603,-1.551796,4635726430996278300.000000,0.285186,-0.704257,0.330425,0.559920,-9.637652,0.730297,-0.221881,-0.075269,-0.033832,0.113760,42.371899,14.512702,10.095523,4635727814052544500.000000,-0.566703,-0.425393,-0.587204,0.391256,0
-9.692678,-0.569863,1.334277,-0.058188,0.068328,0.109138,42.545703,-18.357416,2.906513,4635730713692340200.000000,0.665218,-0.306814,0.575553,0.363441,-9.394787,-0.552251,-2.098215,-0.159712,0.051573,-0.080796,44.725929,-12.791362,-1.561089,4635726418188173300.000000,0.284832,-0.704679,0.329870,0.559896,-9.745485,0.838265,-0.122005,-0.114091,-0.028474,0.110379,42.371899,14.368183,10.063153,4635727814052544500.000000,-0.567149,-0.425345,-0.587124,0.390779,0
-9.682990,-0.575878,1.332737,-0.037742,0.049933,0.115953,42.394960,-18.485879,2.723420,4635730713692340200.000000,0.664871,-0.306722,0.575794,0.363771,-9.387493,-0.538585,-1.992190,-0.177151,0.062684,-0.081179,44.715717,-12.716661,-1.562548,4635726418188173300.000000,0.284413,-0.705148,0.329287,0.559862,-9.814821,0.775411,-0.207388,-0.136357,-0.037385,0.105576,42.386060,14.294938,9.916389,4635727814052544500.000000,-0.567649,-0.425219,-0.587069,0.390274,0
-9.651411,-0.605328,1.439680,-0.006838,0.026216,0.119191,42.369377,-18.712362,2.772807,4635730713692340200.000000,0.664616,-0.306501,0.576019,0.364066,-9.494976,-0.601616,-1.966851,-0.195437,0.056565,-0.084941,44.780209,-12.632668,-1.476561,4635726418188173300.000000,0.283956,-0.705629,0.328642,0.559866,-9.749670,0.545358,-0.333646,-0.144206,-0.035969,0.097922,42.457348,14.233832,10.030229,4635727814052544500.000000,-0.568146,-0.425057,-0.587042,0.389766,0
-9.605104,-0.523194,1.309909,0.013561,0.032381,0.116242,42.371899,-18.762779,3.018279,4635730713692340200.000000,0.664377,-0.306240,0.576289,0.364296,-9.498821,-0.621117,-2.180332,-0.200428,0.045200,-0.098617,44.724480,-12.697684,-1.550865,4635726418188173300.000000,0.283533,-0.706108,0.327931,0.559894,-9.717171,0.478033,-0.354015,-0.137090,-0.026717,0.090969,42.431067,14.233832,10.162858,4635727814052544500.000000,-0.568597,-0.424910,-0.587038,0.389275,0
-9.662822,-0.277720,0.940238,0.009462,0.042877,0.108580,42.371899,-18.569054,3.221559,4635730713692340200.000000,0.664119,-0.306025,0.576571,0.364501,-9.411385,-0.536603,-2.392236,-0.192349,0.040033,-0.102287,44.500780,-12.707907,-1.734497,4635726418188173300.000000,0.283148,-0.706569,0.327222,0.559922,-9.647970,0.565506,-0.347950,-0.128532,-0.015668,0.090976,42.284501,14.245962,9.993898,4635727814052544500.000000,-0.569005,-0.424801,-0.587045,0.388786,0
-9.816062,-0.122883,0.738297,-0.001845,-0.002595,0.103425,42.304102,-18.450836,3.104416,4635730713692340200.000000,0.663963,-0.305784,0.576704,0.364777,-9.474928,-0.546412,-2.535281,-0.163928,0.031058,-0.095019,44.471569,-12.632679,-1.843841,4635726418188173300.000000,0.282843,-0.706966,0.326590,0.559945,-9.591055,0.653057,-0.311328,-0.131729,-0.013355,0.086697,42.227350,14.292927,9.942732,4635727814052544500.000000,-0.569407,-0.424678,-0.587071,0.388294,0
-9.967634,-0.107347,0.930859,0.005052,-0.052254,0.099999,42.354264,-18.500997,2.986552,4635730713692340200.000000,0.663940,-0.305457,0.576705,0.365090,-9.592595,-0.581566,-2.615813,-0.130138,0.018627,-0.085536,44.611247,-12.472035,-1.683617,4635726512692912100.000000,0.282631,-0.707280,0.326050,0.559969,-9.505527,0.671494,-0.284811,-0.137799,-0.011742,0.087765,42.312794,14.209503,10.111684,4635727814052544500.000000,-0.569816,-0.424545,-0.587109,0.387782,0
-10.026931,-0.187380,1.163205,0.021042,-0.057714,0.099338,42.497857,-18.586455,3.043912,4635730713692340200.000000,0.663952,-0.305079,0.576715,0.365370,-9.628717,-0.564465,-2.624592,-0.099716,0.004868,-0.082503,44.694737,-12.451551,-1.660207,4635726525562355700.000000,0.282521,-0.707523,0.325573,0.559996,-9.495253,0.610370,-0.317306,-0.129622,-0.017267,0.089010,42.384106,14.136259,10.177021,4635727814052544500.000000,-0.570226,-0.424426,-0.587117,0.387296,0
-10.044172,-0.314081,1.179472,0.018634,-0.027794,0.095947,42.404666,-18.536275,3.064058,4635730713692340200.000000,0.663894,-0.304761,0.576799,0.365608,-9.620895,-0.518559,-2.409684,-0.076389,-0.000556,-0.076606,44.703510,-12.526769,-1.574244,4635726525562355700.000000,0.282473,-0.707717,0.325162,0.560014,-9.558309,0.612390,-0.390549,-0.112532,-0.017628,0.091323,42.384106,14.060997,10.111682,4635727814052544500.000000,-0.570610,-0.424352,-0.587093,0.386848,0
-10.104810,-0.467728,1.220342,0.026413,-0.003344,0.080657,42.178174,-18.586434,2.918765,4635730713692340200.000000,0.663810,-0.304496,0.576943,0.365753,-9.576457,-0.555687,-2.326723,-0.083103,-0.004829,-0.083359,44.714254,-12.612212,-1.562548,4635726525562355700.000000,0.282427,-0.707918,0.324710,0.560046,-9.633564,0.616521,-0.461767,-0.098093,-0.013718,0.093997,42.371993,13.977572,10.209332,4635727814052544500.000000,-0.570964,-0.424325,-0.587050,0.386421,0
-10.052126,-0.558628,1.329822,0.061898,0.045993,0.057411,42.127750,-18.739706,2.735636,4635730713692340200.000000,0.663688,-0.304263,0.577248,0.365687,-9.570604,-0.540055,-2.276436,-0.093783,-0.016621,-0.091904,44.640521,-12.697653,-1.648489,4635726525562355700.000000,0.282385,-0.708115,0.324194,0.560117,-9.714979,0.583937,-0.494543,-0.096848,-0.005887,0.093467,42.310860,13.890197,10.276710,4635727814052544500.000000,-0.571295,-0.424313,-0.587024,0.385984,0
-10.034486,-0.641546,1.364707,0.104397,0.070392,0.025220,42.379568,-18.707189,2.697836,4635730713692340200.000000,0.663609,-0.304027,0.577645,0.365398,-9.602835,-0.526382,-2.313552,-0.101646,-0.022859,-0.093869,44.705472,-12.632700,-1.574257,4635726525562355700.000000,0.282333,-0.708310,0.323646,0.560214,-9.767941,0.575766,-0.386697,-0.094889,0.004256,0.091852,42.322971,13.771873,10.189241,4635727814052544500.000000,-0.571595,-0.424317,-0.587022,0.385539,0
-10.053855,-0.804471,1.241327,0.154747,0.027942,0.000363,42.445141,-18.689535,2.920586,4635730713692340200.000000,0.663735,-0.303648,0.577969,0.364974,-9.639450,-0.578625,-2.340889,-0.088444,-0.026319,-0.092117,44.855357,-12.472076,-1.562548,4635726525562355700.000000,0.282320,-0.708478,0.323130,0.560305,-9.798302,0.592007,-0.321323,-0.093997,0.015307,0.096142,42.398226,13.843195,10.107730,4635727814052544500.000000,-0.571873,-0.424351,-0.587037,0.385065,0
-10.010477,-1.045691,1.160109,0.195222,-0.025501,-0.008510,42.261130,-18.747643,3.133563,4635730713692340200.000000,0.664053,-0.303096,0.578195,0.364494,-9.622364,-0.714863,-2.257883,-0.049862,-0.030463,-0.086221,44.799219,-12.376355,-1.648486,4635726525562355700.000000,0.282413,-0.708583,0.322716,0.560363,-9.898187,0.592319,-0.435120,-0.097174,0.019914,0.089910,42.483676,13.831092,10.121851,4635727814052544500.000000,-0.572135,-0.424370,-0.587079,0.384590,0
-9.901016,-1.272992,1.428354,0.228371,-0.017674,-0.012156,42.145408,-18.762779,3.173925,4635730713692340200.000000,0.664400,-0.302473,0.578489,0.363915,-9.576469,-0.700221,-2.256903,-0.019486,-0.031916,-0.081692,44.713774,-12.366099,-1.832065,4635726525562355700.000000,0.282587,-0.708643,0.322385,0.560391,-9.871861,0.401144,-0.596146,-0.105988,0.040534,0.084393,42.540889,13.767934,10.209318,4635727814052544500.000000,-0.572353,-0.424388,-0.587194,0.384070,0
-9.895156,-1.483021,1.617714,0.275664,0.037174,-0.018749,42.127750,-18.569107,3.096456,4635730713692340200.000000,0.664683,-0.301818,0.578996,0.363133,-9.570604,-0.642117,-2.355039,-0.001925,-0.048022,-0.082119,44.853886,-12.366099,-1.769597,4635726525562355700.000000,0.282835,-0.708645,0.322075,0.560441,-9.808477,0.185355,-0.583940,-0.063786,0.075103,0.078690,42.457462,13.771852,10.290841,4635727814052544500.000000,-0.572403,-0.424547,-0.587334,0.383606,0
-9.958304,-1.593709,1.454333,0.323544,0.067996,-0.021142,42.059966,-18.450848,3.144049,4635730713692340200.000000,0.664955,-0.301082,0.579658,0.362190,-9.538381,-0.570339,-2.454164,0.011278,-0.064300,-0.083187,44.938860,-12.290912,-1.671938,4635726525562355700.000000,0.283147,-0.708595,0.321773,0.560520,-9.904233,0.145768,-0.579792,-0.037540,0.087059,0.077259,42.396313,13.817006,10.290841,4635727814052544500.000000,-0.572374,-0.424785,-0.587463,0.383188,0
-10.147727,-1.669470,1.287666,0.399343,0.042983,-0.023905,42.177846,-18.559047,3.394089,4635730713692340200.000000,0.665384,-0.300104,0.580360,0.361087,-9.512503,-0.550801,-2.541073,0.024094,-0.076562,-0.086135,44.797304,-12.141031,-1.499111,4635726525562355700.000000,0.283520,-0.708505,0.321478,0.560615,-9.912526,0.579223,-0.590215,-0.054602,0.086147,0.078690,42.384219,13.670390,10.276732,4635727814052544500.000000,-0.572381,-0.424983,-0.587614,0.382726,0
-10.299682,-1.549076,1.179908,0.509765,-0.016428,-0.033039,42.339066,-18.659647,3.454695,4635730713692340200.000000,0.666107,-0.298752,0.581050,0.359765,-9.466609,-0.549333,-2.594305,0.051947,-0.095829,-0.084641,44.712318,-12.261565,-1.724105,4635726525562355700.000000,0.283998,-0.708335,0.321229,0.560731,-9.847346,0.871241,-0.470167,-0.084539,0.096651,0.077435,42.323067,13.599048,10.221503,4635727814052544500.000000,-0.572412,-0.425124,-0.587840,0.382176,0
-10.337146,-1.291009,1.333997,0.634898,-0.018046,-0.057278,42.246017,-18.483668,3.522476,4635730713692340200.000000,0.667022,-0.297106,0.581889,0.358072,-9.471477,-0.592291,-2.557219,0.097831,-0.107667,-0.083444,44.853866,-12.280647,-2.015615,4635726525562355700.000000,0.284623,-0.708081,0.321077,0.560821,-9.826960,0.598649,-0.378430,-0.091022,0.105912,0.081697,42.389539,13.601062,10.331248,4635727814052544500.000000,-0.572439,-0.425275,-0.588090,0.381582,0
-10.310627,-1.078052,1.301989,0.736574,0.017235,-0.075727,42.087348,-18.297646,3.695043,4635730713692340200.000000,0.667999,-0.295273,0.582950,0.356035,-9.451466,-0.684079,-2.465431,0.145897,-0.109891,-0.078617,45.014029,-12.130294,-2.222676,4635726525562355700.000000,0.285383,-0.707758,0.321048,0.560859,-9.804805,0.347973,-0.402598,-0.058460,0.112684,0.090253,42.737995,13.599170,10.473952,4635727814052544500.000000,-0.572404,-0.425534,-0.588290,0.381036,0
-10.351450,-1.027949,0.836480,0.811306,-0.001469,-0.091748,42.180348,-18.455883,3.812908,4635730713692340200.000000,0.669130,-0.293241,0.584044,0.353791,-9.459268,-0.749513,-2.367782,0.190200,-0.114717,-0.069518,44.882774,-12.109744,-2.074350,4635726525562355700.000000,0.286258,-0.707358,0.321144,0.560863,-9.658460,0.335508,-0.539008,-0.023687,0.114655,0.093986,42.734745,13.548075,10.459862,4635727814052544500.000000,-0.572309,-0.425889,-0.588432,0.380563,0
-10.470582,-1.112556,0.642785,0.895990,-0.076316,-0.109466,42.280971,-18.574194,3.910577,4635730713692340200.000000,0.670564,-0.290901,0.585025,0.351378,-9.471475,-0.853490,-2.280871,0.233050,-0.117239,-0.054269,44.722628,-12.260059,-1.793161,4635726336684804100.000000,0.287226,-0.706881,0.321381,0.560834,-9.485152,0.471542,-0.594267,-0.022397,0.110383,0.100394,42.408520,13.586971,10.374410,4635727814052544500.000000,-0.572232,-0.426256,-0.588551,0.380084,0
