Accelerometer-X,Accelerometer-Y,Accelerometer-Z,Gyroscope-X,Gyroscope-Y,Gyroscope-Z,Magnetometer-X,Magnetometer-Y,Magnetometer-Z,Barometer-pressure,Orientation-S,Orientation-X,Orientation-Y,Orientation-Z,Accelerometer-X,Accelerometer-Y,Accelerometer-Z,Gyroscope-X,Gyroscope-Y,Gyroscope-Z,Magnetometer-X,Magnetometer-Y,Magnetometer-Z,Barometer-pressure,Orientation-S,Orientation-X,Orientation-Y,Orientation-Z,Accelerometer-X,Accelerometer-Y,Accelerometer-Z,Gyroscope-X,Gyroscope-Y,Gyroscope-Z,Magnetometer-X,Magnetometer-Y,Magnetometer-Z,Barometer-pressure,Orientation-S,Orientation-X,Orientation-Y,Orientation-Z,jump
-9.700791,-1.183167,0.930906,-0.548587,0.004356,-0.057155,41.083830,18.552110,-0.271707,4635731465311617000.000000,-0.704926,-0.245628,-0.585194,0.316692,-9.682194,0.073294,-1.907850,-0.187374,-0.017857,-0.130008,37.883069,-12.720164,24.793236,4635727169807450100.000000,0.588774,-0.317842,0.696747,0.258584,-9.681346,1.741812,-0.607257,-0.431982,0.182479,-0.071327,42.964952,8.624653,-11.532253,4635728673582874600.000000,-0.234220,-0.684293,-0.284484,0.629248,0
-9.546484,-1.092382,0.990043,-0.528292,0.004049,-0.026807,41.062039,18.512707,-0.328651,4635731465311617000.000000,-0.705401,-0.243930,-0.586027,0.315405,-9.642081,0.151751,-1.927044,-0.170896,-0.021208,-0.130774,37.821903,-12.805608,24.737333,4635727169807450100.000000,0.588703,-0.318689,0.696310,0.258880,-9.681590,1.997782,-0.636779,-0.548018,0.184070,-0.103295,42.877751,8.679219,-11.450544,4635728673582874600.000000,-0.235236,-0.684094,-0.286424,0.628204,0
-9.403450,-0.866707,0.918054,-0.510684,-0.034019,0.018845,41.837326,18.624422,-0.235689,4635731465311617000.000000,-0.706006,-0.242345,-0.586676,0.314063,-9.589757,0.181343,-2.009087,-0.155636,-0.020910,-0.137032,37.647633,-12.845640,24.597918,4635727169807450100.000000,0.588658,-0.319516,0.695881,0.259116,-9.613452,1.854021,-0.639892,-0.666157,0.183373,-0.129650,42.804263,8.882513,-11.507349,4635728736038492200.000000,-0.236516,-0.683742,-0.288742,0.627044,0
-9.191848,-0.473897,0.813513,-0.509370,-0.102024,0.053956,42.952855,18.373681,-0.116134,4635731446035033100.000000,-0.706819,-0.240759,-0.587085,0.312688,-9.546189,0.167450,-2.120555,-0.133807,-0.030829,-0.142520,37.717502,-12.814320,24.573463,4635727169807450100.000000,0.588676,-0.320295,0.695443,0.259289,-9.589911,1.536650,-0.648984,-0.747690,0.170403,-0.157322,42.799156,9.076945,-11.441707,4635728780957057000.000000,-0.237970,-0.683236,-0.291337,0.625844,0
-8.860999,-0.479222,0.841696,-0.525502,-0.141761,0.067184,43.096191,17.717614,-0.284846,4635731357937434600.000000,-0.707758,-0.239106,-0.587381,0.311273,-9.563651,0.188301,-2.033382,-0.101771,-0.036314,-0.141912,37.916227,-12.936452,24.512466,4635727139088615400.000000,0.588751,-0.320987,0.695027,0.259377,-9.623416,1.311563,-0.687596,-0.794633,0.154283,-0.179153,42.848851,9.235634,-11.145019,4635728780957057000.000000,-0.239521,-0.682606,-0.294101,0.624646,0
-8.635016,-0.584390,1.140921,-0.533417,-0.086739,0.071374,42.820441,17.239044,-0.379995,4635731357937434600.000000,-0.708572,-0.237510,-0.587842,0.309769,-9.610718,0.106375,-2.000283,-0.082548,-0.033115,-0.148478,37.977230,-13.040911,24.540402,4635727062433267700.000000,0.588850,-0.321654,0.694631,0.259389,-9.693537,1.159976,-0.693833,-0.814451,0.139156,-0.187721,42.927198,9.436909,-10.929877,4635728780957057000.000000,-0.241121,-0.681898,-0.296922,0.623469,0
-8.746972,-0.738086,1.508077,-0.524954,0.041037,0.069732,42.765648,17.264382,-0.169395,4635731357937434600.000000,-0.709059,-0.236098,-0.588668,0.308161,-9.608962,0.153508,-2.015957,-0.067442,-0.039370,-0.159154,37.949307,-12.772358,24.606634,4635727062433267700.000000,0.588998,-0.322308,0.694220,0.259340,-9.800277,0.793467,-0.676517,-0.768692,0.126240,-0.181610,42.964949,9.533982,-10.832222,4635728656097362900.000000,-0.242617,-0.681203,-0.299588,0.622372,0
-9.266237,-0.670827,1.470293,-0.523473,0.107428,0.061630,42.851096,17.290745,0.078544,4635731357937434600.000000,-0.709367,-0.234756,-0.589692,0.306514,-9.561874,0.279020,-2.031681,-0.052949,-0.045016,-0.160681,37.879574,-12.557940,24.570001,4635727062433267700.000000,0.589183,-0.322925,0.693810,0.259252,-9.872668,0.275646,-0.763677,-0.659913,0.118664,-0.163202,42.970058,9.491396,-10.734563,4635728566208692200.000000,-0.243859,-0.680615,-0.301908,0.621408,0
-9.763024,-0.450199,1.124709,-0.534092,0.044408,0.032743,42.951850,17.044434,0.195878,4635731357937434600.000000,-0.709799,-0.233229,-0.590569,0.304986,-9.544462,0.299980,-2.171191,-0.050356,-0.056461,-0.170296,37.904000,-12.610248,24.472342,4635727062433267700.000000,0.589414,-0.323550,0.693360,0.259149,-9.902192,-0.095112,-0.936568,-0.513551,0.107733,-0.136424,42.970058,9.553007,-10.587220,4635728566208692200.000000,-0.244769,-0.680175,-0.303763,0.620627,0
-9.988759,-0.197862,0.973134,-0.562469,-0.069706,-0.007797,43.107443,16.864630,0.381532,4635731357937434600.000000,-0.710485,-0.231373,-0.591181,0.303617,-9.656065,0.446445,-2.230457,-0.050049,-0.065005,-0.186011,37.965023,-12.564890,24.402599,4635727062433267700.000000,0.589688,-0.324210,0.692868,0.259018,-9.891121,-0.356559,-0.977730,-0.360171,0.094022,-0.107139,42.970058,9.711692,-10.567349,4635728566208692200.000000,-0.245338,-0.679890,-0.305123,0.620047,0
-10.054526,-0.060477,1.043835,-0.583258,-0.129802,-0.036495,43.162275,17.063967,0.431989,4635731357937434600.000000,-0.711297,-0.229308,-0.591664,0.302337,-9.731045,0.355752,-2.111878,-0.031586,-0.069430,-0.189673,38.010368,-12.402719,24.374695,4635727062433267700.000000,0.590002,-0.324830,0.692380,0.258830,-9.861597,-0.492266,-1.008947,-0.214810,0.088035,-0.078921,42.920387,9.728457,-10.608233,4635728566208692200.000000,-0.245573,-0.679774,-0.306020,0.619639,0
-9.953580,0.079254,1.149132,-0.596632,-0.120893,-0.089742,43.076827,17.349819,0.341807,4635731357937434600.000000,-0.712028,-0.227081,-0.592238,0.301171,-9.755458,0.068012,-1.954926,0.000611,-0.076296,-0.193640,38.148138,-12.305064,24.304939,4635727062433267700.000000,0.590384,-0.325375,0.691903,0.258549,-9.794619,-0.292781,-1.142065,-0.138741,0.082622,-0.055499,42.983931,9.692678,-10.608233,4635728628610676700.000000,-0.245659,-0.679752,-0.306647,0.619319,0
-9.488878,-0.266380,1.067442,-0.577002,-0.180135,-0.182788,42.978284,17.389381,0.361468,4635731357937434600.000000,-0.712765,-0.224608,-0.592695,0.300383,-9.718839,0.066261,-1.888656,0.019989,-0.082247,-0.204626,38.209171,-12.387023,24.332837,4635727031760450600.000000,0.590821,-0.325898,0.691417,0.258193,-9.718249,0.071423,-1.109227,-0.116558,0.069733,-0.037068,43.090977,9.791984,-10.664980,4635728673582874600.000000,-0.245745,-0.679743,-0.307151,0.619045,0
-9.084121,-1.300332,1.557223,-0.506115,-0.112209,-0.221587,42.819570,17.251247,0.486645,4635731357937434600.000000,-0.713215,-0.222333,-0.593297,0.299819,-9.685707,0.209244,-1.961890,0.020603,-0.089418,-0.222324,38.184773,-12.442830,24.430483,4635726955059085300.000000,0.591298,-0.326461,0.690890,0.257801,-9.678493,0.028238,-0.881596,-0.071716,0.056194,-0.019979,43.073993,9.856489,-10.705893,4635728673582874600.000000,-0.245765,-0.679767,-0.307476,0.618849,0
-9.304912,-1.751840,2.078569,-0.440367,0.238431,-0.173751,42.673991,17.274381,0.662290,4635731357937434600.000000,-0.712792,-0.220808,-0.594812,0.298948,-9.654319,0.329588,-2.010735,0.005191,-0.095522,-0.240026,38.148124,-12.402745,24.444479,4635726955059085300.000000,0.591789,-0.327107,0.690306,0.257418,-9.689541,-0.436129,-0.683954,0.045747,0.069269,-0.003509,43.050397,9.759170,-10.592410,4635728673582874600.000000,-0.245478,-0.679967,-0.307464,0.618750,0
-9.936293,-1.852831,1.591864,-0.415363,0.426363,-0.055344,42.619126,17.349802,0.749918,4635731357937434600.000000,-0.712024,-0.219884,-0.596741,0.297613,-9.608978,0.359271,-2.029895,-0.014034,-0.102997,-0.252691,38.205686,-12.231856,24.249178,4635726955059085300.000000,0.592289,-0.327827,0.689665,0.257069,-9.775810,-0.323878,-0.821165,0.148943,0.071697,0.009410,43.055511,9.650124,-10.397096,4635728673582874600.000000,-0.244929,-0.680294,-0.307153,0.618762,0
-10.794549,-1.585045,0.709970,-0.435129,0.216258,0.070035,42.717684,17.391569,0.847577,4635731357937434600.000000,-0.711948,-0.218952,-0.597952,0.296047,-9.565386,0.193643,-2.134524,-0.027467,-0.115815,-0.261085,38.221360,-12.109744,24.109621,4635726955059085300.000000,0.592816,-0.328591,0.688965,0.256756,-9.961704,0.543743,-1.141680,0.139633,0.024995,0.011404,43.012960,9.661985,-10.371991,4635728673582874600.000000,-0.244472,-0.680494,-0.306813,0.618892,0
-11.020888,-1.142628,0.180533,-0.457618,-0.206299,0.153024,42.863271,17.230697,0.929946,4635731319522339800.000000,-0.713044,-0.217637,-0.597859,0.294562,-9.486923,-0.101087,-2.239173,-0.016335,-0.128633,-0.262156,38.282417,-12.109744,24.165383,4635726955059085300.000000,0.593395,-0.329316,0.688244,0.256425,-9.973799,1.215738,-1.063908,0.082197,0.007965,0.013957,42.925533,9.784872,-10.526384,4635728673582874600.000000,-0.244207,-0.680594,-0.306597,0.618993,0
-10.314280,-0.941270,0.472748,-0.431296,-0.466342,0.183912,42.918166,17.105635,0.922518,4635731143189069800.000000,-0.714797,-0.216158,-0.596929,0.293285,-9.382277,-0.334794,-2.265361,0.024249,-0.141145,-0.251933,38.352111,-12.060959,24.249184,4635726955059085300.000000,0.594054,-0.329898,0.687547,0.256020,-9.820229,1.244708,-0.823373,0.044305,0.027190,0.015849,42.934244,9.901011,-10.551506,4635728673582874600.000000,-0.244029,-0.680708,-0.306493,0.618990,0
-9.642475,-0.860582,1.453246,-0.382156,-0.289730,0.179060,42.863264,17.175816,0.857590,4635731143189069800.000000,-0.716056,-0.215028,-0.596466,0.291984,-9.328213,-0.439467,-2.183432,0.073076,-0.151065,-0.242014,38.523082,-11.890076,24.053889,4635726955059085300.000000,0.594797,-0.330319,0.686891,0.255512,-9.732447,0.970259,-0.763948,0.039316,0.042693,0.015574,43.019686,9.887200,-10.404232,4635728673582874600.000000,-0.243845,-0.680857,-0.306418,0.618936,0
-9.411908,-0.683134,1.814872,-0.332450,0.013643,0.140714,42.963992,17.147443,0.929945,4635731143189069800.000000,-0.716468,-0.214319,-0.596880,0.290647,-9.281148,-0.429020,-2.052644,0.111837,-0.155186,-0.235150,38.493465,-11.792312,23.914303,4635726955059085300.000000,0.595598,-0.330619,0.686274,0.254917,-9.653286,0.792683,-0.811605,0.053720,0.055511,0.018504,43.005883,9.808836,-10.377091,4635728673582874600.000000,-0.243608,-0.681058,-0.306308,0.618862,0
-9.457716,-0.503986,1.351500,-0.278971,0.084561,0.073427,43.117428,17.014939,0.922520,4635731143189069800.000000,-0.716572,-0.213689,-0.597499,0.289580,-9.253172,-0.399362,-1.937534,0.136107,-0.156559,-0.226297,38.486381,-11.804638,23.942160,4635726955059085300.000000,0.596425,-0.330832,0.685691,0.254275,-9.649763,0.841933,-0.842311,0.061505,0.065847,0.021535,42.927523,9.685966,-10.412915,4635728735940810800.000000,-0.243344,-0.681299,-0.306179,0.618765,0
-9.674807,-0.466063,1.169769,-0.220604,-0.039348,0.005943,43.162316,17.020182,0.824860,4635731181561842700.000000,-0.716850,-0.212915,-0.597737,0.288970,-9.345589,-0.383673,-1.829429,0.142221,-0.156867,-0.226594,38.665969,-11.588466,23.984105,4635726955059085300.000000,0.597261,-0.331029,0.685112,0.253615,-9.687559,0.960052,-0.835223,0.063193,0.071910,0.026152,42.988960,9.619433,-10.412915,4635728780957057000.000000,-0.243078,-0.681563,-0.306038,0.618649,0
-9.645997,-0.432468,1.492819,-0.168765,-0.174268,-0.063944,43.079047,17.105632,0.742471,4635731357937434600.000000,-0.717334,-0.211959,-0.597571,0.288816,-9.455451,-0.345332,-1.719524,0.125752,-0.149243,-0.237125,38.786486,-11.328513,23.910821,4635726955059085300.000000,0.598063,-0.331305,0.684519,0.252965,-9.678504,0.951395,-0.830103,0.072771,0.078043,0.031941,43.105124,9.711570,-10.363303,4635728780957057000.000000,-0.242794,-0.681859,-0.305863,0.618520,0
-9.312071,-0.190524,1.735631,-0.143056,-0.230682,-0.139507,43.003631,17.191075,0.732444,4635731357937434600.000000,-0.717843,-0.210824,-0.597271,0.289002,-9.554866,-0.303420,-1.695064,0.094169,-0.135050,-0.241860,38.648688,-11.291798,23.905576,4635726955059085300.000000,0.598785,-0.331688,0.683921,0.252374,-9.639917,0.915555,-0.900969,0.084624,0.079939,0.038521,43.048838,9.778130,-10.320377,4635728780957057000.000000,-0.242493,-0.682179,-0.305644,0.618393,0
-8.997295,0.008718,1.752197,-0.137600,-0.206421,-0.203786,42.918180,17.274346,0.715008,4635731357937434600.000000,-0.718209,-0.209574,-0.597092,0.289371,-9.603746,-0.381804,-1.735165,0.068671,-0.126046,-0.238811,38.632845,-11.328523,23.914303,4635726955059085300.000000,0.599442,-0.332135,0.683321,0.251849,-9.619433,0.880121,-1.001785,0.088656,0.072842,0.048479,43.024787,9.686001,-10.428645,4635728780957057000.000000,-0.242215,-0.682498,-0.305379,0.618282,0
-8.904414,0.057542,1.797528,-0.139391,-0.157137,-0.237129,42.847984,17.365006,0.632607,4635731357937434600.000000,-0.718412,-0.208295,-0.597091,0.289792,-9.588060,-0.554467,-1.787472,0.076572,-0.119178,-0.229208,38.770657,-11.218718,23.938660,4635726955059085300.000000,0.600079,-0.332541,0.682760,0.251317,-9.669045,0.726945,-1.101416,0.088656,0.061540,0.067671,43.239785,9.534385,-10.574361,4635728780957057000.000000,-0.241996,-0.682815,-0.305042,0.618184,0
-9.023838,0.091128,1.854670,-0.156249,-0.132940,-0.230271,42.832745,17.520657,0.639995,4635731357937434600.000000,-0.718577,-0.207012,-0.597176,0.290128,-9.539282,-0.673121,-1.834591,0.122500,-0.115055,-0.208303,38.803906,-11.051286,24.027597,4635726955059085300.000000,0.600746,-0.332777,0.682285,0.250700,-9.754492,0.408015,-1.211275,0.102918,0.051031,0.092857,43.330385,9.557984,-10.393671,4635728780957057000.000000,-0.241815,-0.683150,-0.304587,0.618108,0
-9.230519,0.047968,1.774885,-0.180171,-0.164792,-0.188003,42.762535,17.590868,0.702812,4635731357937434600.000000,-0.718891,-0.205723,-0.597157,0.290305,-9.425945,-0.669758,-1.857235,0.168287,-0.114596,-0.185569,38.713214,-10.913479,24.069580,4635726955059085300.000000,0.601451,-0.332834,0.681890,0.250009,-9.740736,0.173289,-1.292792,0.136164,0.046378,0.117871,43.165026,9.619433,-10.116429,4635728656303530000.000000,-0.241613,-0.683537,-0.303973,0.618061,0
-9.374814,0.007382,1.710741,-0.196382,-0.213282,-0.125527,42.762535,17.590868,0.622578,4635731357937434600.000000,-0.719414,-0.204482,-0.596958,0.290296,-9.310829,-0.566789,-1.919982,0.202158,-0.121144,-0.163592,38.685202,-10.873257,23.944086,4635726955059085300.000000,0.602198,-0.332736,0.681543,0.249286,-9.690713,0.214191,-1.325485,0.162665,0.038490,0.143678,43.067719,9.435199,-10.197463,4635728628535455700.000000,-0.241409,-0.683965,-0.303207,0.618045,0
-9.511255,0.121586,1.857213,-0.217277,-0.222070,-0.050195,42.762535,17.590868,0.639979,4635731338804885500.000000,-0.720067,-0.203355,-0.596692,0.290015,-9.254918,-0.552812,-2.000242,0.242131,-0.141742,-0.145435,38.815868,-10.925626,23.776609,4635726955059085300.000000,0.603039,-0.332464,0.681211,0.248523,-9.715892,0.394118,-1.266849,0.172315,0.025054,0.170998,43.117309,9.259536,-10.371930,4635728673582874600.000000,-0.241263,-0.684402,-0.302322,0.618051,0
-9.664255,0.227592,1.966728,-0.257059,-0.193509,0.027584,42.762535,17.590868,0.720237,4635731250563252200.000000,-0.720775,-0.202337,-0.596493,0.289377,-9.345462,-0.547634,-2.019475,0.279834,-0.157018,-0.127279,39.011308,-10.856091,23.790219,4635726955059085300.000000,0.603956,-0.332030,0.680903,0.247719,-9.805263,0.497340,-1.206573,0.188364,0.012408,0.198149,43.153172,9.228797,-10.356244,4635728673582874600.000000,-0.241159,-0.684856,-0.301308,0.618084,0
-9.832152,0.179252,1.912212,-0.302802,-0.149553,0.101450,42.762535,17.560419,0.670214,4635731250563252200.000000,-0.721500,-0.201417,-0.596418,0.288366,-9.512974,-0.474455,-1.981147,0.296181,-0.158844,-0.110944,39.035868,-10.584100,23.996276,4635726955059085300.000000,0.604883,-0.331506,0.680629,0.246912,-9.893881,0.434782,-1.210494,0.234009,0.013056,0.229194,43.153172,9.179205,-10.315256,4635728673582874600.000000,-0.241005,-0.685395,-0.300089,0.618140,0
-9.923276,0.003201,1.911703,-0.344424,-0.127825,0.157643,42.747325,17.419964,0.439467,4635731250563252200.000000,-0.722272,-0.200538,-0.596408,0.287063,-9.582811,-0.364520,-1.845313,0.288121,-0.163731,-0.102846,38.945167,-10.318806,23.904090,4635726955059085300.000000,0.605802,-0.330974,0.680344,0.246154,-9.917535,0.343011,-1.156988,0.291171,0.020189,0.264612,43.153172,9.051258,-10.371925,4635728673582874600.000000,-0.240769,-0.686052,-0.298627,0.618211,0
-9.973449,-0.227089,2.006362,-0.368087,-0.156972,0.196407,42.692298,17.419964,0.456856,4635731250563252200.000000,-0.723180,-0.199649,-0.596305,0.285607,-9.586288,-0.374792,-1.573218,0.257452,-0.165407,-0.106956,38.962314,-10.311618,23.670236,4635726955059085300.000000,0.606688,-0.330528,0.680017,0.245475,-9.884079,0.324476,-1.040044,0.361138,0.026150,0.305885,43.110673,8.942151,-10.405832,4635728673582874600.000000,-0.240431,-0.686845,-0.296873,0.618307,0
-9.956071,-0.308703,1.985156,-0.382070,-0.253719,0.228230,42.821186,17.419964,0.502370,4635731250563252200.000000,-0.724374,-0.198681,-0.595898,0.284100,-9.598496,-0.502201,-1.343056,0.235148,-0.169524,-0.117185,39.206463,-10.425122,23.664739,4635726955059085300.000000,0.607564,-0.330163,0.679641,0.244838,-9.714838,0.414596,-0.988800,0.468967,0.046813,0.353226,42.987847,8.812242,-10.450289,4635728673582874600.000000,-0.239881,-0.687854,-0.294725,0.618426,0
-9.819335,-0.264220,1.770604,-0.420428,-0.372695,0.240641,43.105161,17.389566,0.307066,4635731250563252200.000000,-0.725907,-0.197487,-0.595164,0.282557,-9.589847,-0.498891,-1.086709,0.225557,-0.166505,-0.121769,39.308091,-10.331273,23.773153,4635726924485658600.000000,0.608422,-0.329838,0.679257,0.244212,-9.437255,0.568157,-0.939224,0.591730,0.062295,0.401118,43.020380,8.655515,-10.436584,4635728673582874600.000000,-0.239081,-0.689080,-0.292137,0.618600,0
-9.495393,-0.252838,1.701485,-0.477544,-0.430201,0.233707,43.108893,17.249062,0.183422,4635731250563252200.000000,-0.727615,-0.196034,-0.594323,0.280939,-9.494054,-0.333331,-0.941580,0.194752,-0.140714,-0.122681,39.100399,-10.046863,23.666765,4635726847684902900.000000,0.609165,-0.329619,0.678904,0.243635,-9.293004,0.556888,-0.910429,0.715694,0.059132,0.447495,43.283335,8.409891,-10.344055,4635728673582874600.000000,-0.238046,-0.690470,-0.289089,0.618880,0
-9.171798,-0.275600,1.948626,-0.534489,-0.419683,0.213911,42.832779,17.236028,0.371393,4635731250563252200.000000,-0.729315,-0.194370,-0.593593,0.279228,-9.380469,-0.228260,-1.082846,0.155209,-0.125427,-0.126191,39.063624,-9.969835,23.569085,4635726847684902900.000000,0.609814,-0.329526,0.678544,0.243140,-9.355524,0.436770,-0.908474,0.808104,0.058022,0.489088,43.471305,8.050010,-10.416353,4635728673582874600.000000,-0.236849,-0.691991,-0.285676,0.619225,0
-9.034297,-0.193147,2.229079,-0.604933,-0.401007,0.194901,42.805956,17.145421,0.419108,4635731250563252200.000000,-0.730996,-0.192466,-0.593010,0.277382,-9.469340,-0.444590,-1.234593,0.133369,-0.127724,-0.125898,39.173432,-10.083315,23.527081,4635726847684902900.000000,0.610438,-0.329485,0.678157,0.242710,-9.539361,0.496847,-0.896267,0.799186,0.045566,0.533734,43.415136,7.751449,-10.604577,4635728735863508000.000000,-0.235804,-0.693515,-0.282140,0.619541,0
-9.111882,-0.209161,2.325919,-0.683523,-0.421708,0.195496,43.021878,16.989718,0.251197,4635731250563252200.000000,-0.732784,-0.190298,-0.592448,0.275353,-9.607156,-0.542378,-1.347996,0.126358,-0.126340,-0.116279,39.340842,-10.058971,23.572566,4635726847684902900.000000,0.611039,-0.329436,0.677778,0.242323,-9.787403,0.587908,-0.884060,0.722710,0.027195,0.594637,43.348488,7.604481,-10.624837,4635728780957057000.000000,-0.235157,-0.694975,-0.278606,0.619750,0
-9.181327,-0.338278,2.366877,-0.757740,-0.498038,0.216310,43.092133,16.904273,0.188260,4635731250563252200.000000,-0.734834,-0.187865,-0.591713,0.273134,-9.671741,-0.524918,-1.318611,0.110646,-0.133059,-0.111094,39.478671,-9.997864,23.455815,4635726908864864300.000000,0.611632,-0.329405,0.677373,0.242002,-10.055947,0.385786,-0.900171,0.652750,0.021982,0.671495,43.447599,7.434085,-10.583818,4635728780957057000.000000,-0.234915,-0.696432,-0.275022,0.619806,0
-9.081237,-0.389277,2.391031,-0.845399,-0.570791,0.255308,43.120338,16.790617,0.270732,4635731250563252200.000000,-0.737162,-0.185174,-0.590814,0.270631,-9.607446,-0.521441,-1.138766,0.084571,-0.130631,-0.100574,39.539780,-9.973522,23.316141,4635727062433267700.000000,0.612171,-0.329413,0.676962,0.241778,-10.296167,-0.249348,-0.880166,0.603299,0.027386,0.758687,43.576014,7.018150,-10.576741,4635728780957057000.000000,-0.235031,-0.697945,-0.271312,0.619696,0
-8.815658,-0.385233,2.287932,-0.937566,-0.631558,0.319823,43.250832,16.574676,0.263416,4635731250563252200.000000,-0.739769,-0.182288,-0.589768,0.267744,-9.458878,-0.543998,-1.098827,0.047635,-0.122222,-0.087284,39.470253,-9.936746,23.340475,4635727062433267700.000000,0.612622,-0.329486,0.676553,0.241680,-10.338960,-0.909558,-0.889904,0.623119,0.039646,0.845140,43.574589,6.603310,-10.564534,4635728780957057000.000000,-0.235295,-0.699594,-0.267307,0.619477,0
-8.611692,-0.108267,2.383411,-1.029816,-0.655484,0.378325,43.207474,16.519585,0.165768,4635731250563252200.000000,-0.742549,-0.179229,-0.588692,0.264460,-9.549666,-0.643435,-0.920971,0.018342,-0.123608,-0.085303,39.271297,-10.001340,23.373781,4635727031856172000.000000,0.613034,-0.329626,0.676114,0.241672,-10.147351,-0.830971,-1.000481,0.691373,0.073177,0.922263,43.501344,6.420384,-10.559403,4635728780957057000.000000,-0.235519,-0.701468,-0.262930,0.619146,0
-8.345894,-0.007295,2.427685,-1.137242,-0.673401,0.446940,43.065190,16.559524,0.037780,4635731250563252200.000000,-0.745506,-0.175982,-0.587608,0.260705,-9.471499,-0.654111,-0.795177,-0.019635,-0.112022,-0.077989,39.255366,-9.982264,23.279601,4635726955059085300.000000,0.613355,-0.329855,0.675676,0.241773,-9.977882,-0.122163,-1.246006,0.735239,0.125122,0.986219,43.562545,6.207586,-10.616008,4635728780957057000.000000,-0.235718,-0.703571,-0.258300,0.618632,0
-8.038174,-0.095491,2.292022,-1.237278,-0.687207,0.518683,43.392652,16.373426,-0.215633,4635731250563252200.000000,-0.748621,-0.172579,-0.586515,0.256481,-9.232363,-0.636205,-0.854427,-0.064665,-0.089452,-0.064557,39.417525,-9.888088,23.246280,4635726955059085300.000000,0.613536,-0.330183,0.675268,0.242004,-9.823639,0.621023,-1.598738,0.715855,0.187469,1.019134,43.777820,5.711427,-10.706583,4635728780957057000.000000,-0.235985,-0.705834,-0.253675,0.617867,0
-8.018895,-0.098457,2.200071,-1.330612,-0.638623,0.581292,43.655843,16.091071,-0.329373,4635731250563252200.000000,-0.751719,-0.169084,-0.585604,0.251789,-9.221665,-0.934440,-0.932930,-0.082419,-0.062733,-0.048863,39.539780,-9.830434,23.340465,4635726955059085300.000000,0.613602,-0.330539,0.674932,0.242289,-9.699062,1.271208,-1.786163,0.593400,0.247954,1.017375,43.850244,5.218127,-10.685921,4635728780957057000.000000,-0.236537,-0.708111,-0.249424,0.616779,0
-8.090748,-0.197674,2.056364,-1.400340,-0.594992,0.671465,43.637731,15.714283,-0.139207,4635731250563252200.000000,-0.754820,-0.165629,-0.584810,0.246600,-9.361200,-1.058851,-0.938373,-0.063349,-0.037590,-0.019103,39.515458,-9.814846,23.373797,4635726955059085300.000000,0.613593,-0.330789,0.674720,0.242561,-9.703635,2.054552,-1.679360,0.363582,0.301640,0.989252,43.732613,4.954826,-10.524594,4635728780957057000.000000,-0.237636,-0.710255,-0.245894,0.615307,0
-8.210668,-0.402263,1.842525,-1.466192,-0.636241,0.782115,43.522353,15.444902,-0.061830,4635731250563252200.000000,-0.758140,-0.162187,-0.583847,0.240918,-9.493684,-0.842412,-0.783263,-0.045331,0.000747,0.001216,39.454327,-9.729402,23.220571,4635726924507760600.000000,0.613481,-0.330973,0.674652,0.242782,-9.771746,2.712242,-1.636482,0.091484,0.356456,0.950799,43.680030,4.656586,-10.380736,4635728780957057000.000000,-0.239380,-0.712218,-0.243226,0.613420,0
-8.335696,-0.540874,1.812610,-1.528953,-0.684216,0.882880,43.620800,15.115310,-0.137239,4635731250563252200.000000,-0.761676,-0.158735,-0.582692,0.234782,-9.635013,-0.826428,-0.742460,-0.038149,0.001868,-0.001502,39.499480,-9.668263,23.014429,4635726847684902900.000000,0.613378,-0.331148,0.674590,0.242974,-9.986474,2.903421,-1.516781,-0.191247,0.389546,0.918535,43.746890,4.124464,-10.219409,4635728780957057000.000000,-0.241843,-0.713938,-0.241404,0.611170,0
-8.537492,-0.716876,1.933698,-1.585559,-0.656000,0.971407,43.766491,14.800898,-0.222682,4635731250563252200.000000,-0.765218,-0.155336,-0.581584,0.228194,-9.718777,-0.887875,-1.110458,-0.037993,-0.026980,-0.022100,39.616496,-9.737723,23.078730,4635726847684902900.000000,0.613378,-0.331351,0.674426,0.243153,-10.508973,3.289264,-1.177503,-0.506071,0.406804,0.893860,43.703076,3.723145,-9.962383,4635728780957057000.000000,-0.245158,-0.715346,-0.240469,0.608566,0
-8.765102,-0.977562,1.802179,-1.639898,-0.630223,1.062252,43.836784,14.584898,-0.292978,4635731250563252200.000000,-0.768764,-0.151999,-0.580509,0.221150,-9.760659,-0.666589,-1.414044,-0.043471,-0.045617,-0.042550,39.600929,-9.912412,23.218481,4635726847684902900.000000,0.613443,-0.331607,0.674180,0.243320,-11.060110,4.078935,-0.878832,-0.839316,0.441671,0.870192,43.599031,3.668035,-9.782585,4635728780957057000.000000,-0.249366,-0.716461,-0.240480,0.605533,0
-8.989936,-1.186886,1.615707,-1.682364,-0.649518,1.130926,43.867090,14.425851,-0.271331,4635731250563252200.000000,-0.772388,-0.148664,-0.579322,0.213779,-9.837152,-0.356140,-1.649346,-0.059787,-0.051114,-0.063746,39.515476,-9.888108,23.190705,4635726847684902900.000000,0.613523,-0.331958,0.673875,0.243487,-11.043043,4.563732,-0.852001,-1.136065,0.482481,0.833248,43.660167,3.698843,-9.741508,4635728780957057000.000000,-0.254319,-0.717309,-0.241386,0.602099,0
-9.336143,-1.079972,1.659577,-1.718674,-0.665377,1.144444,44.050936,13.912473,-0.166579,4635731250563252200.000000,-0.776022,-0.145220,-0.578061,0.206268,-10.065491,0.023595,-1.961452,-0.074016,-0.061608,-0.092280,39.454327,-9.806133,23.093053,4635726847684902900.000000,0.613642,-0.332415,0.673488,0.243635,-10.302105,4.523741,-0.917490,-1.341922,0.528074,0.791036,43.882480,3.380645,-9.522305,4635728780957057000.000000,-0.259725,-0.717980,-0.242972,0.598341,0
-9.814884,-1.069295,1.785208,-1.751963,-0.657836,1.171714,44.297241,13.336575,-0.159461,4635731250563252200.000000,-0.779616,-0.141730,-0.576787,0.198567,-10.269895,0.698002,-2.225088,-0.074894,-0.084676,-0.115798,39.499429,-9.729430,22.995407,4635726847684902900.000000,0.613847,-0.332917,0.673008,0.243758,-9.939426,4.339368,-1.359074,-1.470137,0.585980,0.764508,44.151036,2.788905,-9.080251,4635728780957057000.000000,-0.265376,-0.718595,-0.245006,0.594280,0
-9.989977,-1.097040,1.890098,-1.766650,-0.715404,1.194435,44.536284,12.796054,-0.252145,4635731250563252200.000000,-0.783308,-0.138188,-0.575273,0.190772,-10.174520,1.266343,-2.267228,-0.100196,-0.087149,-0.126188,39.637315,-9.664793,22.925503,4635726847684902900.000000,0.614035,-0.333510,0.672481,0.243928,-10.473575,3.332108,-2.393687,-1.602494,0.610811,0.738755,44.363043,2.392578,-8.705071,4635728718759147500.000000,-0.271317,-0.719058,-0.247456,0.590007,0
-10.020875,-0.775437,1.983859,-1.755893,-0.691856,1.184510,44.697140,12.466454,-0.417970,4635731250563252200.000000,-0.786861,-0.134665,-0.573781,0.183005,-9.780550,0.885445,-2.183452,-0.148071,-0.070991,-0.136229,39.698475,-9.659526,22.981023,4635726847684902900.000000,0.614121,-0.334269,0.671933,0.244184,-11.216841,0.655139,-2.783231,-1.650844,0.577742,0.729603,44.434948,2.245499,-8.638368,4635728673582874600.000000,-0.277396,-0.719333,-0.249997,0.585759,0
-10.071108,-0.567808,1.549264,-1.724350,-0.608712,1.176210,44.837791,12.091490,-0.464530,4635731250563252200.000000,-0.790124,-0.131279,-0.572493,0.175278,-9.514441,0.134941,-2.141565,-0.206702,-0.057960,-0.162919,39.719289,-9.689077,23.228360,4635726847684902900.000000,0.614115,-0.335266,0.671320,0.244517,-11.746818,-1.493395,-2.084693,-1.505987,0.592104,0.764917,44.540994,2.025724,-8.566346,4635728673582874600.000000,-0.283095,-0.719805,-0.252078,0.581545,0
-10.116448,-0.182947,0.967956,-1.694896,-0.603830,1.157611,44.868019,11.507764,-0.366969,4635731250563252200.000000,-0.793281,-0.127940,-0.571162,0.167665,-9.725562,-0.153561,-2.092871,-0.245008,-0.077321,-0.190714,39.771721,-9.720696,23.526999,4635726878193909800.000000,0.619249,-0.321959,0.677639,0.231685,-11.481234,-1.662662,-1.640930,-1.311765,0.711699,0.775302,44.865503,1.581075,-8.095304,4635728673582874600.000000,-0.288098,-0.720770,-0.253786,0.577134,0
-10.372784,0.197543,1.001139,-1.685720,-0.619821,1.132166,45.036753,10.975065,-0.459631,4635731250563252200.000000,-0.796390,-0.124550,-0.569738,0.160152,-9.804492,-0.109867,-1.972611,-0.279950,-0.096291,-0.204162,39.750915,-9.664796,23.433937,4635726955059085300.000000,0.619299,-0.323236,0.676819,0.232169,-10.832394,-1.027265,-1.890275,-1.247373,0.866512,0.723183,45.059456,1.213642,-7.537048,4635728673582874600.000000,-0.292605,-0.722093,-0.255670,0.572361,0
-10.644280,0.352518,1.275875,-1.664283,-0.565413,1.108352,45.169552,10.622428,-0.623326,4635731250563252200.000000,-0.799281,-0.121203,-0.568448,0.152728,-9.782961,-0.217334,-1.808799,-0.312006,-0.088234,-0.210557,39.719276,-9.610989,22.939962,4635726955059085300.000000,0.619287,-0.324621,0.675979,0.232716,-10.511206,0.082348,-2.202489,-1.320521,1.013852,0.655669,44.843545,1.153284,-7.216487,4635728673582874600.000000,-0.297000,-0.723569,-0.258097,0.567120,0
-11.007661,0.236258,0.845650,-1.629049,-0.556546,1.082391,45.194712,10.230394,-0.664185,4635731250563252200.000000,-0.802058,-0.117909,-0.567135,0.145458,-9.955963,-0.502155,-1.677530,-0.350831,-0.049450,-0.215332,39.816760,-9.473108,22.813335,4635726955059085300.000000,0.619117,-0.326156,0.675192,0.233307,-10.555563,1.496477,-2.196035,-1.471246,1.148775,0.587082,44.544797,1.226528,-6.846389,4635728735755013100.000000,-0.301526,-0.725058,-0.261241,0.561361,0
-11.456356,0.267137,0.340419,-1.625596,-0.674910,1.025911,45.293086,9.890811,-0.588843,4635731250563252200.000000,-0.805020,-0.114415,-0.565410,0.138432,-9.945732,-0.533661,-1.700456,-0.426323,0.035092,-0.198271,39.909628,-9.481200,22.967729,4635726924585073700.000000,0.618588,-0.327918,0.674570,0.234039,-10.477163,2.624598,-1.975670,-1.673171,1.287456,0.508888,44.602640,1.214957,-6.315721,4635728780957057000.000000,-0.306309,-0.726479,-0.265250,0.555019,0
-11.744213,0.289356,0.658590,-1.626974,-0.824251,0.950448,45.423748,9.561204,-0.706646,4635731250563252200.000000,-0.808232,-0.110645,-0.563179,0.131716,-9.945073,-0.563024,-1.654928,-0.498623,0.095513,-0.178381,39.815600,-9.704555,22.744704,4635726908625613800.000000,0.617767,-0.329868,0.674057,0.234941,-10.116744,3.057630,-1.592123,-1.916977,1.405341,0.418606,44.864122,1.134650,-5.803678,4635728780957057000.000000,-0.311463,-0.727695,-0.270221,0.548117,0
-11.558139,0.178115,1.072037,-1.610260,-0.898566,0.877118,45.408645,9.244524,-0.977388,4635731250563252200.000000,-0.811511,-0.106711,-0.560679,0.125311,-10.109546,-0.721544,-1.824810,-0.526075,0.096913,-0.177168,39.707218,-9.802715,22.645700,4635727062433267700.000000,0.616901,-0.331885,0.673519,0.235921,-9.830823,2.452452,-1.024165,-2.132015,1.447509,0.301448,44.837801,1.190536,-5.320522,4635728780957057000.000000,-0.316920,-0.728517,-0.276064,0.540938,0
-11.111526,0.313842,0.813519,-1.606439,-0.900948,0.808391,45.368481,9.005449,-1.223626,4635731250563252200.000000,-0.814699,-0.102622,-0.558158,0.119138,-9.982866,-0.809658,-2.230323,-0.549028,0.078366,-0.168956,39.722722,-9.741508,22.925503,4635727062433267700.000000,0.616043,-0.333917,0.672916,0.237010,-9.647725,1.007625,-0.403556,-2.228096,1.449645,0.167152,44.754265,1.207900,-4.726269,4635728780957057000.000000,-0.322328,-0.728974,-0.282501,0.533755,0
-10.593848,0.535693,0.483998,-1.650541,-0.876005,0.762280,45.552300,8.814444,-1.309069,4635731250563252200.000000,-0.817768,-0.098282,-0.555723,0.113000,-9.746611,-0.600164,-2.223929,-0.517826,0.022461,-0.155647,39.763155,-9.765742,22.814716,4635727062433267700.000000,0.615369,-0.335774,0.672215,0.238123,-9.217332,-0.674988,-0.054638,-2.189493,1.468473,0.032741,44.962380,1.129518,-4.054896,4635728780957057000.000000,-0.327259,-0.729278,-0.289253,0.526676,0
-10.183835,0.624740,0.727436,-1.669766,-0.826052,0.764669,45.768432,8.459716,-1.426840,4635731250563252200.000000,-0.820671,-0.093900,-0.553425,0.106780,-9.835353,-0.512711,-2.033706,-0.393864,-0.051944,-0.152155,39.755698,-9.778482,22.534866,4635727062433267700.000000,0.615071,-0.337229,0.671448,0.239001,-8.875459,-1.739731,0.259468,-2.116015,1.467304,-0.108186,45.106354,1.232894,-3.553085,4635728780957057000.000000,-0.331620,-0.729424,-0.296234,0.519822,0
-9.852114,0.822916,1.138169,-1.666246,-0.743057,0.794949,45.823725,8.074853,-1.680301,4635731250563252200.000000,-0.823338,-0.089631,-0.551358,0.100425,-9.959419,-0.481556,-1.793765,-0.245325,-0.089979,-0.140422,39.914382,-9.631825,22.590253,4635727062433267700.000000,0.615075,-0.338231,0.670746,0.239546,-9.209281,-1.811310,1.216410,-2.183069,1.379083,-0.243998,45.063976,1.556627,-3.118196,4635728656705003500.000000,-0.335962,-0.729034,-0.303616,0.513281,0
-9.542606,0.911963,0.992401,-1.697851,-0.684560,0.858788,45.738273,7.843623,-1.846187,4635731250563252200.000000,-0.825851,-0.085419,-0.549441,0.093748,-9.909499,-0.271301,-1.379986,-0.158389,-0.110752,-0.142111,40.073078,-9.594836,22.785571,4635727062433267700.000000,0.615261,-0.338994,0.670073,0.239872,-9.638627,-2.760171,2.580440,-2.259858,1.259945,-0.355491,45.096682,1.770687,-2.423134,4635728566208692200.000000,-0.340413,-0.728052,-0.311302,0.507099,0
-9.293401,0.939249,0.731716,-1.732850,-0.653083,0.914836,45.682979,7.657623,-1.931645,4635731231611077600.000000,-0.828265,-0.081223,-0.547585,0.086780,-9.679019,0.237561,-1.147868,-0.164303,-0.124638,-0.197604,40.121007,-9.680285,22.870123,4635727062433267700.000000,0.615532,-0.339912,0.669280,0.240092,-9.423476,-4.845683,2.893158,-2.043369,1.237365,-0.450533,45.150046,1.806696,-1.730885,4635728566208692200.000000,-0.343999,-0.727126,-0.318754,0.501346,0
-8.716812,0.803561,0.569415,-1.742778,-0.762910,0.902520,45.768423,7.373298,-2.034316,4635731143189069800.000000,-0.830866,-0.076919,-0.545314,0.079862,-9.579351,0.822023,-1.046183,-0.187001,-0.138825,-0.267953,39.861405,-9.717286,22.674821,4635727062433267700.000000,0.615880,-0.341070,0.668326,0.240215,-8.987174,-5.885275,2.195938,-1.726374,1.252150,-0.564055,45.070358,1.891523,-1.319648,4635728566208692200.000000,-0.346334,-0.726468,-0.325875,0.496088,0
-8.662210,0.387070,0.944977,-1.733479,-0.713977,0.936574,45.838799,6.958246,-2.215274,4635731143189069800.000000,-0.833300,-0.072736,-0.543155,0.072824,-9.577525,1.092326,-1.012161,-0.234806,-0.144696,-0.340999,39.694437,-9.680278,22.482963,4635727062433267700.000000,0.616247,-0.342548,0.667204,0.240291,-9.205715,-5.646204,2.092640,-1.586140,1.193282,-0.693294,44.916807,2.087483,-0.913591,4635728566208692200.000000,-0.348029,-0.725656,-0.332984,0.491345,0
-8.932225,0.083299,1.110197,-1.721415,-0.520945,0.981879,45.838799,6.573348,-2.353876,4635731143189069800.000000,-0.835244,-0.068752,-0.541607,0.065593,-9.650383,0.870379,-0.831543,-0.319476,-0.136084,-0.432523,39.938584,-9.717286,22.296392,4635727062433267700.000000,0.616559,-0.344503,0.665884,0.240354,-9.621381,-4.791002,2.233306,-1.581985,1.106933,-0.823158,44.948957,2.418381,-0.382884,4635728566208692200.000000,-0.349541,-0.724437,-0.340330,0.487019,0
-9.017634,0.071092,0.686509,-1.714942,-0.519032,0.983706,45.853863,6.299096,-2.356734,4635731143189069800.000000,-0.837121,-0.064791,-0.540022,0.058364,-9.724601,0.849034,-1.138810,-0.384533,-0.158891,-0.521884,40.158503,-9.583401,22.101080,4635727062433267700.000000,0.616927,-0.346849,0.664308,0.240399,-9.679828,-4.510316,1.949969,-1.647478,1.052294,-0.971397,45.112782,2.814130,0.058469,4635728566208692200.000000,-0.351001,-0.722742,-0.348150,0.482943,0
-9.276136,0.061037,0.648356,-1.710051,-0.668055,0.959704,45.952224,5.838867,-2.462253,4635731181041883100.000000,-0.839264,-0.060753,-0.537882,0.051265,-9.458093,0.737532,-1.741589,-0.377875,-0.199388,-0.575785,40.248013,-9.351278,21.985330,4635727062433267700.000000,0.617465,-0.349283,0.662551,0.240343,-9.573179,-5.006292,1.466197,-1.732982,1.021881,-1.135153,45.186666,3.162346,0.483135,4635728566208692200.000000,-0.352400,-0.720562,-0.356558,0.479032,0
-9.465110,0.091137,1.000171,-1.666766,-0.854407,0.939284,46.082947,5.242805,-2.722872,4635731357937434600.000000,-0.841746,-0.056778,-0.535043,0.044377,-9.152501,0.111088,-1.906186,-0.351652,-0.221356,-0.620772,40.186771,-9.228797,22.046570,4635727062433267700.000000,0.618141,-0.351749,0.660691,0.240129,-9.500574,-5.478539,0.941278,-1.832880,0.996077,-1.297005,45.099938,3.479738,0.959224,4635728566208692200.000000,-0.353780,-0.717871,-0.365577,0.475242,0
-9.260552,0.266307,1.262447,-1.627046,-0.969938,0.926648,46.067911,5.026622,-2.971375,4635731357937434600.000000,-0.844408,-0.052889,-0.531753,0.037646,-9.111187,-0.183731,-1.841899,-0.336697,-0.248485,-0.678414,40.231729,-9.204589,21.994695,4635727062433267700.000000,0.618966,-0.354303,0.658684,0.239763,-9.577011,-5.627613,0.642510,-1.961385,0.973703,-1.459858,45.082572,3.931364,1.435279,4635728566208692200.000000,-0.355216,-0.714617,-0.375264,0.471509,0
-8.970385,0.463789,1.180506,-1.622004,-0.947580,0.928160,45.997494,4.926122,-3.066893,4635731357937434600.000000,-0.846954,-0.049021,-0.528497,0.030913,-9.400894,0.155577,-1.773317,-0.367973,-0.282077,-0.747072,40.414612,-9.070742,21.808142,4635727062433267700.000000,0.619897,-0.357089,0.656449,0.239352,-9.877008,-5.352061,0.755526,-2.102710,0.945822,-1.619230,45.111496,4.438277,1.847755,4635728566208692200.000000,-0.356759,-0.710757,-0.385614,0.467813,0
-8.791478,0.671290,1.289456,-1.638480,-0.779871,0.917619,46.027557,4.727324,-3.184544,4635731357937434600.000000,-0.849071,-0.045091,-0.525797,0.024144,-9.554940,0.417972,-1.895171,-0.388220,-0.308780,-0.801980,40.634555,-8.769456,21.609374,4635727062433267700.000000,0.620918,-0.360045,0.654034,0.238890,-10.202133,-4.777056,1.112093,-2.234095,0.907932,-1.759274,45.014504,4.999150,2.221043,4635728628355059700.000000,-0.358425,-0.706300,-0.396520,0.464160,0
-8.857337,0.861626,1.604939,-1.626813,-0.585088,0.888277,46.181276,4.380587,-3.487419,4635731357937434600.000000,-0.850696,-0.041156,-0.523753,0.017465,-9.556557,0.012880,-1.905476,-0.392819,-0.338202,-0.832233,40.720667,-8.423557,21.488261,4635727062433267700.000000,0.622032,-0.363060,0.651481,0.238403,-10.428289,-4.214884,1.408940,-2.327253,0.868582,-1.873676,44.763980,5.713525,2.712479,4635728673582874600.000000,-0.360145,-0.701328,-0.407811,0.460570,0
-9.191908,0.952177,1.443824,-1.594064,-0.542702,0.867207,46.228764,3.955465,-3.884772,4635731357937434600.000000,-0.852167,-0.037292,-0.521825,0.010925,-9.537886,-0.191639,-1.637184,-0.433409,-0.373310,-0.895838,40.674844,-8.276844,21.530627,4635727062433267700.000000,0.623232,-0.366311,0.648689,0.237911,-10.736621,-3.735597,1.515639,-2.361729,0.830130,-1.963065,44.488988,6.452375,3.229687,4635728673582874600.000000,-0.361744,-0.696008,-0.419220,0.457131,0
-9.529688,0.917820,0.752799,-1.588187,-0.719047,0.880815,46.168400,3.585476,-3.970230,4635731357937434600.000000,-0.853965,-0.033469,-0.519234,0.004375,-9.399924,-0.302897,-1.788744,-0.455856,-0.411704,-0.962708,40.829410,-8.191392,21.350029,4635727062433267700.000000,0.624554,-0.369755,0.645658,0.237358,-11.141386,-3.215204,1.398774,-2.340155,0.793531,-2.028509,44.336671,7.068573,3.649264,4635728549315909600.000000,-0.363157,-0.690416,-0.430649,0.453855,0
-9.434452,0.750421,0.412098,-1.624019,-0.940671,0.923385,46.181276,3.439672,-4.090012,4635731357937434600.000000,-0.856188,-0.029606,-0.515810,-0.002374,-9.380128,-0.458585,-1.883850,-0.427520,-0.469504,-1.018269,41.110624,-8.012647,20.959406,4635727062433267700.000000,0.626116,-0.373209,0.642403,0.236669,-11.464589,-2.604261,1.143740,-2.268385,0.755813,-2.059946,44.251224,7.709689,4.027667,4635728458834509800.000000,-0.364307,-0.684686,-0.441901,0.450787,0
-9.009339,0.713798,0.566365,-1.628433,-1.071213,0.916424,46.254519,3.309151,-4.405120,4635731357937434600.000000,-0.858625,-0.025711,-0.511879,-0.009091,-9.447159,-0.486451,-1.897869,-0.388748,-0.534210,-1.069071,41.265848,-7.570014,20.624078,4635727062433267700.000000,0.627946,-0.376623,0.638921,0.235837,-11.622056,-1.964364,0.806484,-2.161866,0.723709,-2.063326,44.208151,8.460057,4.455515,4635728458834509800.000000,-0.365146,-0.678939,-0.452840,0.447935,0
-8.639363,0.672886,0.839352,-1.619675,-0.955647,0.891670,46.302014,2.967358,-4.861879,4635731357937434600.000000,-0.860747,-0.021790,-0.508323,-0.015712,-9.423373,-0.464376,-2.204485,-0.362728,-0.596900,-1.127747,41.436487,-7.109151,20.480570,4635727062433267700.000000,0.630023,-0.380052,0.635190,0.234874,-11.530945,-1.032953,0.293867,-2.044202,0.699477,-2.049166,44.111195,9.248393,4.919396,4635728458834509800.000000,-0.365715,-0.673196,-0.463485,0.445242,0
-8.519278,0.598999,0.890670,-1.637715,-0.669310,0.870165,46.211634,2.655620,-5.230179,4635731357937434600.000000,-0.862204,-0.017739,-0.505758,-0.022319,-9.607226,-0.341807,-2.122745,-0.352556,-0.669925,-1.195867,41.647698,-6.751968,20.416593,4635727062433267700.000000,0.632355,-0.383551,0.631147,0.233812,-11.275919,0.093278,-0.316461,-1.933678,0.684462,-2.003089,43.945449,9.851155,5.227888,4635728458834509800.000000,-0.366035,-0.667582,-0.473706,0.442668,0
-8.595330,0.481863,0.594867,-1.647445,-0.541695,0.865590,46.070740,2.471836,-5.572183,4635731357937434600.000000,-0.863336,-0.013631,-0.503614,-0.028939,-9.624481,-0.579926,-1.888389,-0.330427,-0.750263,-1.251364,41.758077,-6.352332,20.166065,4635727062433267700.000000,0.634966,-0.387045,0.626802,0.232666,-11.065773,1.168790,-1.046838,-1.849394,0.670525,-1.927264,43.873409,10.364440,5.522052,4635728458834509800.000000,-0.366238,-0.662128,-0.483475,0.440123,0
-8.769667,0.425955,0.286548,-1.667925,-0.602859,0.851069,46.100745,2.197708,-5.710921,4635731357937434600.000000,-0.864541,-0.009427,-0.501214,-0.035544,-9.713118,-1.125462,-1.334561,-0.314802,-0.812213,-1.320605,41.773473,-6.019299,19.803052,4635727062433267700.000000,0.637804,-0.390602,0.622171,0.231387,-10.878832,2.232749,-1.878856,-1.777493,0.657759,-1.824963,43.732188,10.963201,6.008312,4635728458834509800.000000,-0.366411,-0.656882,-0.492749,0.437546,0
-9.049129,0.322329,0.282071,-1.690225,-0.678445,0.842280,46.226642,1.797665,-5.681571,4635731357937434600.000000,-0.865847,-0.005136,-0.498503,-0.042159,-9.965000,-0.942082,-0.683307,-0.322792,-0.879302,-1.398724,41.855477,-5.701631,19.506607,4635727062433267700.000000,0.640849,-0.394300,0.617197,0.230018,-10.558358,3.363408,-2.657567,-1.730978,0.648764,-1.720731,43.403333,11.541460,6.589080,4635728458834509800.000000,-0.366622,-0.651829,-0.501584,0.434880,0
-9.158547,0.413554,0.417838,-1.717676,-0.686986,0.825078,46.171186,1.510931,-5.623121,4635731357937434600.000000,-0.867112,-0.000711,-0.495720,-0.048766,-10.301458,-0.951105,-0.459092,-0.342899,-0.945519,-1.471744,41.997704,-5.376315,19.177312,4635727062433267700.000000,0.644069,-0.398154,0.611874,0.228602,-10.430858,4.182280,-3.312318,-1.676478,0.680371,-1.507237,43.048014,12.036201,7.054993,4635728458834509800.000000,-0.366970,-0.647292,-0.509739,0.431869,0
-9.038606,0.485311,0.484010,-1.743780,-0.643075,0.793179,46.269501,1.425473,-5.859820,4635731357937434600.000000,-0.868231,0.003881,-0.493053,-0.055308,-10.283671,-1.065267,-0.877570,-0.325162,-0.975890,-1.512612,42.335771,-4.848247,18.841878,4635727062433267700.000000,0.647398,-0.402013,0.606384,0.227069,-10.588817,6.063962,-5.802448,-1.503491,0.791290,-1.171710,42.916083,12.457724,7.489899,4635728458834509800.000000,-0.367195,-0.643871,-0.516813,0.428373,0
-8.945885,0.600948,0.401770,-1.748483,-0.590854,0.739851,46.357506,1.295053,-6.275248,4635731357937434600.000000,-0.869193,0.008611,-0.490537,-0.061663,-10.441298,-0.649655,-1.249659,-0.273518,-1.003826,-1.520137,42.681584,-4.277649,18.618953,4635727062433267700.000000,0.650854,-0.405701,0.600818,0.225418,-10.759124,12.331575,-7.031961,-1.714102,0.767598,-0.870780,42.885936,12.664807,8.022425,4635728458834509800.000000,-0.368548,-0.640681,-0.523384,0.423992,0
-8.950812,0.622147,0.015630,-1.763793,-0.558379,0.679267,46.113358,0.970379,-6.348493,4635731357937434600.000000,-0.870045,0.013528,-0.488097,-0.067824,-11.019980,-0.694654,-1.409162,-0.184457,-1.030968,-1.514217,42.868676,-3.753049,18.267376,4635727032100995100.000000,0.654484,-0.409083,0.595237,0.223593,-11.048678,16.176541,-4.924551,-2.262870,0.648160,-0.700899,42.683739,12.554537,8.497330,4635728520916450300.000000,-0.371892,-0.636753,-0.530238,0.418437,0
-9.027695,0.292128,-0.440108,-1.793026,-0.558754,0.630695,45.937742,0.796906,-6.479556,4635731357937434600.000000,-0.870850,0.018647,-0.485610,-0.073864,-12.014366,-1.542826,-1.260602,-0.048826,-1.060436,-1.501399,42.990200,-3.236063,17.770321,4635726955059085300.000000,0.658369,-0.412012,0.589689,0.221503,-9.312913,14.562496,-4.137601,-2.565431,0.675878,-0.558882,42.470311,12.451551,8.998988,4635728566208692200.000000,-0.376180,-0.632646,-0.537221,0.411874,0
-9.064314,-0.222271,-0.412752,-1.807549,-0.465559,0.581960,46.073515,0.884957,-6.826713,4635731357937434600.000000,-0.871420,0.023944,-0.483419,-0.079745,-12.636804,-1.830167,-0.793288,0.067425,-1.091501,-1.497935,43.279165,-2.894268,17.364795,4635726955059085300.000000,0.662488,-0.414560,0.584133,0.219176,-7.781459,10.631365,-4.867695,-2.607249,0.689907,-0.351674,42.373232,12.627983,9.572696,4635728566208692200.000000,-0.380859,-0.628877,-0.543688,0.404801,0
-9.233634,-0.513108,-0.014982,-1.820644,-0.167934,0.518322,46.131144,0.625827,-6.860798,4635731357937434600.000000,-0.871355,0.029513,-0.482265,-0.085386,-12.521634,-1.093772,-0.196594,0.099714,-1.145106,-1.531499,43.633716,-2.528361,17.086765,4635726955059085300.000000,0.666783,-0.417025,0.578365,0.216757,-7.699627,7.783269,-4.578597,-2.600940,0.631212,-0.148350,42.312199,12.714396,10.153471,4635728566208692200.000000,-0.385950,-0.625397,-0.549451,0.397523,0
-10.076319,-0.830253,-0.162493,-1.865221,0.033891,0.448068,46.070740,0.354015,-6.723898,4635731357937434600.000000,-0.870847,0.035455,-0.481786,-0.090832,-12.596326,-0.578052,0.496485,0.067493,-1.210087,-1.606031,43.820846,-2.056290,16.543316,4635726955059085300.000000,0.671202,-0.419673,0.572220,0.214306,-7.411679,6.663441,-4.038967,-2.550932,0.632471,0.024295,42.208832,12.485929,10.689995,4635728566208692200.000000,-0.391148,-0.622319,-0.554616,0.390031,0
-11.103410,-1.329195,-0.552723,-1.926464,-0.077179,0.386419,46.070740,0.366848,-6.884975,4635731376750143500.000000,-0.870519,0.041698,-0.480839,-0.096188,-13.195157,-0.382167,0.782680,0.008586,-1.251691,-1.699255,43.914763,-1.422128,15.883871,4635726955059085300.000000,0.675651,-0.422639,0.565699,0.211792,-6.675132,5.709634,-4.234157,-2.340333,0.634451,0.254336,42.265046,12.024201,11.183418,4635728566208692200.000000,-0.396124,-0.620051,-0.558781,0.382605,0
-11.825678,-1.825052,-0.675060,-1.957790,-0.353176,0.340147,46.070740,0.414428,-6.850758,4635731465311617000.000000,-0.870696,0.048033,-0.478835,-0.101481,-13.933716,-0.350267,1.244852,-0.044703,-1.304927,-1.788718,44.061231,-0.641262,15.340904,4635726985356337200.000000,0.680157,-0.425885,0.558779,0.209227,-5.918040,5.903412,-4.124109,-1.981087,0.623348,0.503990,42.453310,11.517200,11.558832,4635728566208692200.000000,-0.400560,-0.618884,-0.561658,0.375599,0
-12.093261,-2.077738,-0.621958,-2.013150,-0.571229,0.307887,46.068602,0.396772,-6.758069,4635731465311617000.000000,-0.872475,0.048767,-0.476599,-0.096242,-14.463980,-0.464857,1.388876,-0.087156,-1.366201,-1.870616,44.228398,0.194202,14.969045,4635727062433267700.000000,0.684740,-0.429349,0.551452,0.206619,-5.054310,6.922503,-3.747922,-1.591836,0.645402,0.687166,42.403615,11.224557,11.908224,4635728566208692200.000000,-0.404199,-0.618789,-0.563450,0.369118,0
-12.113787,-2.394317,-0.488771,-2.107387,-0.603898,0.255780,46.058533,0.625987,-7.168046,4635731465311617000.000000,-0.873315,0.054647,-0.473735,-0.099551,-14.873324,-0.636354,1.516512,-0.127387,-1.447759,-1.971208,44.427449,0.970699,14.589991,4635727062433267700.000000,0.689459,-0.433046,0.543623,0.203941,-3.963636,6.844847,-3.918023,-1.157314,0.694508,0.852900,42.183907,11.058827,12.355237,4635728566208692200.000000,-0.406840,-0.619855,-0.564203,0.363230,0
-12.315765,-2.791617,-0.035181,-2.213946,-0.406521,0.211721,46.043549,0.711908,-7.576517,4635731446483763200.000000,-0.873695,0.061125,-0.471518,-0.102919,-15.043922,-0.561196,1.089214,-0.184823,-1.553536,-2.104894,44.577381,1.621441,14.022825,4635727062433267700.000000,0.694350,-0.437072,0.535139,0.201176,-2.872616,6.720011,-3.923484,-0.667654,0.791678,1.033123,42.147544,10.626998,12.681306,4635728628239090700.000000,-0.408246,-0.622296,-0.563892,0.357923,0
-12.434619,-3.022292,0.486155,-2.271425,-0.175383,0.176470,45.975221,0.487656,-7.504993,4635731357937434600.000000,-0.873542,0.068065,-0.470084,-0.106359,-15.182872,0.191070,0.227158,-0.256141,-1.672699,-2.264075,44.708524,2.285042,13.503531,4635727062433267700.000000,0.700376,-0.438944,0.528030,0.194902,-1.822779,7.427999,-3.791347,-0.333302,0.879461,1.194962,42.202890,10.039681,12.938198,4635728673582874600.000000,-0.408806,-0.625794,-0.562790,0.352884,0
-12.825179,-3.085083,0.407646,-2.285859,-0.193105,0.133930,45.998120,0.485007,-7.284793,4635731357937434600.000000,-0.873369,0.075164,-0.468548,-0.109725,-15.154085,1.550034,-0.888651,-0.305107,-1.761678,-2.419685,44.793661,3.118532,12.850317,4635727062433267700.000000,0.705585,-0.443705,0.518194,0.191704,-0.822375,9.785237,-2.830459,-0.196646,0.982463,1.332484,42.093327,9.619208,13.407441,4635728673582874600.000000,-0.408954,-0.629969,-0.561283,0.347646,0
-13.183738,-2.917827,0.070478,-2.264144,-0.355603,0.062449,46.043559,0.769693,-7.453930,4635731357937434600.000000,-0.873489,0.082243,-0.466395,-0.112819,-15.421008,1.987600,-2.096375,-0.305689,-1.856891,-2.595846,44.940129,3.984818,12.084478,4635727062433267700.000000,0.711021,-0.448697,0.507668,0.188130,0.198367,8.088053,-3.456687,0.024576,1.012162,1.726843,41.970421,9.344136,13.829303,4635728673582874600.000000,-0.409003,-0.635447,-0.558440,0.342152,0
-13.357039,-2.686745,0.032100,-2.254525,-0.424498,0.013145,45.973080,0.845084,-7.776116,4635731357937434600.000000,-0.873693,0.089398,-0.463955,-0.115815,-15.901855,2.756898,-3.354802,-0.258165,-1.977028,-2.816313,45.079745,4.981513,11.443678,4635727062433267700.000000,0.716836,-0.453836,0.496315,0.183988,-3.787954,9.281607,1.047176,0.348841,0.640651,2.133560,42.233720,8.698093,13.953062,4635728673582874600.000000,-0.409605,-0.641847,-0.553380,0.337678,0
-13.422716,-2.507522,0.446186,-2.382425,-0.495788,-0.050508,45.985913,0.988275,-7.746172,4635731357937434600.000000,-0.873943,0.097125,-0.461150,-0.118875,-16.235473,5.221986,-4.298192,-0.230447,-2.085726,-3.050768,45.115765,6.153344,10.912232,4635727001886338000.000000,0.722947,-0.459193,0.484106,0.179248,-14.539654,13.471611,7.902042,0.476137,0.380381,2.134165,42.600239,7.574890,13.910763,4635728673582874600.000000,-0.410433,-0.648047,-0.547643,0.334165,0
-13.693053,-3.110573,2.011822,-2.488831,-0.693159,-0.100383,46.031356,1.345577,-7.622321,4635731357937434600.000000,-0.874479,0.105213,-0.457537,-0.121973,-17.013573,7.025266,-4.794940,-0.191208,-2.181403,-3.309196,44.929252,7.300938,10.195370,4635726847684902900.000000,0.729334,-0.464768,0.471021,0.173788,-24.656706,9.886807,7.743970,0.361591,0.297321,1.857946,42.354188,6.719403,13.950311,4635728673582874600.000000,-0.411347,-0.653256,-0.542631,0.331060,0
-13.626474,-3.700074,3.708363,-2.431014,-0.996321,-0.113677,45.930953,1.413922,-7.803315,4635731357937434600.000000,-0.875525,0.113000,-0.452810,-0.125098,-18.832397,6.726798,-4.796137,-0.045736,-2.297630,-3.596076,44.782086,8.459552,9.234131,4635726847684902900.000000,0.736220,-0.470249,0.456991,0.167347,-21.379593,3.459353,4.545988,0.022794,0.225862,1.602251,41.682315,6.559664,14.121715,4635728673582874600.000000,-0.412973,-0.657168,-0.538637,0.327801,0
-12.902935,-3.588077,4.351640,-2.286264,-1.053382,-0.102756,45.817740,1.461527,-8.347112,4635731357937434600.000000,-0.876639,0.120269,-0.447916,-0.128108,-22.199133,7.437629,-5.099976,0.107311,-2.522955,-3.893584,44.709527,9.802391,8.312025,4635726847684902900.000000,0.743788,-0.475510,0.441637,0.160084,-9.865325,-2.572019,0.495099,-0.048678,0.263702,1.623908,41.721394,6.214684,14.378566,4635728673582874600.000000,-0.414723,-0.661026,-0.534723,0.324223,0
-11.647585,-2.312910,3.895066,-2.215709,-0.915226,-0.077061,45.946528,1.791160,-8.735035,4635731357937434600.000000,-0.877437,0.127305,-0.443555,-0.130987,-25.780046,12.186267,-7.083623,-0.038241,-2.839648,-4.235086,44.442053,11.234386,7.283659,4635726847684902900.000000,0.751569,-0.481444,0.424349,0.152586,-4.025383,-5.117029,-7.823813,0.689676,0.526188,1.766928,42.779557,5.025512,14.657448,4635728673582874600.000000,-0.414024,-0.666799,-0.529836,0.321304,0
-10.363988,-1.252700,4.012965,-2.139591,-0.750344,-0.007845,45.906539,2.060914,-9.046010,4635731357937434600.000000,-0.877860,0.134033,-0.439854,-0.133888,-27.775855,17.658798,-8.017607,-0.632357,-3.130591,-4.576420,44.059112,12.901555,6.181497,4635726847684902900.000000,0.758517,-0.489421,0.404881,0.145573,-4.471103,-0.617118,-15.758009,1.152850,0.624159,1.851168,43.767585,3.559746,14.778006,4635728673582874600.000000,-0.411899,-0.673644,-0.524216,0.318969,0
-8.967617,-0.058638,5.005062,-1.914395,-0.732636,0.082748,45.737793,2.050844,-9.360916,4635731357937434600.000000,-0.878253,0.139825,-0.436365,-0.136773,-29.889928,20.253770,-9.947381,-1.578916,-3.533328,-4.887866,43.851612,14.534430,5.129175,4635726847684902900.000000,0.763941,-0.500371,0.382691,0.139894,-5.836860,6.129843,-10.716810,0.455394,0.431158,1.766813,43.823968,2.959352,14.790212,4635728673582874600.000000,-0.412010,-0.678803,-0.519385,0.315775,0
-7.872127,0.617972,4.365269,-1.800950,-0.829495,0.199305,45.576976,2.078591,-9.790001,4635731357937434600.000000,-0.878760,0.144969,-0.432629,-0.139991,-31.790327,22.401740,-13.607546,-2.849709,-3.735093,-5.274972,43.482618,16.128626,4.249924,4635726847684902900.000000,0.766674,-0.515480,0.358024,0.135314,-6.636352,8.389571,-0.584965,-0.476576,0.330553,1.619565,43.244983,3.031702,14.915161,4635728673582874600.000000,-0.414761,-0.681870,-0.516000,0.311080,0
-6.669398,0.724243,3.202346,-1.802876,-0.818005,0.257722,45.393266,2.209540,-9.942031,4635731357937434600.000000,-0.879162,0.150021,-0.428955,-0.143407,-30.189623,17.833727,-16.343980,-4.229406,-3.470242,-5.757399,42.697841,17.959895,3.565991,4635726847684902900.000000,0.765566,-0.535364,0.332039,0.130552,-8.341199,7.739303,1.653979,-0.719525,0.343744,1.586043,42.818809,2.672736,15.122687,4635728673582874600.000000,-0.418113,-0.684423,-0.513025,0.305864,0
-5.468467,0.446544,2.867017,-1.815586,-0.727274,0.226641,45.234495,2.194599,-9.885525,4635731357937434600.000000,-0.879361,0.155241,-0.425568,-0.146686,-31.221310,8.644353,-18.913596,-5.225572,-3.244799,-6.229108,41.880363,19.859600,3.306670,4635726847684902900.000000,0.761248,-0.558559,0.304770,0.125017,-8.961482,4.673847,-1.112585,-0.273042,0.403822,1.580852,42.740003,2.008913,15.386563,4635728735554294800.000000,-0.420038,-0.687781,-0.509579,0.301422,0
-4.448512,0.016888,2.555991,-1.936991,-0.716553,0.193947,45.476509,2.136895,-10.114995,4635731357937434600.000000,-0.879421,0.160997,-0.422100,-0.150102,-33.481672,7.417893,-19.845170,-6.052304,-2.983331,-6.530406,40.881352,21.979216,3.360875,4635726847684902900.000000,0.753736,-0.584100,0.276759,0.118800,-7.603600,2.342828,-4.125940,-0.004318,0.455157,1.614103,42.757372,1.513204,15.571962,4635728780957057000.000000,-0.421107,-0.691711,-0.505767,0.297330,0
-3.755267,-0.460305,3.796252,-1.868677,-0.634332,0.207855,45.625218,2.227207,-10.456535,4635731357937434600.000000,-0.879315,0.166546,-0.418963,-0.153419,-30.878522,10.388553,-20.542843,-6.991573,-2.496163,-6.766857,39.578482,24.141222,3.736695,4635726847684902900.000000,0.742256,-0.612143,0.248791,0.111538,-7.612901,3.784664,-4.868310,-0.314471,0.448618,1.623045,42.685048,0.976510,15.683712,4635728780957057000.000000,-0.423075,-0.695074,-0.502276,0.292573,0
-4.157916,0.070749,3.351386,-1.885303,-0.593841,0.256206,45.381113,2.395949,-10.547196,4635731357937434600.000000,-0.879047,0.172091,-0.415984,-0.156901,-28.165666,7.735140,-19.471328,-7.388668,-2.138568,-6.976086,38.236453,26.098145,4.423035,4635726847684902900.000000,0.728139,-0.640689,0.220763,0.102931,-9.078722,5.795854,-3.524925,-0.728720,0.439954,1.598030,42.600076,0.257208,15.855092,4635728780957057000.000000,-0.426208,-0.697608,-0.499319,0.287004,0
-5.628394,0.909385,2.484597,-2.084151,-0.622817,0.371204,45.222259,2.514135,-10.564260,4635731357937434600.000000,-0.878558,0.178138,-0.412836,-0.161149,-25.960548,3.343648,-19.925907,-7.130621,-1.892823,-7.073810,36.795773,27.950770,5.549037,4635726847684902900.000000,0.713181,-0.667468,0.192924,0.092949,-10.518169,7.173340,-2.355516,-1.154163,0.391676,1.580899,42.593508,-0.439505,16.006259,4635728780957057000.000000,-0.430601,-0.699303,-0.496727,0.280749,0
-7.325001,1.366768,3.320106,-2.156988,-0.455712,0.478265,45.451470,2.466483,-10.661915,4635731357937434600.000000,-0.877588,0.184384,-0.410306,-0.165806,-24.576445,-3.867240,-21.330553,-7.168932,-1.662947,-7.075154,35.323724,29.651327,6.827686,4635726847684902900.000000,0.696636,-0.693241,0.165414,0.082178,-9.716010,6.300747,-2.719973,-1.447267,0.363253,1.576628,42.519315,-1.165855,16.059779,4635728780957057000.000000,-0.435903,-0.700323,-0.494478,0.273912,0
-9.407218,2.654573,4.057941,-2.227110,-0.110057,0.533673,45.524933,2.556753,-10.761685,4635731357937434600.000000,-0.875866,0.191026,-0.409010,-0.170524,-25.915925,-8.012108,-26.217283,-6.990718,-1.417429,-6.532548,33.618031,31.203278,8.375436,4635726908084491300.000000,0.679049,-0.717019,0.139966,0.072011,-7.781295,4.518629,-3.689445,-1.449806,0.324594,1.592731,42.288326,-2.008579,16.135370,4635728780957057000.000000,-0.441277,-0.701268,-0.492078,0.267128,0
-11.703100,3.025306,3.569343,-2.225756,-0.030771,0.542596,45.195342,2.682928,-10.850252,4635731357937434600.000000,-0.873933,0.197702,-0.407985,-0.175224,-23.024819,9.696944,-22.458263,-5.718285,-1.065920,-5.083643,32.113562,32.348036,9.910797,4635727062433267700.000000,0.663713,-0.735510,0.120025,0.064067,-8.330017,4.224207,-4.054734,-1.301713,0.292221,1.605303,42.136202,-2.838174,16.363068,4635728657076655100.000000,-0.446267,-0.702416,-0.489383,0.260696,0
-14.310239,2.242651,2.619408,-2.381773,-0.505020,0.872616,44.980709,2.554920,-10.872098,4635731357937434600.000000,-0.872358,0.204032,-0.405360,-0.181788,-19.439090,17.465415,-16.754515,-4.202053,-1.021301,-3.603757,31.217067,32.987793,10.903426,4635727062433267700.000000,0.652074,-0.748498,0.105054,0.059272,-9.468225,3.556667,-5.677683,-1.197890,0.271106,1.621734,42.171876,-3.441521,16.499245,4635728628148893700.000000,-0.450982,-0.703714,-0.486453,0.254488,0
-12.609931,-0.935276,2.751700,-2.331568,-1.035951,1.194605,45.352831,2.253001,-11.040304,4635731357937434600.000000,-0.871388,0.209214,-0.401079,-0.189865,-22.432105,10.130587,-11.618472,-2.842412,-1.107076,-2.694872,30.622388,33.366585,11.511106,4635727032255620100.000000,0.644213,-0.757061,0.092977,0.056594,-8.946774,4.131939,-7.212618,-1.275675,0.193677,1.617960,42.262488,-3.961699,16.398792,4635728673582874600.000000,-0.456046,-0.704728,-0.483433,0.248340,0
-14.833269,0.853244,6.706794,-2.157843,0.079196,0.753269,45.769120,2.141681,-11.103915,4635731357937434600.000000,-0.868966,0.215381,-0.400560,-0.195091,-21.865752,5.259486,-8.331348,-1.703027,-1.098978,-2.269538,30.036433,33.711424,11.901421,4635726955059085300.000000,0.639697,-0.762234,0.082510,0.054580,-7.836870,6.110399,-6.358526,-1.415152,0.057914,1.578608,42.228247,-4.748508,16.384664,4635728673582874600.000000,-0.461718,-0.705203,-0.480379,0.242366,0
-17.223764,-2.101254,4.128049,-1.965897,0.490678,0.722025,45.454425,2.252988,-11.021157,4635731357937434600.000000,-0.865990,0.221228,-0.401635,-0.199520,-18.255237,7.043760,-7.872502,-0.899539,-1.172673,-1.557710,29.591144,34.057859,11.969398,4635726955059085300.000000,0.637518,-0.764913,0.074281,0.054415,-7.327281,6.865273,-4.443838,-1.473671,-0.126826,1.551815,42.099133,-5.651402,16.445246,4635728673582874600.000000,-0.467872,-0.705265,-0.477075,0.236847,0
-17.781265,-5.544525,-0.047924,-1.834183,-0.140270,0.658382,45.282621,2.069344,-11.008951,4635731357937434600.000000,-0.864182,0.226188,-0.400454,-0.204120,-15.225274,8.064550,-8.471446,-0.683817,-1.253230,-0.610946,29.553722,34.180729,11.774086,4635726955059085300.000000,0.635798,-0.766662,0.068894,0.056956,-6.515326,5.986215,-3.391417,-1.461358,-0.280771,1.548362,42.042297,-6.384314,16.188071,4635728673582874600.000000,-0.474257,-0.705135,-0.473432,0.231792,0
-18.761134,-7.965584,0.980362,-1.634346,-0.446089,0.761942,45.438629,1.852851,-10.981863,4635731357937434600.000000,-0.862941,0.229987,-0.398423,-0.209043,-12.406774,7.468817,-8.556537,-0.651831,-1.293277,0.407959,29.659743,34.156722,11.606220,4635726955059085300.000000,0.633924,-0.767994,0.066647,0.062324,-5.436322,5.300867,-4.020040,-1.435022,-0.394113,1.537112,42.091572,-7.061301,15.886112,4635728673582874600.000000,-0.480739,-0.704869,-0.469535,0.227126,0
-18.411647,-9.864777,0.937957,-1.404714,-0.562060,0.889077,45.479425,1.767393,-10.916099,4635731357937434600.000000,-0.861976,0.232618,-0.396293,-0.214097,-10.681851,6.138121,-7.366627,-0.503496,-1.373823,1.506114,29.917894,33.982105,11.460549,4635726924894323700.000000,0.632225,-0.768564,0.067724,0.070814,-6.285555,6.558293,-4.522902,-1.480172,-0.545223,1.494648,42.141826,-7.952275,15.710052,4635728673582874600.000000,-0.487572,-0.704230,-0.465464,0.222884,0
-17.332606,-10.226098,-0.081638,-1.263347,-0.808502,1.050619,45.308540,1.579933,-11.099308,4635731357937434600.000000,-0.861380,0.234245,-0.393544,-0.219720,-9.705435,6.119886,-5.340811,-0.179845,-1.511861,2.653434,30.571177,33.483262,11.140559,4635726908007187500.000000,0.631190,-0.767824,0.072207,0.082661,-8.111976,7.428282,-3.780173,-1.556917,-0.685081,1.456841,42.074760,-9.026832,15.426581,4635728673582874600.000000,-0.494825,-0.703171,-0.461253,0.218961,0
-15.726145,-10.104969,0.426784,-1.055815,-1.048558,1.188078,45.152522,0.953191,-11.731379,4635731357937434600.000000,-0.861186,0.234729,-0.390204,-0.225834,-9.476188,6.752672,-3.151092,0.144066,-1.575666,3.679912,31.700806,32.625590,10.664947,4635727062433267700.000000,0.630721,-0.765729,0.079909,0.097289,-8.726005,6.685595,-3.227502,-1.500333,-0.740301,1.446109,41.785689,-9.729552,15.060377,4635728673582874600.000000,-0.501969,-0.702095,-0.456871,0.215310,0
-14.316996,-9.219642,0.853483,-0.822002,-1.026400,1.335805,45.069188,0.580615,-12.227077,4635731339242937300.000000,-0.861001,0.234158,-0.387275,-0.232090,-10.043470,7.028045,-1.609675,0.329625,-1.521475,4.546666,33.132375,31.478193,10.182691,4635727062433267700.000000,0.630263,-0.762618,0.090560,0.113931,-8.742789,6.899804,-3.172060,-1.321819,-0.737400,1.427350,41.713543,-10.259047,14.799697,4635728673582874600.000000,-0.508529,-0.701301,-0.452357,0.212011,0
-13.626122,-8.500003,0.930402,-0.543249,-0.522321,1.402570,44.995954,0.354510,-12.340077,4635731250563252200.000000,-0.860188,0.232941,-0.386477,-0.237592,-11.042515,6.135030,-0.820257,0.434058,-1.389162,5.309413,34.524836,30.282771,9.813487,4635727002162518000.000000,0.629435,-0.758655,0.103976,0.132073,-8.873754,8.329655,-2.964729,-1.126888,-0.683828,1.362518,42.257306,-11.289629,14.447751,4635728673582874600.000000,-0.514326,-0.700798,-0.447940,0.209047,0
-13.843174,-7.555883,0.718121,-0.265419,0.094453,1.371505,44.950311,-0.148597,-12.137347,4635731250563252200.000000,-0.858661,0.231380,-0.388115,-0.241931,-12.002772,5.250850,-0.561192,0.477785,-1.225727,6.009796,35.917598,28.779533,9.298707,4635726847684902900.000000,0.627907,-0.753923,0.119930,0.151493,-8.872507,8.638088,-2.883222,-0.964303,-0.613117,1.269105,42.653079,-12.169949,13.971687,4635728673582874600.000000,-0.519406,-0.700493,-0.443777,0.206371,0
-14.791620,-6.448711,0.348726,0.022143,0.352024,1.232880,45.020905,-0.707486,-12.032255,4635731250563252200.000000,-0.857107,0.229278,-0.390804,-0.245095,-12.919555,5.841193,-0.190575,0.340080,-1.063192,6.680716,37.582109,26.777958,8.645478,4635726847684902900.000000,0.624985,-0.748772,0.138240,0.172117,-8.727479,8.409448,-2.732830,-0.827951,-0.563641,1.180980,42.309463,-12.226876,13.558936,4635728673582874600.000000,-0.523897,-0.700331,-0.439840,0.203984,0
-16.170006,-5.718397,-0.472872,0.369710,0.347150,1.011264,45.035763,-1.155451,-11.992981,4635731250563252200.000000,-0.856092,0.226298,-0.393594,-0.246941,-14.234652,6.876521,-0.386770,-0.123037,-0.828870,7.259014,39.156369,24.643059,8.214976,4635726847684902900.000000,0.619531,-0.744017,0.158511,0.193635,-8.739447,8.962807,-2.419172,-0.708884,-0.508121,1.087659,42.037123,-12.596895,13.248998,4635728673582874600.000000,-0.527840,-0.700278,-0.436180,0.201849,0
-16.947079,-4.891464,-1.580041,0.687639,0.260635,0.750595,45.136069,-1.409678,-11.900095,4635731250563252200.000000,-0.855775,0.222509,-0.396142,-0.247409,-15.709092,6.923883,-0.247746,-0.769743,-0.560736,7.699602,40.795443,22.091049,8.135628,4635726847684902900.000000,0.610928,-0.740125,0.180159,0.215695,-9.990150,9.983860,-1.964431,-0.627789,-0.467290,0.993570,42.098564,-13.372188,13.029668,4635728673582874600.000000,-0.531378,-0.700245,-0.432801,0.199944,0
-16.453080,-4.644704,-1.951063,1.020725,0.114547,0.490968,45.262413,-1.683491,-11.885769,4635731269219097600.000000,-0.856254,0.217809,-0.398251,-0.246546,-17.027941,5.820857,0.254419,-1.495760,-0.343151,7.995297,42.306499,19.010011,8.330809,4635726787458462700.000000,0.598987,-0.737243,0.202421,0.238146,-12.749489,10.498770,-1.165620,-0.551972,-0.425003,0.922760,41.802363,-13.454262,12.790291,4635728673582874600.000000,-0.534547,-0.700268,-0.429651,0.198202,0
-15.446978,-4.416374,-1.834988,1.339974,-0.008487,0.267460,45.179088,-2.068824,-11.846518,4635731357937434600.000000,-0.857418,0.212225,-0.400015,-0.244504,-18.172298,5.192870,0.078803,-2.262230,-0.242590,8.185115,43.397702,16.056821,8.282433,4635726602826931200.000000,0.583698,-0.735327,0.224510,0.261124,-16.302142,10.534989,-0.545888,-0.427470,-0.342714,0.914311,41.462581,-13.434510,12.565799,4635728673582874600.000000,-0.537188,-0.700606,-0.426597,0.196457,0
-14.003984,-4.594733,-1.228870,1.660054,-0.036747,0.085858,45.105844,-2.298131,-11.721817,4635731357937434600.000000,-0.859057,0.205766,-0.401813,-0.241305,-19.362109,0.022065,-1.900710,-3.238782,0.025120,8.001140,44.333710,12.980822,8.360792,4635726525562355700.000000,0.564623,-0.735314,0.245335,0.283416,-19.998545,10.809227,-1.206319,-0.353326,-0.228162,1.026374,41.360146,-13.854439,12.495205,4635728673582874600.000000,-0.539491,-0.701387,-0.423405,0.194252,0
-12.288188,-4.690262,-0.619686,1.928658,0.017738,-0.014071,45.087680,-2.473753,-11.592181,4635731357937434600.000000,-0.860880,0.198555,-0.403955,-0.237239,-21.457440,-13.218590,-6.192722,-3.894356,0.207883,7.554956,45.230113,9.925089,8.918911,4635726525562355700.000000,0.543159,-0.736577,0.264134,0.304409,-24.323272,10.701718,-1.687170,-0.274716,-0.072437,1.282908,40.926476,-14.143590,12.570690,4635728611740293100.000000,-0.541485,-0.702901,-0.419747,0.191144,0
-10.787679,-4.754537,0.284645,2.141420,0.151578,0.019312,45.316986,-2.727966,-11.724470,4635731357937434600.000000,-0.862541,0.190657,-0.406765,-0.232842,-22.534321,-17.722706,-5.982861,-3.543301,-0.129487,7.518392,45.731891,6.850313,9.252658,4635726525562355700.000000,0.522522,-0.735755,0.282175,0.325596,-28.912953,8.575776,-1.901472,-0.286765,-0.042932,1.788983,40.394239,-14.417002,12.524031,4635728566208692200.000000,-0.543845,-0.705266,-0.414666,0.186776,0
-9.714258,-4.601473,2.126242,2.247301,0.352381,0.231373,45.450279,-2.986939,-11.563791,4635731357937434600.000000,-0.863660,0.182192,-0.410518,-0.228849,-20.159486,-6.975972,-1.277906,-3.023756,-0.438738,7.799590,45.853487,3.663052,9.029523,4635726345037659100.000000,0.502826,-0.732162,0.300764,0.347340,-35.834813,4.492386,-3.649659,-0.490578,-0.172870,2.471053,40.342908,-15.452571,12.409370,4635728566208692200.000000,-0.547513,-0.708189,-0.407407,0.180879,0
-9.093513,-3.698527,3.953968,2.116451,0.547189,0.500272,45.447661,-3.331391,-11.211749,4635731357937434600.000000,-0.864009,0.173901,-0.415001,-0.225877,-16.585796,3.781906,0.429333,-3.212830,-0.476008,8.037882,46.105010,0.571093,8.804424,4635725911404710900.000000,0.481620,-0.727690,0.319347,0.369496,-42.371129,1.692182,-5.356608,-0.895990,-0.282907,3.001910,40.311404,-16.820506,12.392367,4635728566208692200.000000,-0.552889,-0.710905,-0.398582,0.173381,0
-8.936455,-1.837962,3.958310,1.827603,0.544744,0.697482,45.374426,-3.716765,-11.101892,4635731357937434600.000000,-0.863889,0.166298,-0.419295,-0.224124,-14.763342,5.393234,-1.089893,-3.877814,-0.299922,8.100477,46.330471,-2.824333,8.511416,4635725988691443700.000000,0.457414,-0.723755,0.337012,0.391629,-48.910848,-0.438929,-8.907379,-1.394586,-0.484735,3.457341,39.914098,-17.914253,12.262133,4635728566208692200.000000,-0.560295,-0.712929,-0.388229,0.164559,0
-8.629437,0.373620,2.701569,1.144198,0.098785,0.795425,45.313881,-3.990549,-10.989909,4635731339318006800.000000,-0.863941,0.160546,-0.421383,-0.224202,-15.723623,-0.818407,-7.234127,-4.282289,-0.303398,8.145441,45.962334,-6.344448,7.995358,4635725988691443700.000000,0.431262,-0.719482,0.353659,0.413864,-58.602108,-4.992610,-15.775127,-1.882963,-0.661250,3.556086,39.369972,-19.237058,11.687643,4635728566208692200.000000,-0.569356,-0.713663,-0.377404,0.155197,0
-7.738146,4.244332,5.511602,0.790456,-0.749627,0.709157,45.313881,-4.375955,-10.920749,4635731250563252200.000000,-0.865306,0.155414,-0.420009,-0.225134,-15.108190,-4.641863,-10.717759,-4.031168,-0.519899,8.596203,45.359716,-9.737434,7.528521,4635725988691443700.000000,0.404748,-0.712627,0.371159,0.436558,-57.036041,-11.687848,-22.226858,-2.689720,-0.169812,3.534504,38.785495,-20.781847,11.031409,4635728566208692200.000000,-0.579849,-0.712543,-0.368207,0.143111,0
-6.356166,11.078409,12.531786,0.772224,-0.979101,0.435517,45.313881,-4.592576,-11.137654,4635731250563252200.000000,-0.867295,0.150606,-0.417593,-0.225241,-13.558004,-6.869613,-12.729079,-3.841398,-0.595727,9.062482,44.559403,-13.229116,7.125670,4635725988691443700.000000,0.377405,-0.703433,0.389651,0.459259,-40.493970,-20.929310,-23.685013,-3.424363,1.338790,3.587973,38.083804,-22.161930,10.670020,4635728566208692200.000000,-0.590010,-0.710346,-0.362783,0.125237,0
-5.018998,16.111778,21.197308,0.909993,0.036337,0.021205,45.286384,-4.678034,-11.399781,4635731250563252200.000000,-0.867961,0.146993,-0.418691,-0.223011,-13.031180,-11.985041,-15.512130,-3.614118,-0.631442,9.338725,43.477433,-16.706948,6.448462,4635725988691443700.000000,0.349608,-0.692158,0.408659,0.481341,-32.487842,-22.876731,-18.396957,-4.662977,2.305493,3.682247,37.132065,-23.633381,10.438091,4635728566208692200.000000,-0.602084,-0.705336,-0.359896,0.102327,0
-3.133418,15.210328,21.523325,0.987372,1.326074,-0.571697,45.169981,-4.716975,-11.024406,4635731250563252200.000000,-0.866923,0.145358,-0.424133,-0.217776,-12.498917,-18.765495,-17.349130,-2.818277,-0.737832,9.643566,42.140980,-20.359398,5.685250,4635725988691443700.000000,0.323060,-0.677778,0.429266,0.501976,-37.217840,-15.696626,-12.510398,-5.049325,2.035271,4.142439,36.143989,-25.286922,10.213178,4635728628020038700.000000,-0.615440,-0.699392,-0.354878,0.078397,0
-1.049932,6.485054,15.676289,0.605874,2.009050,-1.035290,45.312459,-4.493745,-10.242741,4635731250563252200.000000,-0.864787,0.146538,-0.431378,-0.211150,-12.802072,-26.057488,-18.437508,-1.519310,-0.772228,10.157966,40.372446,-23.955614,5.137874,4635725988691443700.000000,0.298582,-0.659440,0.453220,0.520173,-40.052557,-9.533152,-11.912607,-4.116894,1.281525,4.738832,35.087966,-27.013586,9.993460,4635728673582874600.000000,-0.626922,-0.695937,-0.345621,0.056449,0
2.371246,-4.207258,12.031609,0.455972,2.328626,-1.342602,45.700056,-4.091361,-9.434216,4635731250563252200.000000,-0.862142,0.149076,-0.439406,-0.203496,-14.536605,-31.542701,-19.496044,0.179147,-0.780003,10.514740,38.258865,-27.116061,4.838550,4635726048789029900.000000,0.277445,-0.637059,0.480967,0.534650,-41.553748,7.010388,-18.814543,-2.740001,0.828467,5.811444,33.647285,-28.876752,9.619169,4635728673582874600.000000,-0.634867,-0.697015,-0.331500,0.034956,0
6.997048,-10.403726,7.929416,0.821391,2.040807,-1.188569,45.914158,-3.749527,-8.785059,4635731250563252200.000000,-0.860001,0.149763,-0.446751,-0.195917,-17.952895,-31.121649,-19.968567,1.526281,-0.661222,10.240362,35.773008,-30.355335,4.785750,4635726203439808500.000000,0.259727,-0.612730,0.510212,0.544782,-54.470997,17.927142,-25.362869,-1.485175,0.328080,7.005931,31.914976,-30.768547,9.187080,4635728673582874600.000000,-0.639523,-0.702424,-0.312137,0.013461,0
11.128889,-10.005846,5.189081,0.861938,1.304943,-0.985150,45.924252,-3.392967,-8.142824,4635731250563252200.000000,-0.859008,0.149304,-0.451584,-0.189433,-21.926503,-26.387278,-19.191037,1.609388,-0.158216,9.647579,33.344620,-33.340505,5.084072,4635726203439808500.000000,0.242944,-0.588748,0.538749,0.551456,-58.936059,4.000519,-16.576461,0.672023,-0.149007,7.574519,29.994162,-32.630969,9.133672,4635728673582874600.000000,-0.637916,-0.713630,-0.289426,-0.005362,0
12.452205,-9.941294,5.394718,0.718271,0.797570,-0.683088,45.939039,-3.012182,-7.646770,4635731213401708500.000000,-0.858605,0.148362,-0.454661,-0.184577,-24.150071,-26.916262,-18.818257,1.114686,0.457151,9.129259,30.672668,-35.801814,5.553963,4635726203439808500.000000,0.223698,-0.567544,0.563875,0.556684,-47.394809,4.202148,-12.214382,1.401042,0.476996,7.466059,27.930872,-34.414314,9.546738,4635728673582874600.000000,-0.632753,-0.725914,-0.268430,-0.024877,0
13.931433,-9.085157,5.832308,0.584270,0.472627,-0.447751,46.037160,-2.866163,-7.478450,4635731035814887400.000000,-0.858529,0.147200,-0.456607,-0.181022,-23.494615,-33.046835,-17.862160,0.869652,0.890868,8.516716,27.783089,-37.748036,5.941166,4635726233523647500.000000,0.203969,-0.548213,0.586601,0.560142,-55.173743,-4.705354,-9.398300,0.522637,0.605303,6.459937,25.831197,-36.037215,10.008095,4635728673582874600.000000,-0.629661,-0.734113,-0.250495,-0.043096,0
13.786474,-5.236066,5.647873,0.392794,0.657091,-0.244750,46.168400,-2.765962,-7.332291,4635731035814887400.000000,-0.857816,0.146478,-0.459185,-0.178454,-22.609608,-36.418980,-16.660535,0.877367,1.005676,7.714813,25.234938,-39.429570,6.350336,4635726370963119100.000000,0.185596,-0.530457,0.606898,0.562000,-54.123051,-29.364906,-4.608025,0.071374,0.234743,5.654449,23.851070,-37.362693,10.105555,4635728673582874600.000000,-0.628077,-0.739883,-0.233813,-0.058517,0
10.561909,-0.795221,3.728162,0.253140,1.166164,0.126011,46.185274,-2.622482,-6.920121,4635731035814887400.000000,-0.855754,0.145905,-0.463699,-0.177144,-23.585914,-35.064356,-14.624135,0.666693,0.940863,6.793703,23.017598,-40.904180,6.807859,4635726525562355700.000000,0.168904,-0.514528,0.624034,0.563306,-33.084266,-33.619357,-5.028204,-0.340599,0.259409,4.853446,22.190776,-38.374856,10.094015,4635728673582874600.000000,-0.627633,-0.743431,-0.219455,-0.072295,0
5.915021,3.277359,2.640864,0.243748,1.384668,0.427803,46.310329,-2.681950,-6.342214,4635731035814887400.000000,-0.853018,0.144923,-0.469156,-0.176779,-25.553061,-34.144782,-10.558450,0.169960,0.861340,5.655348,20.929652,-41.907590,7.186289,4635726525562355700.000000,0.153929,-0.501329,0.637084,0.564888,-24.786021,-25.715285,-5.334732,-0.477923,0.409916,3.751114,20.792863,-39.186856,10.267402,4635728673582874600.000000,-0.627602,-0.745320,-0.208800,-0.083767,0
1.029263,5.955878,3.601377,0.324464,1.159040,0.670980,46.537171,-3.086903,-5.777780,4635731035814887400.000000,-0.850559,0.143010,-0.473995,-0.177271,-24.591801,-37.422899,-5.534559,-0.155727,0.702575,4.410392,18.988761,-42.555527,7.479236,4635726525562355700.000000,0.141315,-0.491306,0.646158,0.566682,-24.400542,-19.956454,-4.534967,-0.431780,0.634990,2.931378,19.546664,-39.882273,10.292045,4635728673582874600.000000,-0.627391,-0.746385,-0.201254,-0.093739,0
-3.094248,8.626116,3.754987,0.299129,0.800727,0.950376,46.595216,-3.487198,-5.408665,4635731035814887400.000000,-0.848562,0.140364,-0.477694,-0.179023,-19.963814,-43.113871,-1.659808,0.146592,0.555955,3.065586,17.476180,-43.029122,7.586645,4635726495504284700.000000,0.132853,-0.484253,0.652941,0.567025,-20.597837,-20.436371,-3.198838,-0.500298,0.758306,1.977414,18.629368,-40.351899,10.082384,4635728673582874600.000000,-0.627588,-0.746334,-0.196945,-0.101646,0
-5.646240,10.644602,0.885763,0.038275,0.259121,1.315714,46.521975,-3.873702,-5.264378,4635731035814887400.000000,-0.847200,0.137493,-0.479480,-0.182886,-15.223089,-44.632716,-0.824161,0.707687,0.490451,1.723914,16.660222,-43.346996,7.805870,4635726478292972500.000000,0.128855,-0.480331,0.658231,0.565165,-16.232817,-24.191696,-0.188323,-0.569723,0.671732,0.772652,18.274178,-40.491959,9.861141,4635728673582874600.000000,-0.628550,-0.745110,-0.196114,-0.106184,0
-7.470175,12.971772,-3.000969,-0.305122,0.208450,1.716433,46.448737,-4.532836,-5.355647,4635731035814887400.000000,-0.845403,0.135000,-0.481027,-0.188896,-10.688200,-40.166080,-1.951096,0.833760,0.511168,0.600145,16.394050,-43.555521,8.144749,4635726632936538100.000000,0.128069,-0.479008,0.661873,0.562204,-11.943378,-25.175681,3.624775,-0.527378,0.520917,-0.464920,18.329102,-40.449846,9.771111,4635728673582874600.000000,-0.630039,-0.743038,-0.198749,-0.106978,0
-7.985364,14.752338,-3.528127,-0.350167,1.223102,1.588966,46.390240,-5.162534,-5.060521,4635731035814887400.000000,-0.841597,0.133723,-0.486002,-0.193996,-6.891535,-35.036111,-2.955466,0.606831,0.596397,-0.433226,16.428249,-43.548726,8.629587,4635726632936538100.000000,0.128956,-0.480909,0.662909,0.559150,-7.273132,-22.543637,6.651366,-0.302917,0.420294,-1.749498,18.621151,-40.320454,9.815053,4635728673582874600.000000,-0.631466,-0.740506,-0.205195,-0.103902,0
-8.863539,14.066704,-4.990358,-0.631028,1.970634,1.039839,46.387710,-5.606573,-4.445577,4635731035814887400.000000,-0.836494,0.135145,-0.493020,-0.197343,-6.625566,-32.916901,-0.721147,0.161832,0.790960,-1.588284,16.515068,-43.253336,8.972442,4635726632936538100.000000,0.130778,-0.487056,0.660400,0.556368,-2.983718,-18.672660,8.339731,-0.176859,0.313108,-3.131514,19.517123,-40.002159,9.823300,4635728673582874600.000000,-0.633120,-0.737084,-0.215654,-0.096741,0
-12.571147,13.259732,-6.230816,-0.935589,2.206347,0.500666,46.331305,-5.811146,-3.720301,4635731035814887400.000000,-0.831094,0.138922,-0.500256,-0.199316,-6.361961,-30.066771,1.434524,0.245628,0.982246,-2.552427,17.305405,-42.802196,8.921210,4635726693019704300.000000,0.134546,-0.496114,0.656243,0.552371,-0.109959,-15.257421,9.047128,-0.288442,0.137244,-4.557697,20.912822,-39.343403,9.767460,4635728673582874600.000000,-0.635679,-0.731958,-0.229923,-0.085349,0
-15.708409,10.448125,-5.722631,-0.910820,1.007143,0.493259,46.349405,-5.901212,-3.085064,4635731035814887400.000000,-0.828166,0.141601,-0.503328,-0.201870,-15.457205,11.028491,-2.983766,1.392845,0.268948,-2.555573,18.339857,-42.385148,9.168210,4635726847684902900.000000,0.142546,-0.502921,0.654159,0.546651,1.332210,-13.058605,9.544538,-0.300658,0.041154,-5.887583,22.584504,-38.422113,9.643277,4635728673582874600.000000,-0.638531,-0.725205,-0.247873,-0.070109,0
-15.521982,6.248057,-1.804596,0.696925,-4.571445,0.617129,46.290918,-6.149951,-3.906154,4635731035814887400.000000,-0.837629,0.133719,-0.488479,-0.204657,-43.638336,95.365487,-1.743287,4.398195,-1.326267,0.531869,18.325920,-42.197178,10.680244,4635726847684902900.000000,0.154461,-0.495345,0.664588,0.537678,2.305199,-12.590356,9.897420,0.055664,0.110156,-7.111356,24.840386,-37.054338,9.507450,4635728488419428400.000000,-0.640117,-0.717576,-0.269616,-0.051396,0
-12.854198,-1.404742,27.193944,3.899749,-8.779672,1.013553,45.982800,-6.755700,-6.384257,4635731035814887400.000000,-0.856275,0.110146,-0.461396,-0.204387,-118.237099,127.636836,43.513235,4.739260,-2.026838,-0.424532,18.516473,-41.835530,11.958514,4635726847684902900.000000,0.171051,-0.488457,0.673042,0.528362,3.299409,-12.944634,9.719038,0.691023,0.152671,-8.229337,27.294868,-35.188948,9.565981,4635728351460327400.000000,-0.639333,-0.709635,-0.294666,-0.029058,0
-2.001194,-2.263016,44.362284,2.478538,-1.862518,1.048291,45.593824,-7.232229,-8.315422,4635731035814887400.000000,-0.860151,0.097437,-0.457336,-0.203692,-78.486730,-24.413258,52.596325,-5.134741,0.652647,-9.588175,20.691286,-41.016827,11.186107,4635726847684902900.000000,0.180102,-0.519446,0.642305,0.534026,3.160184,-11.861969,9.332353,1.529738,-0.014018,-9.238230,29.601668,-32.931107,10.015677,4635728351460327400.000000,-0.635526,-0.701746,-0.321952,-0.002471,0
-1.305883,-17.771400,10.886839,0.158964,5.323973,0.846064,45.520927,-7.470046,-7.356894,4635731035814887400.000000,-0.849128,0.099805,-0.476747,-0.204285,-0.971115,-67.079792,-3.469283,-4.045573,0.861477,-7.903007,23.710165,-39.792793,9.824590,4635726847684902900.000000,0.186878,-0.544751,0.616698,0.536662,0.756050,-10.755427,7.431251,2.617086,-0.418218,-10.158384,32.131823,-30.137022,10.543404,4635728351460327400.000000,-0.627999,-0.694297,-0.350310,0.029197,0
-15.508723,-61.918715,-6.591023,2.722127,3.088862,1.002706,45.782780,-7.742740,-5.496724,4635731035814887400.000000,-0.843300,0.090440,-0.490381,-0.200480,-7.560637,-41.091892,-23.612340,3.520266,0.554803,-6.706299,25.973774,-38.347036,10.068054,4635726847684902900.000000,0.208629,-0.559870,0.609694,0.520858,-3.948473,-11.314822,4.521922,4.125901,-0.956547,-10.939129,34.853700,-26.841925,10.975796,4635728351460327400.000000,-0.615444,-0.688098,-0.378569,0.066606,0
-19.931544,-53.743883,-14.826797,4.110180,-4.189491,0.474269,45.890616,-8.288754,-5.774068,4635731035814887400.000000,-0.852893,0.071211,-0.479148,-0.194728,-7.890342,-17.621835,-27.064393,5.406679,0.123194,-4.648955,27.330213,-36.918967,11.489130,4635726847684902900.000000,0.231180,-0.566685,0.610630,0.502548,-9.356660,-10.552509,-0.370530,5.927248,-1.483985,-11.479616,37.512739,-22.786000,11.501231,4635728227772086300.000000,-0.596767,-0.683688,-0.405503,0.109578,0
-13.533616,-8.348633,9.482187,2.886802,-5.907365,-0.710650,45.712118,-8.529262,-7.777954,4635731109759435800.000000,-0.865913,0.057305,-0.460116,-0.187625,17.972721,4.411012,-44.168319,0.551039,2.495168,-3.590917,28.416900,-35.562267,12.873999,4635726847684902900.000000,0.233889,-0.580078,0.605854,0.491677,-15.547354,-7.475176,-5.420272,7.440958,-2.077919,-11.703176,39.935717,-18.160503,12.050289,4635727951111166000.000000,-0.572783,-0.680226,-0.429606,0.157007,0
-12.684210,4.774633,27.708509,1.751785,1.711113,-2.070541,45.662764,-8.142266,-8.308281,4635731465311617000.000000,-0.864679,0.056105,-0.467125,-0.176002,16.748325,-7.990506,-42.027585,0.839085,2.357825,-4.716483,29.327885,-34.410919,13.588432,4635726847684902900.000000,0.239831,-0.595521,0.598575,0.479106,-21.546559,-2.593194,-9.674734,8.192601,-2.686434,-11.684037,41.888786,-13.450505,12.296491,4635727814052544500.000000,-0.545741,-0.675791,-0.450183,0.206902,0
-24.379124,10.383343,7.342973,2.370930,5.209033,-2.606035,45.887867,-7.392469,-6.321550,4635731465311617000.000000,-0.856781,0.056266,-0.486861,-0.160398,-1.899389,-10.509397,-10.601861,3.098864,-0.080581,-4.418435,30.465802,-33.240681,14.240590,4635726847684902900.000000,0.256716,-0.602827,0.593804,0.467004,-25.934479,5.239266,-12.577252,7.604628,-3.343822,-11.540634,43.163035,-8.385994,11.910533,4635727814052544500.000000,-0.519747,-0.667302,-0.467749,0.256479,0
-45.771479,28.346479,4.975619,2.779577,-0.356526,-2.048291,46.222738,-6.800561,-5.363946,4635731465311617000.000000,-0.859505,0.050067,-0.486917,-0.147160,-7.521496,-31.156340,3.849284,2.554008,-0.175729,-3.828026,31.801940,-31.841409,15.067789,4635726847684902900.000000,0.271191,-0.608819,0.589099,0.456900,-29.256244,14.102039,-10.336420,6.891165,-3.812131,-11.088491,43.974911,-3.381284,10.936102,4635727690702361600.000000,-0.495378,-0.655410,-0.482229,0.304128,0
-22.256747,26.852650,-7.456458,2.005590,-8.936570,-1.627282,46.024716,-6.186594,-7.275900,4635731465311617000.000000,-0.878478,0.040463,-0.455448,-0.138584,-20.791231,-30.409097,-2.113750,3.838601,-0.784098,-4.563786,32.832436,-30.307203,15.797386,4635726847684902900.000000,0.291682,-0.613693,0.584017,0.444102,-29.012658,20.692718,-9.050417,7.311922,-3.689072,-10.297852,44.556702,0.965697,9.610004,4635727290956143600.000000,-0.469067,-0.644097,-0.492765,0.349712,0
5.847594,24.041241,27.015576,1.673063,-6.078778,-2.033209,45.463028,-5.372374,-10.035680,4635731483771989000.000000,-0.891205,0.034482,-0.433652,-0.128497,-20.900953,6.176501,-13.920779,3.742933,-0.610692,-4.308777,33.751549,-28.717108,16.483731,4635726847684902900.000000,0.310849,-0.618020,0.579282,0.431111,-24.756513,28.012280,-14.368923,7.227375,-3.869435,-9.313472,44.617313,5.048415,7.903103,4635727124102875100.000000,-0.443448,-0.632550,-0.499027,0.392691,0
13.838779,17.757434,30.886456,1.617794,3.209668,-2.288665,45.328671,-4.817244,-10.504062,4635731572685799400.000000,-0.886774,0.034178,-0.446037,-0.116254,-8.583688,22.655877,-8.680882,2.893742,-0.225065,-3.588006,34.841380,-27.117992,17.186052,4635726877652787200.000000,0.325432,-0.622132,0.575093,0.419897,-21.348651,39.807116,-20.448641,5.981707,-4.572668,-8.249690,44.234755,8.888872,5.900591,4635727169807450100.000000,-0.423234,-0.618235,-0.502014,0.432019,0
-0.188605,7.801445,5.189582,0.628224,6.939279,-3.023907,45.843440,-4.191801,-8.312368,4635731572685799400.000000,-0.874986,0.040882,-0.471307,-0.102941,-8.067529,4.228740,-1.994122,2.250382,-0.539060,-4.328363,35.895642,-25.474742,17.638546,4635726955059085300.000000,0.340257,-0.628102,0.567217,0.409852,-20.294498,50.311917,-24.270547,4.408283,-5.116604,-7.230097,43.702615,12.161887,3.446914,4635727169807450100.000000,-0.409219,-0.601107,-0.503270,0.466829,0
-15.435521,-3.978317,13.995311,0.960758,5.098469,-3.180209,46.305519,-3.026312,-5.941542,4635731572685799400.000000,-0.866218,0.045860,-0.489598,-0.088637,-12.285899,-5.737016,-3.084289,1.677090,-0.733350,-4.540421,36.811726,-23.829332,17.785607,4635726955059085300.000000,0.354260,-0.634789,0.557317,0.401174,-17.804576,56.665500,-28.199311,2.773910,-5.272494,-6.160650,43.016740,14.660051,0.901859,4635727169807450100.000000,-0.401084,-0.582243,-0.504004,0.496090,0
-19.777139,-9.943329,0.033090,0.778399,0.586698,-2.948243,46.449537,-1.673555,-5.083574,4635731572685799400.000000,-0.866239,0.048973,-0.491424,-0.075724,-7.818047,6.973076,-1.578672,0.868297,-0.494672,-4.231991,37.625447,-22.525282,17.789321,4635726955059085300.000000,0.364919,-0.642121,0.547043,0.394029,-12.822804,62.726482,-30.350611,1.992809,-4.876943,-5.166281,42.212624,16.559826,-1.229618,4635727231464171500.000000,-0.395617,-0.564334,-0.504036,0.520540,0
-13.743985,-13.318295,4.028965,1.053498,-0.716466,-2.224229,46.537426,-0.726805,-5.292087,4635731572685799400.000000,-0.868599,0.049338,-0.488702,-0.065368,-5.626677,5.173048,-3.958336,0.509580,-0.284266,-4.406468,38.330047,-21.234215,17.605642,4635726955059085300.000000,0.374283,-0.650553,0.535841,0.386739,-7.716287,66.333324,-32.708682,2.399876,-4.168824,-4.347102,41.438650,18.244096,-3.053121,4635727277181632500.000000,-0.389147,-0.549880,-0.502000,0.542395,0
-4.016936,-9.711395,12.558064,1.071041,1.026646,-1.922312,46.668903,0.003243,-5.161142,4635731572685799400.000000,-0.867228,0.049497,-0.492303,-0.055709,-6.378724,-4.886573,-6.920367,1.024441,-0.381740,-4.493615,39.070038,-19.635238,17.565282,4635726985001201700.000000,0.385063,-0.658273,0.524556,0.378477,-1.366106,67.704334,-36.088112,3.173034,-3.525781,-3.291995,40.657186,19.709796,-4.847748,4635727277181632500.000000,-0.381686,-0.539981,-0.496512,0.562327,0
-0.202936,-9.264082,8.600650,1.271914,4.011563,-1.381623,46.645876,0.595388,-4.120782,4635731572685799400.000000,-0.859431,0.048721,-0.506718,-0.047352,-6.163750,-1.078562,-2.445494,1.276156,-0.353197,-4.429816,39.921108,-18.015732,17.763404,4635727062433267700.000000,0.396423,-0.664976,0.514050,0.369336,7.579503,65.088808,-36.961961,3.757144,-2.799057,-1.724394,39.902363,20.500762,-6.559718,4635727400469305300.000000,-0.374885,-0.535684,-0.487031,0.579054,0
0.437341,-9.675149,3.610211,1.671844,4.255316,-0.759689,46.566019,0.863945,-2.592794,4635731554274747400.000000,-0.850772,0.045232,-0.522031,-0.040312,-4.669436,3.535179,-0.320574,1.097211,-0.185211,-4.390077,40.698786,-16.315996,17.923049,4635727062433267700.000000,0.406725,-0.671900,0.503502,0.360015,14.220328,57.175341,-29.809146,3.687107,-2.139956,-0.213128,39.586800,20.484939,-7.958951,4635727738475756500.000000,-0.370406,-0.535737,-0.475191,0.591590,0
-0.245203,-7.357659,2.900433,1.941911,3.495511,-0.600723,46.790959,1.174331,-1.077797,4635731465311617000.000000,-0.843511,0.040299,-0.534557,-0.033380,-4.772372,-1.599376,-1.402945,1.027255,-0.267673,-4.297530,41.217221,-14.597122,17.828210,4635727062433267700.000000,0.416702,-0.678420,0.492780,0.351105,14.798295,46.993660,-23.735057,3.330176,-1.746526,0.691854,39.555373,20.307685,-9.206110,4635727921426726900.000000,-0.368004,-0.537899,-0.462624,0.601013,0
0.309758,-5.439594,3.774873,2.222513,3.249611,-0.708033,47.119877,1.645214,0.315672,4635731465311617000.000000,-0.836649,0.034043,-0.546124,-0.024664,-8.652076,-7.734221,-2.061803,1.389097,-0.397207,-4.073061,41.521812,-13.010159,17.882067,4635727062433267700.000000,0.427316,-0.683694,0.482491,0.342295,16.028637,46.884820,-9.013146,3.420505,-2.628174,1.084391,39.476678,19.827778,-10.723081,4635727921426726900.000000,-0.367968,-0.538588,-0.447459,0.611803,0
2.442959,-4.202517,3.671526,2.346485,3.316740,-0.898619,46.931598,1.899094,1.626886,4635731465311617000.000000,-0.829405,0.028040,-0.557730,-0.015410,-11.116515,-3.549429,-2.304713,1.786822,-0.147201,-3.745758,41.884620,-11.443666,18.087373,4635727062433267700.000000,0.437957,-0.687751,0.473992,0.332452,8.125021,100.461617,-21.805509,1.917658,-3.057760,4.357289,39.668265,18.233352,-12.263750,4635727921426726900.000000,-0.380344,-0.541689,-0.427978,0.615424,0
3.517930,-4.032283,5.135161,2.249630,3.603875,-1.043583,46.595313,2.140797,2.847371,4635731465311617000.000000,-0.821220,0.022981,-0.570114,-0.006243,-6.186167,0.087402,-4.402016,2.160311,0.029152,-3.561877,42.242006,-9.933481,18.187824,4635727062433267700.000000,0.448939,-0.690792,0.466733,0.321590,-26.873677,126.627693,-32.158726,-5.958771,-2.536030,6.196051,40.132398,16.617860,-12.915677,4635727921426726900.000000,-0.413898,-0.536402,-0.424945,0.600319,0
1.496923,-3.615316,10.538988,1.875660,3.835921,-1.030174,46.482329,2.663613,4.346416,4635731465311617000.000000,-0.812175,0.019169,-0.583095,0.002012,-1.994416,-5.161011,-5.262214,2.333344,0.067577,-3.328502,42.560605,-8.384347,18.436965,4635727062433267700.000000,0.460063,-0.692663,0.460681,0.310377,-96.562458,30.324629,-59.928304,-4.356817,0.114468,1.945609,40.499695,16.253979,-12.293078,4635727921426726900.000000,-0.428183,-0.532500,-0.431592,0.588924,0
-2.219127,-1.579195,15.750902,1.327050,3.177073,-1.024613,46.175089,3.161631,5.642826,4635731465311617000.000000,-0.804453,0.016749,-0.593704,0.009476,-3.848998,-12.482734,-4.087353,2.248265,-0.114824,-3.033691,42.759310,-6.803866,18.755977,4635727062433267700.000000,0.470783,-0.693705,0.454920,0.300308,-114.006156,-99.284769,-51.509777,1.148668,0.635547,4.286946,40.964476,15.636001,-11.636345,4635728044725374000.000000,-0.434853,-0.543746,-0.420258,0.581917,0
-6.105310,0.908646,12.662025,1.331212,2.274856,-0.659537,45.897419,3.613927,6.235117,4635731465311617000.000000,-0.798839,0.013890,-0.601196,0.015041,-11.388570,-15.194085,-1.328556,2.022633,-0.555258,-2.884360,42.966807,-5.485033,18.649987,4635727062433267700.000000,0.481379,-0.694200,0.448343,0.292147,-26.902795,-49.102521,-8.930830,0.561851,1.975774,5.948939,41.771048,13.614797,-11.448506,4635728136175091700.000000,-0.444372,-0.559761,-0.408847,0.567491,0
-12.721382,9.206184,5.469524,1.737506,3.222357,-0.694010,45.749263,4.152179,6.902882,4635731465311617000.000000,-0.790727,0.009705,-0.611705,0.021789,-17.699341,-12.117834,0.319917,1.857656,-0.859221,-2.647389,43.153949,-4.230962,18.359769,4635727062433267700.000000,0.491518,-0.694310,0.441184,0.285831,18.591209,88.778007,22.587086,0.311413,3.472815,3.373401,42.498960,11.657575,-10.728917,4635728136175091700.000000,-0.445528,-0.574208,-0.406514,0.553657,0
-46.070969,17.886221,20.059398,2.074674,11.303340,0.780742,45.166140,4.426473,9.938944,4635731465311617000.000000,-0.761171,-0.000091,-0.648076,0.024834,-14.665907,-5.477924,-2.536430,1.811242,-0.721776,-2.471399,43.284825,-3.030081,18.197839,4635727062433267700.000000,0.500968,-0.694234,0.434677,0.279512,-6.640426,58.100543,36.441547,-1.929504,0.580690,2.162046,42.850238,10.658897,-9.788333,4635728136175091700.000000,-0.454037,-0.575606,-0.406770,0.545038,0
-80.485373,25.908793,-1.002567,0.877817,10.870417,0.273322,44.062262,4.261819,14.574995,4635731483686221800.000000,-0.731068,-0.004673,-0.681786,0.026199,-5.524709,-4.518544,-6.925827,1.799767,-0.399581,-2.174665,43.437452,-2.035535,18.185634,4635727062433267700.000000,0.509529,-0.693670,0.430011,0.272567,4.980864,-18.039997,14.546173,-0.847209,0.223531,2.774277,43.087588,9.898021,-9.453731,4635728259745147900.000000,-0.461884,-0.579188,-0.402368,0.537870,0
-52.858957,7.262250,-38.971598,0.999986,-1.135765,-0.265112,43.723564,4.188110,15.994843,4635731572685799400.000000,-0.734197,-0.007528,-0.678207,0.030563,-2.186211,-7.993510,-7.617475,1.869536,-0.149155,-1.575781,43.621830,-1.278676,18.170028,4635727062433267700.000000,0.517094,-0.692089,0.427636,0.265998,31.080496,-1.755047,-2.156165,0.850632,1.677315,2.821266,43.447240,8.903367,-9.336421,4635728351460327400.000000,-0.463222,-0.589276,-0.396770,0.529861,0
-46.796830,2.937294,-18.461268,1.727342,-8.296292,0.666083,44.398152,4.361907,13.731694,4635731572685799400.000000,-0.757189,-0.013909,-0.652166,0.033927,-4.253647,-11.084181,-1.626205,1.787265,-0.017851,-1.070531,43.635307,-0.545598,18.176189,4635727062433267700.000000,0.523568,-0.689878,0.426859,0.260261,10.243875,23.807203,-1.352791,0.295440,1.244438,2.358991,43.706327,7.839806,-8.909918,4635728351460327400.000000,-0.465547,-0.596476,-0.392632,0.522803,0
-41.326736,4.780691,17.815439,1.347819,-5.647346,0.148302,45.192411,4.277638,10.867523,4635731536009500700.000000,-0.772236,-0.018011,-0.633959,0.037709,-9.400688,-13.313132,5.375416,1.534787,-0.007663,-0.657690,43.552618,0.074851,18.234463,4635727062433267700.000000,0.528811,-0.687457,0.426985,0.255823,-6.912029,12.816541,0.603571,0.484338,0.992637,1.806791,43.735519,6.809235,-8.479915,4635728289534171100.000000,-0.466567,-0.602528,-0.388926,0.517698,0
-28.459814,2.126077,23.858202,0.647706,2.257776,-0.105674,45.220019,4.069237,10.513477,4635731357937434600.000000,-0.766171,-0.020107,-0.641107,0.039486,-13.249445,-14.783391,8.572698,1.132372,-0.049844,-0.321511,43.564191,0.518984,18.198475,4635727062433267700.000000,0.532594,-0.685257,0.427532,0.252948,-7.261530,9.336158,2.019700,0.532296,1.011797,1.143792,43.861823,6.190125,-8.237778,4635728243549274100.000000,-0.465979,-0.607604,-0.386792,0.513881,0
-40.328893,0.057238,3.087238,1.015691,5.923820,-0.341320,44.685334,4.206219,12.181858,4635731357937434600.000000,-0.749967,-0.023343,-0.659684,0.042675,-15.293534,-15.324747,8.724901,0.718447,-0.145890,0.072047,43.617050,0.756859,18.073646,4635727062433267700.000000,0.534940,-0.683162,0.428544,0.251950,-16.322810,13.348853,2.746481,0.486483,0.923948,0.742773,44.118161,5.970818,-7.937405,4635728243549274100.000000,-0.464829,-0.611692,-0.385652,0.510921,0
-56.369248,1.968413,-7.102763,0.687675,2.543632,-0.525215,44.300667,4.885664,13.626148,4635731357937434600.000000,-0.742770,-0.024437,-0.667528,0.045848,-17.468212,-15.264527,6.351526,0.384450,-0.181635,0.610728,43.644213,0.688952,17.854583,4635727062433267700.000000,0.535820,-0.680819,0.430628,0.252866,-22.195849,9.526924,1.997861,0.476117,0.987071,0.248806,44.192402,5.908383,-7.439928,4635728243549274100.000000,-0.462544,-0.615083,-0.385909,0.508724,0
-52.587531,2.732352,-16.211329,0.764416,-2.568484,-0.501222,44.379873,5.430210,13.526379,4635731357937434600.000000,-0.749644,-0.025503,-0.659425,0.050412,-19.901648,-13.694088,0.923161,0.241068,-0.147211,1.248557,43.694345,0.397305,17.600991,4635727062433267700.000000,0.535539,-0.677694,0.434403,0.255386,-23.789160,8.222941,0.063294,0.287233,1.110572,-0.211780,44.222417,5.950407,-6.917008,4635728243549274100.000000,-0.459506,-0.617658,-0.387912,0.506830,0
-41.446085,1.852019,-7.495055,1.419917,-4.086233,-0.549582,44.802041,5.430501,12.152773,4635731357937434600.000000,-0.760457,-0.027802,-0.646311,0.056699,-23.095830,-13.876371,-4.896565,0.381398,-0.102241,1.993970,43.624498,-0.085610,17.523096,4635727062433267700.000000,0.534607,-0.673171,0.440118,0.259485,-26.594633,9.594108,-0.469541,-0.046837,1.072506,-0.593976,44.355085,6.030649,-6.553001,4635728243549274100.000000,-0.456572,-0.618880,-0.391520,0.505214,0
-34.461093,3.655691,7.036680,0.911154,-2.257509,-0.743829,44.969707,5.564402,10.852474,4635731321312683000.000000,-0.766188,-0.028359,-0.638991,0.061989,-27.014495,-13.468024,-6.804811,0.707476,-0.104807,2.891737,43.563466,-0.819395,17.698040,4635727032590641200.000000,0.533563,-0.666197,0.448649,0.264964,-27.724039,8.213437,2.630605,-0.221421,1.088326,-1.150429,44.380720,6.242162,-6.160173,4635728305456959500.000000,-0.452875,-0.618876,-0.396947,0.504312,0
-29.657399,3.272955,7.352864,0.825508,1.154022,-0.926954,44.842592,6.056902,10.583134,4635731143189069800.000000,-0.762761,-0.028760,-0.642567,0.066905,-33.068905,-12.621655,-5.623252,1.118765,-0.234149,3.782968,43.553322,-1.811621,17.738687,4635727014744338400.000000,0.532807,-0.656360,0.459726,0.271958,-28.968336,6.971003,6.835595,-0.467738,1.153144,-1.806282,44.300475,6.778443,-5.691096,4635728351460327400.000000,-0.448354,-0.617375,-0.404746,0.503991,0
-30.441436,1.664010,-1.325160,0.976060,2.458098,-0.793647,44.529677,6.540418,11.437566,4635731143189069800.000000,-0.755793,-0.030357,-0.650172,0.071638,-39.549704,-10.766530,-3.274672,1.452641,-0.529944,4.506621,43.634683,-3.113711,17.544050,4635727169807450100.000000,0.532844,-0.643320,0.473066,0.280045,-32.878252,6.737215,8.127427,-0.696607,1.108877,-2.460149,44.299053,7.766451,-5.283283,4635728351460327400.000000,-0.443075,-0.614184,-0.414582,0.504564,0
-32.504377,0.699141,-3.750205,1.152797,1.831475,-0.525819,44.324800,6.880137,12.225461,4635731143189069800.000000,-0.750499,-0.033045,-0.655646,0.076077,-44.020404,-4.891588,0.357194,1.507236,-0.824117,5.052249,43.630612,-4.762159,17.260609,4635727169807450100.000000,0.532589,-0.628707,0.486679,0.290207,-39.252141,0.068462,9.300168,-0.755575,1.120349,-3.206315,44.227056,9.039818,-4.756013,4635728351460327400.000000,-0.436281,-0.609512,-0.426399,0.506298,0
-31.056844,0.208490,-1.456961,1.155691,0.924132,-0.532573,44.249486,7.224257,12.608168,4635731124893972500.000000,-0.747633,-0.035434,-0.658243,0.080665,-47.081920,5.515712,3.270228,1.035035,-0.949524,5.666524,43.591281,-6.417025,16.906576,4635727169807450100.000000,0.530327,-0.613400,0.500763,0.302871,-48.025603,-10.784246,9.692113,-0.859109,1.298795,-4.204525,43.965134,10.370402,-4.046017,4635728413045231600.000000,-0.427153,-0.603131,-0.441111,0.509112,0
-27.115050,-1.310572,1.666178,1.339990,1.012272,-0.653033,44.149490,7.639268,12.627143,4635731035814887400.000000,-0.744421,-0.038093,-0.661038,0.086117,-49.246627,19.259360,0.820734,0.394953,-0.551364,6.368412,43.254945,-8.390352,16.610220,4635727169807450100.000000,0.524376,-0.598142,0.516358,0.317221,-56.313146,-21.811215,7.128754,-1.041095,1.457589,-5.311011,43.572573,12.071857,-3.464253,4635728458834509800.000000,-0.415649,-0.594464,-0.459073,0.512933,0
-20.461832,-0.364618,1.939327,1.733096,0.712080,-0.686310,43.995216,8.054328,12.798050,4635731035814887400.000000,-0.741915,-0.041769,-0.662726,0.092797,-50.705896,28.268614,-9.285377,-0.176573,-0.324909,6.606406,42.796472,-10.825700,16.490850,4635727199624305700.000000,0.515870,-0.583401,0.531966,0.332466,-60.470526,-26.256789,2.689775,-1.265610,1.277984,-5.518258,42.951143,14.077352,-3.005602,4635728458834509800.000000,-0.404364,-0.584297,-0.477457,0.516838,0
-10.378162,3.559072,4.874055,1.799562,0.034902,-0.434240,43.946925,8.454852,12.921128,4635731035814887400.000000,-0.741319,-0.046082,-0.662211,0.098994,-54.457918,15.231802,-24.543619,-0.631215,-0.342878,5.856418,42.424857,-13.339727,16.411516,4635727277181632500.000000,0.507012,-0.570847,0.544717,0.346924,-64.380528,5.256444,-4.896944,-2.844655,1.786936,-4.564394,42.243233,15.977915,-2.317678,4635728458834509800.000000,-0.397786,-0.574081,-0.497565,0.514418,8
1.769419,10.586469,16.105726,1.175178,0.878280,-0.637322,43.953649,8.786492,12.958848,4635731035814887400.000000,-0.738394,-0.048251,-0.664564,0.103928,-54.172027,-22.197278,-44.723471,0.979836,-0.814825,5.489168,41.647942,-15.022423,16.161362,4635727277181632500.000000,0.503312,-0.554695,0.557595,0.357880,-58.256675,74.143317,-38.310098,-5.855024,2.239903,-4.172480,41.746865,17.511482,-0.861293,4635728458834509800.000000,-0.398001,-0.560216,-0.523552,0.503633,8
6.769796,15.748280,37.323072,-0.316050,5.275866,-0.970951,43.461766,9.119962,14.048054,4635731035814887400.000000,-0.723248,-0.046799,-0.680977,0.104846,-31.293178,-54.412897,-53.434495,4.168694,-0.998585,4.468622,40.156033,-15.461347,15.883109,4635727277181632500.000000,0.508401,-0.533972,0.571778,0.359822,-17.672884,102.354578,-47.253677,-7.681429,2.618435,-4.760821,41.149745,18.876942,1.210820,4635728458834509800.000000,-0.399865,-0.542187,-0.554649,0.488371,8
2.011076,17.662353,36.555368,0.053907,7.844828,-0.703935,42.212394,9.381783,16.677204,4635731035814887400.000000,-0.700289,-0.048302,-0.704378,0.105424,3.428493,-47.946455,-44.094824,6.054769,-0.118800,3.945318,39.003350,-15.506095,16.476984,4635727277181632500.000000,0.515977,-0.511404,0.589043,0.353925,4.801630,32.119430,-17.857142,-8.347217,2.384970,-3.153198,40.387677,20.093634,3.478133,4635728458834509800.000000,-0.406446,-0.525471,-0.582250,0.468687,8
5.001665,18.964763,8.506046,-0.691958,2.276355,-0.164203,41.649489,9.470869,18.364771,4635731035814887400.000000,-0.693644,-0.046737,-0.711339,0.103296,12.163913,12.201326,-20.260730,5.198720,1.065940,2.146640,38.911124,-15.508886,17.893694,4635727277181632500.000000,0.521095,-0.496463,0.603331,0.343477,-12.949114,-18.661615,-7.113506,-8.737662,1.120426,1.341054,40.204642,20.144431,5.734405,4635728458834509800.000000,-0.425154,-0.515767,-0.597812,0.442549,8
25.522098,16.868312,13.902965,-1.280601,-6.684548,-0.077974,42.260865,9.439976,17.126573,4635731035814887400.000000,-0.713182,-0.041296,-0.692234,0.102363,4.195720,32.468010,-11.826126,4.911312,0.891645,-0.689401,38.591275,-14.942998,19.075863,4635727277181632500.000000,0.529854,-0.488779,0.610663,0.327782,-12.402968,23.605059,-7.858667,-7.989938,-0.330703,3.476596,40.728591,18.801660,7.405007,4635728458834509800.000000,-0.449245,-0.509324,-0.604041,0.417016,8
34.199868,9.470579,35.186253,-0.398363,-5.196922,-0.928053,42.955511,9.367759,15.004190,4635731054095183900.000000,-0.727626,-0.035450,-0.676954,0.105056,-3.693291,-21.313624,-15.754947,4.757615,0.776402,-1.700269,37.951476,-13.559469,19.784598,4635727277181632500.000000,0.539738,-0.483633,0.615202,0.310335,-3.746844,22.903084,-8.572707,-5.442657,-1.378538,3.552380,41.481983,16.904120,7.898054,4635728335471134700.000000,-0.470242,-0.505481,-0.603098,0.399543,8
18.239755,3.491269,28.878076,-0.656503,5.900629,-1.279189,42.642963,9.601226,15.442359,4635731179835196400.000000,-0.710292,-0.032359,-0.695117,0.106068,-9.316458,-14.595293,-15.363619,3.690784,0.738627,-2.620366,38.183733,-12.384688,20.411251,4635727217606612000.000000,0.548540,-0.483000,0.616174,0.293503,-9.216550,-16.819989,-8.353294,-2.490999,-1.798845,4.284113,42.244002,15.169675,7.644745,4635728305377361900.000000,-0.487009,-0.508238,-0.594503,0.388693,8
5.152078,6.533254,14.317965,-0.640716,9.816262,-1.188544,41.266506,10.082102,18.887832,4635731357937434600.000000,-0.680828,-0.031267,-0.724028,0.106203,-7.195568,10.572061,-7.616626,1.950906,0.843316,-3.280927,39.192046,-11.663085,20.907082,4635727062433267700.000000,0.554207,-0.488017,0.613736,0.279325,-16.803845,-21.901019,-1.389083,0.109704,-1.829489,5.324173,43.042842,13.383275,7.105435,4635728351460327400.000000,-0.499782,-0.518531,-0.579127,0.382041,8
-12.093454,4.110654,4.531538,-0.915607,3.901504,-0.051965,40.257370,10.198013,21.253937,4635731357937434600.000000,-0.669063,-0.030174,-0.735422,0.102949,-7.150413,20.898662,0.140064,0.298257,0.795224,-4.073978,40.199996,-10.929538,21.223744,4635727062433267700.000000,0.557402,-0.498685,0.607477,0.267560,-18.248329,-12.732275,5.194795,2.496190,-1.681246,5.881686,43.649113,11.017463,6.243413,4635728351460327400.000000,-0.507648,-0.534970,-0.558737,0.379359,8
-16.127363,0.231195,-2.298024,-0.616346,-3.021216,1.227761,40.233984,9.837188,21.173908,4635731321317079000.000000,-0.678771,-0.031541,-0.727026,0.098526,-10.342661,12.845363,3.642643,-1.012612,0.699628,-4.724887,40.789521,-9.728117,21.622446,4635727062433267700.000000,0.558939,-0.513067,0.598557,0.257058,-11.818423,-13.386337,4.692023,4.661135,-1.272261,5.944332,43.983651,8.791773,5.328162,4635728228122787800.000000,-0.509388,-0.556306,-0.535159,0.380332,8
-6.119501,-0.093521,-1.629777,-0.665378,-5.433147,1.366817,40.910403,9.336967,19.571242,4635731143189069800.000000,-0.695692,-0.031500,-0.711569,0.093217,-11.177728,6.079550,3.561776,-1.682055,0.589065,-5.016597,41.049980,-8.270643,21.891390,4635727062433267700.000000,0.559179,-0.529824,0.587427,0.248061,-5.898382,-19.312552,0.216238,6.061816,-0.778018,5.727202,44.477792,7.088453,4.646705,4635728197690074100.000000,-0.505829,-0.580348,-0.510257,0.383367,8
5.201811,0.635574,1.067893,-0.849059,-5.529556,0.740045,41.801806,8.882940,17.669289,4635731143189069800.000000,-0.712295,-0.029016,-0.695591,0.089142,-8.788245,6.756487,3.660163,-1.926813,0.421671,-4.832975,41.237198,-6.998943,21.680491,4635727062433267700.000000,0.558812,-0.546304,0.575766,0.240363,-4.020249,-19.866252,-1.575933,6.320248,-0.404075,5.178160,45.337960,5.169380,4.022268,4635728243549274100.000000,-0.499373,-0.603677,-0.486446,0.386745,8
13.209154,-2.457775,3.660414,-0.701994,-3.284707,0.291290,42.660268,8.389284,16.052636,4635731143189069800.000000,-0.721941,-0.026491,-0.686013,0.086521,-5.527423,10.508070,4.184028,-2.108135,0.271907,-4.286068,41.324116,-5.888741,21.541954,4635727062433267700.000000,0.557497,-0.561745,0.564351,0.234836,-2.230769,-16.202388,0.162212,5.873549,-0.098040,4.407645,45.870426,3.424972,3.637586,4635728243549274100.000000,-0.491655,-0.624377,-0.465413,0.389640,8
13.619458,-3.614566,3.372172,-0.638029,0.413000,-0.074211,42.940419,8.136901,15.690992,4635731143189069800.000000,-0.720804,-0.024444,-0.687502,0.084766,-2.994615,13.769318,5.650232,-2.299630,0.185409,-3.584199,41.290881,-4.811671,21.591514,4635727062433267700.000000,0.555050,-0.575693,0.553987,0.231508,-0.479829,-12.007022,2.581947,5.103444,0.056366,3.534598,45.731953,2.449402,3.634469,4635728243549274100.000000,-0.483832,-0.641556,-0.447844,0.392108,8
9.523231,-5.023954,1.288609,-0.503037,2.940968,-0.364865,42.581403,8.347066,16.445652,4635731106598876200.000000,-0.712248,-0.022860,-0.696508,0.084006,-0.615524,13.407312,5.892009,-2.527191,0.143474,-2.910066,41.293517,-4.093216,21.525211,4635727062433267700.000000,0.551342,-0.588404,0.544761,0.230299,0.337223,-9.708942,3.970129,4.185511,0.054274,2.688152,45.724032,1.543752,3.588766,4635728243549274100.000000,-0.476862,-0.654901,-0.433857,0.394303,8
4.559788,-6.098261,-0.830369,-0.645637,2.664397,-0.407479,42.076044,8.647264,17.555349,4635730928440705000.000000,-0.704390,-0.020629,-0.704645,0.082972,1.491773,9.427610,5.232649,-2.482815,0.075623,-2.312663,41.366758,-3.760630,21.429255,4635727002961317900.000000,0.547197,-0.599455,0.536760,0.230474,0.876086,-9.567657,3.687113,3.248070,-0.042125,2.048864,45.845788,0.577969,3.354965,4635728243549274100.000000,-0.471367,-0.664897,-0.422740,0.396252,8
0.350398,-6.250190,-1.163458,-0.570682,0.563164,-0.271674,41.898153,8.699191,18.243301,4635730928440705000.000000,-0.702691,-0.018287,-0.706525,0.081933,3.193185,5.135555,4.664596,-2.111980,-0.046706,-1.736999,41.487312,-3.675186,21.597519,4635726847684902900.000000,0.543606,-0.608156,0.530182,0.231399,1.404423,-9.451406,3.341572,2.309044,-0.146118,1.601479,45.396704,0.242472,3.248940,4635728243549274100.000000,-0.467827,-0.671958,-0.414126,0.397632,8
-2.526730,-6.069360,-2.691926,-0.242779,-1.343407,0.009535,42.008543,8.528290,17.943797,4635730928440705000.000000,-0.706540,-0.018104,-0.702649,0.082208,3.969678,3.771216,4.230871,-1.578992,-0.238840,-1.160984,41.707803,-3.545799,21.614066,4635726847684902900.000000,0.541367,-0.613710,0.525579,0.232484,0.735948,-8.832180,3.402323,1.526563,-0.199630,1.238978,45.064515,0.002971,3.210452,4635728243549274100.000000,-0.465924,-0.676708,-0.407678,0.398473,8
-3.515706,-5.030272,-3.479163,-0.087867,-1.815778,0.219078,42.227997,8.398950,17.141554,4635730928440705000.000000,-0.711920,-0.017800,-0.697308,0.081330,3.760643,5.973994,4.707261,-1.116100,-0.406297,-0.628815,41.798911,-3.321940,21.364700,4635726847684902900.000000,0.539949,-0.617285,0.521895,0.234605,-0.744401,-8.580124,3.150833,0.942929,-0.210417,0.972709,45.391201,-0.502809,3.006203,4635728243549274100.000000,-0.465217,-0.679822,-0.402905,0.398851,8
-3.896265,-3.898934,-2.366981,0.011137,-0.897385,0.303724,42.374229,8.445189,16.752968,4635730891897661400.000000,-0.714627,-0.018347,-0.694625,0.080418,3.975766,9.234888,5.328158,-0.958882,-0.442642,-0.120676,41.693208,-3.221979,21.028152,4635726817980451800.000000,0.538504,-0.619349,0.519576,0.237615,-1.124424,-8.242854,3.209204,0.552097,-0.198049,0.772232,45.442604,-0.515822,2.880947,4635728120622393300.000000,-0.465253,-0.681846,-0.399364,0.398916,8
-3.519593,-1.870434,-1.514266,-0.007295,0.087281,0.164160,42.445141,8.332738,16.852703,4635730713692340200.000000,-0.714433,-0.018765,-0.694886,0.079792,5.088339,10.967699,5.458475,-1.065676,-0.361994,0.360410,41.561525,-3.445944,20.890246,4635726740310720500.000000,0.536120,-0.620677,0.518562,0.241721,-0.435080,-7.307593,3.332536,0.295646,-0.204039,0.551228,44.931321,-0.312088,2.839020,4635728028800909300.000000,-0.465658,-0.682984,-0.396864,0.398992,8
-4.166933,-0.314269,-1.174234,0.002310,0.504684,0.085292,42.430610,8.130131,16.960483,4635730713692340200.000000,-0.713001,-0.019121,-0.696390,0.079397,6.245568,10.271111,4.824652,-1.263136,-0.273855,0.760578,41.568046,-4.028502,20.848408,4635726740310720500.000000,0.532615,-0.621649,0.518563,0.246913,0.447244,-6.113035,3.107351,0.015577,-0.197123,0.311832,44.717565,-0.734923,2.814690,4635728028800909300.000000,-0.466448,-0.683190,-0.395523,0.399047,8
-5.410012,1.242794,-1.247231,0.053762,0.324735,0.078645,42.359688,8.171647,17.056065,4635730713692340200.000000,-0.712083,-0.019551,-0.697341,0.079185,6.484737,7.628645,3.521471,-1.387819,-0.292785,1.085937,41.774767,-4.649449,20.641685,4635726740310720500.000000,0.528466,-0.622146,0.519212,0.253132,0.957623,-5.094961,2.672973,-0.302412,-0.199461,0.089998,44.995098,-1.248910,2.812924,4635728028800909300.000000,-0.467777,-0.682408,-0.395336,0.399016,8
-6.665767,2.829336,-1.207549,0.098110,-0.117690,0.010946,42.359688,8.361825,17.126987,4635730713692340200.000000,-0.712330,-0.020593,-0.696946,0.080179,5.883806,4.596246,2.258207,-1.321847,-0.352867,1.387630,41.952176,-5.373785,20.423774,4635726740310720500.000000,0.524268,-0.621743,0.520549,0.260014,0.621905,-4.654402,2.090399,-0.571662,-0.269722,-0.114925,45.160407,-1.155874,2.807703,4635728028800909300.000000,-0.469688,-0.680599,-0.396116,0.399088,8
-7.941588,3.606452,-0.960236,0.101453,-0.115285,-0.060444,42.359688,8.242952,17.081351,4635730713692340200.000000,-0.712639,-0.020615,-0.696585,0.080555,4.881788,2.296405,1.468829,-1.092849,-0.428524,1.653516,41.867514,-6.021565,20.338322,4635726740310720500.000000,0.520503,-0.620139,0.522620,0.267157,0.397773,-4.811781,1.728081,-0.727648,-0.292029,-0.286394,45.057376,-0.897977,2.695921,4635728028800909300.000000,-0.471789,-0.678156,-0.397593,0.399297,8
-8.537299,3.213210,-0.983527,0.107204,0.134670,-0.083839,42.361763,7.973746,16.906128,4635730713692340200.000000,-0.712214,-0.020669,-0.696967,0.080995,3.783372,1.542009,1.193452,-0.944155,-0.468107,1.840675,41.744653,-6.631125,20.171877,4635726769995159600.000000,0.516960,-0.617713,0.525216,0.274465,0.797460,-5.094167,1.513494,-0.775025,-0.281695,-0.437769,45.075104,-0.781199,2.556494,4635728028800909300.000000,-0.473706,-0.675420,-0.399520,0.399742,8
-7.903031,2.126397,-1.310335,0.139343,0.092104,-0.075919,42.357388,8.102720,17.153705,4635730713692340200.000000,-0.711913,-0.020827,-0.697211,0.081509,2.900616,1.681741,1.318893,-0.946638,-0.375045,1.942474,41.686993,-7.393599,19.823836,4635726847684902900.000000,0.513049,-0.615126,0.528229,0.281735,1.317083,-5.076365,1.361933,-0.742613,-0.273426,-0.563005,45.275719,-0.653829,2.451848,4635728028800909300.000000,-0.475301,-0.672543,-0.401754,0.400460,8
-6.739185,0.926156,-1.936138,0.031500,-0.299120,-0.044943,42.271935,8.398923,17.174896,4635730713692340200.000000,-0.712766,-0.020623,-0.696327,0.081652,1.901639,1.574333,1.365436,-1.010053,-0.197723,1.988614,41.638161,-8.394659,19.609256,4635726847684902900.000000,0.508487,-0.612729,0.531619,0.288764,1.616726,-4.825196,1.232822,-0.641098,-0.245498,-0.638334,45.326027,-0.537063,2.348981,4635728028800909300.000000,-0.476432,-0.669776,-0.404079,0.401414,8
-4.847964,-0.142340,-2.067433,0.048066,-0.733091,-0.015962,42.225867,8.459730,16.865336,4635730713692340200.000000,-0.714884,-0.020403,-0.694143,0.081794,0.937034,0.663939,1.239695,-1.015353,-0.026920,2.026490,41.542102,-9.328104,19.559633,4635726847684902900.000000,0.503442,-0.610411,0.535415,0.295424,1.454142,-4.406512,1.159703,-0.486343,-0.215288,-0.661795,45.191686,-0.458598,2.258310,4635728151665222700.000000,-0.477033,-0.667318,-0.406265,0.402585,8
-2.065724,-0.655055,-0.796550,0.147685,-0.959279,0.001269,42.415871,8.472165,16.472642,4635730713692340200.000000,-0.717644,-0.020453,-0.691240,0.082191,0.175205,-0.803525,1.287726,-0.885202,0.121580,2.099999,41.318997,-10.105206,19.544851,4635726788334670800.000000,0.498261,-0.607783,0.539822,0.301543,0.911624,-3.858890,1.159703,-0.296807,-0.182171,-0.648807,45.111577,-0.245674,2.158891,4635728243549274100.000000,-0.477111,-0.665263,-0.408229,0.403905,8
0.941620,-0.593386,0.563611,0.164671,-0.878319,0.004398,42.791727,8.518485,16.090578,4635730713692340200.000000,-0.720160,-0.020591,-0.688564,0.082620,-0.400913,-2.176280,1.397586,-0.672472,0.245828,2.214508,41.114055,-10.915016,19.459405,4635726632936538100.000000,0.493150,-0.604556,0.544994,0.307079,0.327552,-3.271246,1.152721,-0.108392,-0.125085,-0.621645,45.239023,0.155471,2.049038,4635728243549274100.000000,-0.476610,-0.663719,-0.409911,0.405330,8
3.476315,-0.330615,0.344009,0.089318,-0.558698,-0.023540,42.994473,8.418547,15.857417,4635730713692340200.000000,-0.721748,-0.020531,-0.686868,0.082889,-0.744297,-2.843047,1.534407,-0.493639,0.348325,2.331652,40.932594,-11.695367,19.454875,4635726632936538100.000000,0.488057,-0.600769,0.550847,0.312161,-0.125763,-2.924463,1.266189,0.071201,-0.061618,-0.595404,45.282439,0.535545,1.946159,4635728243549274100.000000,-0.475502,-0.662723,-0.411268,0.406883,8
5.197181,0.000606,-0.936393,-0.036097,-0.310345,-0.100093,42.953108,8.276619,15.876031,4635730713692340200.000000,-0.722608,-0.019961,-0.685966,0.083008,-1.044985,-2.824564,1.758812,-0.417858,0.464468,2.424790,40.603775,-12.537752,19.662419,4635726632936538100.000000,0.482716,-0.596702,0.557211,0.316934,-0.355815,-2.940316,1.355022,0.281653,-0.005006,-0.567628,45.100996,0.755190,1.792644,4635728182137375700.000000,-0.473759,-0.662285,-0.412299,0.408584,8
6.110296,0.178976,-1.636878,-0.075640,-0.280716,-0.172058,42.750328,8.317965,15.932139,4635730750059352100.000000,-0.723359,-0.019077,-0.685172,0.083229,-1.648720,-3.030591,2.061085,-0.385396,0.554746,2.465397,40.216524,-13.400266,19.815988,4635726603277867000.000000,0.477138,-0.592529,0.563839,0.321455,-0.409826,-2.884328,1.334076,0.504735,0.050384,-0.537874,44.989505,0.999426,1.820747,4635728136175091700.000000,-0.471352,-0.662426,-0.412976,0.410451,8
6.150712,0.142150,-1.336610,-0.072687,-0.322691,-0.191799,42.777215,8.564201,15.724598,4635730928440705000.000000,-0.724222,-0.018130,-0.684250,0.083521,-2.383091,-3.592900,2.468543,-0.287720,0.545392,2.455807,39.834756,-14.295516,19.855161,4635726525562355700.000000,0.471783,-0.588106,0.570493,0.325714,-0.512775,-2.593068,1.374242,0.692986,0.093247,-0.511481,45.033142,1.316775,1.953217,4635728136175091700.000000,-0.468392,-0.663047,-0.413339,0.412466,8
5.466773,0.009361,-1.386807,-0.087028,-0.288902,-0.138371,42.894554,8.777122,15.568768,4635730928440705000.000000,-0.724845,-0.018614,-0.683395,0.084997,-2.629143,-3.978795,2.738191,-0.115407,0.419692,2.381561,39.467716,-15.114232,20.018961,4635726525562355700.000000,0.467199,-0.583288,0.576892,0.329690,-0.655745,-2.260027,1.339290,0.822807,0.113990,-0.480809,45.020879,1.452681,1.989807,4635728136175091700.000000,-0.465084,-0.664001,-0.413428,0.414580,8
4.652817,-0.308226,-1.788482,-0.074521,-0.214742,-0.011996,42.809101,8.762653,15.633355,4635730928440705000.000000,-0.725461,-0.018210,-0.682785,0.084734,-2.336175,-4.023798,2.625044,-0.055407,0.221207,2.228965,39.206357,-15.847473,20.270208,4635726525562355700.000000,0.463404,-0.578393,0.582561,0.333677,-0.735942,-2.075241,1.288756,0.916947,0.121617,-0.451669,44.984280,1.452681,2.045632,4635728136175091700.000000,-0.461544,-0.665189,-0.413282,0.416771,8
3.775561,-0.682522,-1.773428,-0.050169,-0.179551,0.163181,42.752587,8.677202,15.504690,4635730892078057500.000000,-0.726036,-0.018390,-0.682258,0.084008,-2.066816,-3.952662,2.715513,-0.108407,0.039875,2.066442,39.016087,-16.518799,20.295837,4635726525562355700.000000,0.460109,-0.573697,0.587369,0.337888,-0.763837,-2.129344,1.321895,1.017809,0.114747,-0.434429,44.991257,1.585254,2.247949,4635728197548334100.000000,-0.457805,-0.666530,-0.412967,0.419060,8
2.807467,-0.976592,-1.587538,-0.037532,-0.238255,0.325511,42.823570,8.577288,15.256996,4635730713692340200.000000,-0.726832,-0.019049,-0.681536,0.082832,-1.926666,-3.966152,2.482290,-0.183798,-0.102805,1.893857,38.710931,-17.190148,20.076961,4635726525562355700.000000,0.457195,-0.569328,0.591345,0.342271,-0.692304,-2.253160,1.314901,1.111960,0.084069,-0.431227,44.947639,1.824189,2.479890,4635728243549274100.000000,-0.453855,-0.667984,-0.412414,0.421578,8
1.998699,-0.955949,-1.823747,-0.022714,-0.416363,0.413451,42.850407,8.406415,15.136465,4635730713692340200.000000,-0.728160,-0.019941,-0.680259,0.081445,-1.906039,-4.335310,1.724614,-0.251567,-0.270904,1.694378,38.405756,-17.861532,19.850081,4635726555182375900.000000,0.454793,-0.565307,0.594398,0.346819,-0.558025,-2.169385,1.342832,1.166730,0.039359,-0.435653,44.994775,2.019486,2.500751,4635728243549274100.000000,-0.449810,-0.669439,-0.411683,0.424311,8
1.554286,-0.835930,-2.035833,0.010269,-0.692312,0.437185,43.023572,8.235497,14.812484,4635730713692340200.000000,-0.730269,-0.020907,-0.678125,0.080103,-1.711585,-4.751197,1.136579,-0.241410,-0.414246,1.519325,38.140994,-18.485751,19.791567,4635726632936538100.000000,0.453000,-0.561466,0.596753,0.351331,-0.340020,-1.977573,1.253841,1.187477,-0.000921,-0.439772,45.190099,2.317725,2.335070,4635728243549274100.000000,-0.445756,-0.670838,-0.410838,0.427189,8
1.542612,-0.736396,-1.573831,0.048758,-0.935221,0.414679,43.238797,8.050168,14.385986,4635730713692340200.000000,-0.733042,-0.021845,-0.675232,0.078958,-1.488894,-4.811825,0.962686,-0.151427,-0.535464,1.376559,38.029428,-18.939124,19.722979,4635726632936538100.000000,0.451909,-0.557609,0.598652,0.355619,-0.198803,-1.925285,1.145750,1.157867,-0.046545,-0.455796,45.233653,2.671705,2.078721,4635728243549274100.000000,-0.441774,-0.672102,-0.409918,0.430211,8
