Accelerometer-X,Accelerometer-Y,Accelerometer-Z,Gyroscope-X,Gyroscope-Y,Gyroscope-Z,Magnetometer-X,Magnetometer-Y,Magnetometer-Z,Barometer-pressure,Orientation-S,Orientation-X,Orientation-Y,Orientation-Z,Accelerometer-X,Accelerometer-Y,Accelerometer-Z,Gyroscope-X,Gyroscope-Y,Gyroscope-Z,Magnetometer-X,Magnetometer-Y,Magnetometer-Z,Barometer-pressure,Orientation-S,Orientation-X,Orientation-Y,Orientation-Z,Accelerometer-X,Accelerometer-Y,Accelerometer-Z,Gyroscope-X,Gyroscope-Y,Gyroscope-Z,Magnetometer-X,Magnetometer-Y,Magnetometer-Z,Barometer-pressure,Orientation-S,Orientation-X,Orientation-Y,Orientation-Z,jump
-9.880129,-0.183892,1.701949,0.105023,-0.199744,-0.177482,42.964159,-14.655565,8.942095,4635731250563252200.000000,0.730685,-0.131527,0.642925,0.188274,-9.643848,-0.106446,-2.217643,0.075454,-0.166571,-0.092245,43.108051,-17.078157,-0.400108,4635727062433267700.000000,-0.230024,0.694378,-0.439518,-0.521299,-10.342002,-0.546440,-1.386518,0.242388,0.222061,-0.004313,42.234822,14.304282,10.519987,4635728888331239400.000000,0.575997,0.373711,0.626662,-0.368596,0
-9.993137,-0.037018,1.673202,0.102542,-0.215421,-0.148059,43.078351,-14.527598,8.805869,4635731250563252200.000000,0.731490,-0.131315,0.642280,0.187498,-9.618069,-0.042385,-2.238733,0.063876,-0.159360,-0.091416,43.067719,-17.078157,-0.354015,4635727062433267700.000000,-0.230647,0.694065,-0.439293,-0.521630,-10.295789,0.251249,-1.508111,0.200826,0.207581,0.004403,42.310201,14.248843,10.454486,4635728888331239400.000000,0.575100,0.374508,0.626910,-0.368765,0
-10.096705,0.215405,1.562152,0.099855,-0.248775,-0.132071,43.177586,-14.477981,8.903530,4635731250563252200.000000,0.732368,-0.131043,0.641539,0.186796,-9.659462,-0.107510,-2.248519,0.053527,-0.159452,-0.089546,43.112829,-16.987937,-0.560232,4635727062433267700.000000,-0.231231,0.693761,-0.439044,-0.521985,-10.228320,0.762958,-1.387192,0.146106,0.184646,0.013265,42.192252,14.233832,10.447393,4635728888331239400.000000,0.574362,0.375161,0.627173,-0.368805,0
-10.142381,0.485906,1.420799,0.086281,-0.272066,-0.128453,43.177586,-14.477981,8.919290,4635731250563252200.000000,0.733297,-0.130784,0.640717,0.186154,-9.684872,-0.235347,-2.165792,0.057235,-0.157728,-0.074115,43.069394,-16.913697,-0.796206,4635727062433267700.000000,-0.231785,0.693432,-0.438844,-0.522344,-10.086781,0.822185,-1.173893,0.105025,0.177876,0.027281,42.103994,14.163393,10.610541,4635728888331239400.000000,0.573727,0.375741,0.627460,-0.368714,0
-10.110506,0.650136,1.378634,0.066366,-0.280648,-0.132105,43.172469,-14.375639,8.693712,4635731250563252200.000000,0.734239,-0.130589,0.639850,0.185557,-9.604508,-0.350969,-2.238712,0.067769,-0.155624,-0.057946,42.988029,-16.874356,-0.842311,4635727062433267700.000000,-0.232329,0.693068,-0.438715,-0.522694,-9.706747,0.475805,-1.306334,0.057772,0.174671,0.023745,42.231989,14.158442,10.795778,4635728888331239400.000000,0.573168,0.376193,0.627817,-0.368514,0
-9.990399,0.594642,1.469208,0.054545,-0.276995,-0.131004,43.231908,-14.233832,8.459730,4635731250563252200.000000,0.735162,-0.130430,0.638985,0.184994,-9.635711,-0.428616,-2.267864,0.093878,-0.171556,-0.046079,43.027366,-16.743809,-0.842311,4635727062433267700.000000,-0.232949,0.692624,-0.438660,-0.523054,-9.581335,0.604069,-1.232141,0.008638,0.156501,0.029474,42.332458,14.029791,10.988947,4635728888331239400.000000,0.572742,0.376515,0.628197,-0.368200,0
-9.840769,0.396185,1.536160,0.046173,-0.275410,-0.120221,43.359895,-14.269654,8.541607,4635731340584942600.000000,0.736066,-0.130269,0.638124,0.184484,-9.679114,-0.335703,-2.034905,0.116220,-0.167996,-0.030501,43.112819,-16.663105,-0.893854,4635727062433267700.000000,-0.233590,0.692138,-0.438698,-0.523378,-9.711462,0.777789,-1.027430,-0.007043,0.143061,0.048583,42.156316,13.931463,11.023285,4635728888331239400.000000,0.572405,0.376828,0.628539,-0.367820,0
-9.639184,0.150890,1.586154,0.040590,-0.272174,-0.106784,43.409527,-14.355098,8.537377,4635731465311617000.000000,0.736947,-0.130092,0.637274,0.184028,-9.520773,-0.186846,-1.861291,0.120078,-0.150936,-0.013412,43.198265,-16.746852,-0.888434,4635727062433267700.000000,-0.234174,0.691653,-0.438811,-0.523663,-9.671088,0.524007,-1.119580,-0.012066,0.145397,0.057621,42.045121,13.976800,10.952865,4635728888331239400.000000,0.572083,0.377155,0.628880,-0.367403,0
-9.384798,-0.104303,1.676724,0.050886,-0.254329,-0.093965,43.302082,-14.374037,8.210553,4635731465311617000.000000,0.737775,-0.129864,0.636494,0.183574,-9.380376,-0.262434,-1.907056,0.110110,-0.151350,-0.007032,43.238621,-16.821802,-0.887400,4635727062433267700.000000,-0.234717,0.691163,-0.438923,-0.523972,-9.535339,0.353224,-1.167616,-0.002255,0.141055,0.062269,42.150807,14.120461,10.847295,4635728888331239400.000000,0.571764,0.377511,0.629188,-0.367007,0
-9.136716,-0.277981,1.723220,0.076347,-0.221635,-0.081149,43.117362,-14.295682,7.901792,4635731465311617000.000000,0.738519,-0.129548,0.635839,0.183073,-9.453258,-0.353339,-1.875888,0.095779,-0.154318,-0.012491,43.193533,-16.911982,-0.876232,4635727062433267700.000000,-0.235237,0.690690,-0.438986,-0.524311,-9.489448,0.681693,-1.010954,0.001760,0.132005,0.074464,42.246998,14.088022,10.827967,4635728888331239400.000000,0.571481,0.377894,0.629449,-0.366606,0
-8.973259,-0.306002,1.673232,0.099022,-0.190172,-0.071464,43.139328,-14.174430,7.824128,4635731465311617000.000000,0.739183,-0.129160,0.635304,0.182526,-9.501779,-0.225877,-1.800255,0.079017,-0.145924,-0.010387,43.159612,-17.082874,-0.830103,4635727062433267700.000000,-0.235687,0.690248,-0.439026,-0.524658,-9.525387,0.746800,-0.855889,0.001256,0.122393,0.085708,42.131268,13.944375,10.838025,4635728888331239400.000000,0.571240,0.378290,0.629669,-0.366193,0
-8.923612,-0.159187,1.582672,0.108951,-0.185540,-0.067466,43.305106,-14.008653,7.909574,4635731465311617000.000000,0.739836,-0.128736,0.634792,0.181961,-9.427866,-0.096314,-1.891087,0.057596,-0.136042,-0.005341,43.242657,-16.983292,-0.933142,4635727062433267700.000000,-0.236046,0.689838,-0.439044,-0.525020,-9.433399,0.463018,-0.679229,0.037152,0.127742,0.091989,42.113391,13.916440,10.920641,4635728888331239400.000000,0.570939,0.378796,0.629838,-0.365851,0
-8.959406,-0.014188,1.510585,0.116557,-0.211579,-0.059961,43.366638,-13.982916,8.005249,4635731465311617000.000000,0.740554,-0.128248,0.634209,0.181413,-9.406813,-0.124764,-2.054878,0.042491,-0.136899,-0.008158,43.395585,-16.693004,-1.076941,4635727062433267700.000000,-0.236369,0.689447,-0.439018,-0.525410,-9.381733,0.443078,-0.606759,0.086227,0.131006,0.098209,42.175891,14.177956,11.008241,4635728888331239400.000000,0.570560,0.379439,0.629930,-0.365618,0
-9.044857,-0.035793,1.417717,0.132031,-0.250479,-0.044113,43.288280,-14.110929,7.987281,4635731465311617000.000000,0.741371,-0.127641,0.633525,0.180893,-9.456311,-0.190221,-2.098332,0.039580,-0.138801,-0.008428,43.431928,-16.661362,-1.071568,4635727062433267700.000000,-0.236685,0.689055,-0.438983,-0.525811,-9.435629,0.682988,-0.638391,0.113545,0.121702,0.103738,42.118385,14.233832,11.023285,4635728888331239400.000000,0.570170,0.380146,0.629949,-0.365458,0
-9.176332,-0.121246,1.318400,0.145123,-0.281947,-0.030154,43.335778,-14.129907,7.791959,4635731465311617000.000000,0.742266,-0.126933,0.632761,0.180399,-9.485152,-0.252595,-2.120328,0.047350,-0.136664,-0.004719,43.313619,-16.781419,-0.973914,4635727062433267700.000000,-0.237011,0.688654,-0.438976,-0.526195,-9.498809,0.833001,-0.737493,0.118376,0.116993,0.107318,42.043000,14.163443,11.103730,4635728888331239400.000000,0.569790,0.380867,0.629943,-0.365309,0
-9.397226,-0.155562,1.436019,0.166342,-0.298663,-0.025462,43.542157,-14.051546,7.673343,4635731465311617000.000000,0.743210,-0.126135,0.631962,0.179871,-9.523783,-0.280101,-2.141395,0.065238,-0.138472,-0.002078,43.193553,-16.738102,-1.037216,4635727062433267700.000000,-0.237386,0.688225,-0.439016,-0.526554,-9.650342,0.683577,-0.867468,0.121204,0.120827,0.111402,42.100476,14.017660,11.201388,4635728888331239400.000000,0.569401,0.381611,0.629935,-0.365153,0
-9.648501,0.003840,1.660557,0.182826,-0.296986,-0.031180,43.605658,-14.001891,7.707174,4635731465311617000.000000,0.744160,-0.125302,0.631176,0.179281,-9.590585,-0.223499,-2.098338,0.086541,-0.142685,-0.000505,43.198234,-16.746795,-1.283355,4635727062433267700.000000,-0.237825,0.687764,-0.439101,-0.526888,-9.811175,0.415746,-0.981628,0.144642,0.127927,0.114795,42.185920,13.929359,11.299038,4635728888331239400.000000,0.568961,0.382429,0.629903,-0.365039,0
-9.856848,0.328340,1.725194,0.175318,-0.283852,-0.040071,43.484389,-13.930264,7.682049,4635731465311617000.000000,0.745077,-0.124525,0.630420,0.178675,-9.600123,-0.105867,-2.030200,0.096697,-0.139694,0.000563,43.283680,-16.956979,-1.409622,4635727062433267700.000000,-0.238285,0.687296,-0.439216,-0.527195,-9.889436,0.386330,-1.111600,0.155699,0.137163,0.110961,42.200993,13.976763,11.316263,4635728888331239400.000000,0.568473,0.383277,0.629882,-0.364947,0
-9.989960,0.558753,1.727524,0.160812,-0.277515,-0.049166,43.385113,-13.800293,7.445810,4635731420313654300.000000,0.745975,-0.123822,0.629666,0.178076,-9.589249,-0.023748,-2.002681,0.096638,-0.136218,-0.000622,43.324074,-17.123216,-1.307297,4635727062433267700.000000,-0.238745,0.686833,-0.439336,-0.527489,-9.890150,0.742524,-1.145342,0.135025,0.131821,0.108260,42.261317,13.929361,11.235832,4635728799898620900.000000,0.568027,0.384059,0.629883,-0.364817,0
-10.051807,0.632807,1.805877,0.143794,-0.259226,-0.060192,43.487408,-13.757744,7.275612,4635731357937434600.000000,0.746822,-0.123214,0.628950,0.177477,-9.652945,-0.012207,-2.001349,0.098386,-0.140102,-0.007205,43.279020,-17.028448,-1.375209,4635727062433267700.000000,-0.239232,0.686372,-0.439437,-0.527784,-9.877944,0.978740,-1.006758,0.118879,0.124157,0.110522,42.344606,13.725438,11.057760,4635728780957057000.000000,0.567629,0.384797,0.629887,-0.364651,0
-10.043553,0.590721,1.870872,0.121982,-0.219641,-0.069633,43.562757,-13.793553,7.234688,4635731357937434600.000000,0.747559,-0.122728,0.628335,0.176885,-9.717757,0.058583,-1.944758,0.096464,-0.141442,-0.012313,43.238621,-16.733495,-1.616686,4635727062433267700.000000,-0.239721,0.685924,-0.439511,-0.528083,-9.865737,0.912690,-0.956487,0.116428,0.121078,0.111967,42.229007,13.614132,11.103705,4635728780957057000.000000,0.567246,0.385528,0.629884,-0.364480,0
-9.996703,0.446216,1.933067,0.102238,-0.174120,-0.074496,43.434758,-13.879000,7.183068,4635731357937434600.000000,0.748170,-0.122350,0.627845,0.176306,-9.709994,0.102767,-1.891484,0.091240,-0.133170,-0.016196,43.232185,-16.442508,-1.663988,4635727062433267700.000000,-0.240188,0.685506,-0.439570,-0.528365,-9.763057,0.860983,-1.022545,0.122585,0.125099,0.106878,42.140680,13.729730,11.442623,4635728780957057000.000000,0.566833,0.386266,0.629890,-0.364331,0
-9.894757,0.292645,1.984693,0.089796,-0.150854,-0.070397,43.451596,-13.892848,7.185047,4635731357937434600.000000,0.748709,-0.122017,0.627419,0.175761,-9.660505,0.008235,-1.860636,0.093666,-0.128799,-0.020353,43.187806,-16.411385,-1.572107,4635727062433267700.000000,-0.240666,0.685100,-0.439631,-0.528623,-9.751559,0.995236,-1.057732,0.115990,0.122524,0.103108,42.127750,13.948717,11.581940,4635728780957057000.000000,0.566432,0.386974,0.629905,-0.364178,0
-9.741183,0.166618,1.946918,0.082320,-0.140794,-0.061477,43.579603,-13.843195,7.177953,4635731357937434600.000000,0.749211,-0.121692,0.627024,0.175257,-9.586614,-0.073902,-1.811155,0.097764,-0.131440,-0.026991,43.069548,-16.627285,-1.570953,4635727062433267700.000000,-0.241178,0.684693,-0.439682,-0.528874,-9.824072,0.924912,-1.072095,0.089667,0.120010,0.098145,42.188055,14.060041,11.516625,4635728780957057000.000000,0.566072,0.387602,0.629962,-0.363972,0
-9.558927,0.120091,1.904355,0.075738,-0.126535,-0.048934,43.557691,-13.807411,7.137057,4635731357937434600.000000,0.749662,-0.121365,0.626675,0.174802,-9.514030,-0.014701,-1.788713,0.092079,-0.129636,-0.038235,43.078089,-16.703534,-1.508467,4635727062433267700.000000,-0.241694,0.684317,-0.439691,-0.529118,-9.738657,0.662124,-1.044098,0.085263,0.124030,0.092804,42.200993,14.004779,11.499373,4635728780957057000.000000,0.565700,0.388211,0.630044,-0.363760,0
-9.362781,0.134281,1.863465,0.065478,-0.105968,-0.035570,43.494134,-13.721965,7.080294,4635731357937434600.000000,0.750044,-0.121051,0.626389,0.174405,-9.459428,0.029536,-1.839506,0.084269,-0.129360,-0.045482,43.243205,-16.701691,-1.416059,4635727062433267700.000000,-0.242205,0.683962,-0.439662,-0.529368,-9.696994,0.720918,-1.077828,0.096883,0.128491,0.093619,42.211042,13.859037,11.509424,4635728780957057000.000000,0.565298,0.388856,0.630117,-0.363569,0
-9.241844,0.154729,1.776025,0.044809,-0.092482,-0.021163,43.579591,-13.641621,7.034288,4635731357937434600.000000,0.750370,-0.120773,0.626138,0.174100,-9.417031,-0.071388,-1.860649,0.083373,-0.134758,-0.051500,43.369087,-16.826375,-1.563959,4635727062433267700.000000,-0.242734,0.683607,-0.439608,-0.529629,-9.793174,0.935593,-1.166855,0.101096,0.123091,0.090480,42.213200,13.770691,11.431185,4635728780957057000.000000,0.564898,0.389493,0.630175,-0.363406,0
-9.176841,0.203557,1.738563,0.020069,-0.095439,-0.010482,43.593480,-13.634827,6.934647,4635731357937434600.000000,0.750682,-0.120543,0.625865,0.173895,-9.438287,-0.146489,-1.881905,0.094513,-0.143981,-0.058920,43.280904,-16.907253,-1.754709,4635727062433267700.000000,-0.243326,0.683234,-0.439546,-0.529889,-9.814753,0.986642,-1.194168,0.090922,0.120010,0.085328,42.012209,13.747694,11.494319,4635728780957057000.000000,0.564515,0.390088,0.630250,-0.363234,0
-9.114670,0.252382,1.776321,-0.001193,-0.098170,-0.003825,43.610242,-13.715161,6.966741,4635731357937434600.000000,0.750986,-0.120360,0.625571,0.173766,-9.517957,-0.140058,-1.948714,0.108112,-0.151229,-0.060265,43.158948,-16.772216,-1.806696,4635727062433267700.000000,-0.243970,0.682837,-0.439499,-0.530145,-9.664028,0.878268,-1.166180,0.086898,0.123149,0.077350,41.979099,13.614908,11.672355,4635728780957057000.000000,0.564117,0.390657,0.630351,-0.363064,0
-9.047671,0.316549,1.829125,-0.023378,-0.092382,-0.004993,43.707614,-13.686187,7.156962,4635731357937434600.000000,0.751263,-0.120254,0.625279,0.173689,-9.506959,-0.102133,-1.894014,0.111593,-0.148244,-0.059873,43.281765,-16.605891,-1.858133,4635727062433267700.000000,-0.244611,0.682444,-0.439458,-0.530389,-9.561305,0.874614,-1.209944,0.082124,0.118630,0.072322,42.182220,13.335638,11.706900,4635728780957057000.000000,0.563732,0.391195,0.630457,-0.362901,0
-9.033479,0.376443,1.868871,-0.051148,-0.091339,-0.010607,43.709600,-13.520402,7.176525,4635731357937434600.000000,0.751528,-0.120251,0.624968,0.173666,-9.422159,-0.098963,-1.780325,0.106587,-0.148138,-0.065948,43.525913,-16.610454,-1.846488,4635727062433267700.000000,-0.245249,0.682070,-0.439386,-0.530636,-9.636622,1.079894,-1.270981,0.060078,0.108704,0.068928,42.225407,13.412280,11.626515,4635728780957057000.000000,0.563402,0.391655,0.630578,-0.362705,0
-9.007933,0.365091,1.889028,-0.080258,-0.101324,-0.017636,43.702503,-13.499671,6.897496,4635731357937434600.000000,0.751809,-0.120350,0.624601,0.173702,-9.406780,-0.179934,-1.777803,0.101980,-0.154490,-0.074998,43.641468,-16.650898,-1.698055,4635727062433267700.000000,-0.245907,0.681700,-0.439273,-0.530899,-9.726384,1.163269,-1.271731,0.037083,0.095386,0.070120,42.084752,13.701570,11.609241,4635728780957057000.000000,0.563147,0.392045,0.630701,-0.362467,0
-8.952006,0.314273,1.862624,-0.111233,-0.114042,-0.024045,43.768918,-13.670572,6.641687,4635731357937434600.000000,0.752112,-0.120554,0.624169,0.173804,-9.404831,-0.219084,-1.761698,0.098099,-0.159830,-0.084668,43.512904,-16.605901,-1.662803,4635727062433267700.000000,-0.246585,0.681338,-0.439121,-0.531175,-9.711368,1.041305,-1.189197,0.024322,0.090292,0.073135,42.185109,13.687417,11.679567,4635728780957057000.000000,0.562931,0.392404,0.630826,-0.362198,0
-8.938939,0.257214,1.881071,-0.135952,-0.124103,-0.026878,43.825436,-13.698423,6.627762,4635731357937434600.000000,0.752429,-0.120835,0.623686,0.173966,-9.387493,-0.123959,-1.689103,0.083816,-0.163483,-0.095349,43.397320,-16.520449,-1.914738,4635727062433267700.000000,-0.247251,0.681003,-0.438901,-0.531476,-9.674746,0.983075,-1.091538,0.011003,0.084450,0.088647,42.353854,13.551732,11.694693,4635728780957057000.000000,0.562774,0.392764,0.630932,-0.361866,0
-8.990884,0.146227,1.926779,-0.147503,-0.135231,-0.020272,43.745099,-13.527532,6.677450,4635731357937434600.000000,0.752765,-0.121128,0.623163,0.174185,-9.426057,0.047582,-1.666634,0.055705,-0.165057,-0.112779,43.397320,-16.441429,-2.099673,4635727062433267700.000000,-0.247876,0.680727,-0.438565,-0.531817,-9.628081,1.006728,-0.963752,-0.017824,0.070131,0.110319,42.253513,13.586076,11.704738,4635728780957057000.000000,0.562735,0.393091,0.631012,-0.361432,0
-9.053912,-0.010479,2.007385,-0.151950,-0.148768,-0.004772,43.666745,-13.469010,6.554851,4635731357937434600.000000,0.753121,-0.121385,0.622603,0.174470,-9.486444,0.134281,-1.698121,0.030524,-0.161627,-0.128404,43.397320,-16.361763,-1.945432,4635727062433267700.000000,-0.248459,0.680511,-0.438134,-0.532176,-9.508937,0.942898,-0.769203,-0.035805,0.067293,0.135387,42.225407,13.398145,11.787261,4635728780957057000.000000,0.562771,0.393437,0.631071,-0.360896,0
-9.102736,-0.181365,2.120102,-0.148898,-0.157192,0.020262,43.652800,-13.592194,6.430435,4635731357937434600.000000,0.753482,-0.121561,0.622031,0.174830,-9.580261,0.005747,-1.721244,0.019619,-0.153025,-0.136949,43.352332,-16.321299,-1.761709,4635727062433267700.000000,-0.249017,0.680337,-0.437669,-0.532520,-9.354565,0.907672,-0.631993,-0.040211,0.066414,0.166296,42.366041,13.234357,11.874875,4635728780957057000.000000,0.562862,0.393852,0.631084,-0.360278,0
-9.131138,-0.342034,2.015764,-0.131789,-0.159523,0.056050,43.702503,-13.684499,6.576024,4635731268126075900.000000,0.753830,-0.121590,0.621482,0.175259,-9.656700,-0.186978,-1.669836,0.017090,-0.145099,-0.147180,43.356849,-16.366280,-1.920448,4635727062433267700.000000,-0.249575,0.680203,-0.437175,-0.532836,-9.396764,0.923436,-0.670634,-0.046742,0.058316,0.197458,42.326004,13.268674,11.900054,4635728780957057000.000000,0.563031,0.394321,0.631037,-0.359583,0
-9.177086,-0.503839,1.790268,-0.108115,-0.172982,0.098699,43.666765,-13.648762,6.567129,4635731143189069800.000000,0.754194,-0.121423,0.620930,0.175768,-9.616861,-0.179252,-1.604309,0.009782,-0.135317,-0.159492,43.442295,-16.406750,-2.099673,4635727062433267700.000000,-0.250120,0.680122,-0.436638,-0.533125,-9.532432,0.616409,-0.874444,-0.049824,0.054854,0.224040,42.250596,13.281654,11.982567,4635728869299478500.000000,0.563254,0.394847,0.630941,-0.358823,0
-9.297156,-0.651208,1.764080,-0.088365,-0.194616,0.143908,43.617050,-13.706247,6.320108,4635731143189069800.000000,0.754589,-0.121063,0.620346,0.176378,-9.538478,-0.135568,-1.619089,-0.006353,-0.117439,-0.171185,43.521321,-16.316796,-1.996869,4635727062433267700.000000,-0.250613,0.680116,-0.436052,-0.533380,-9.628702,-0.033200,-1.066210,-0.000110,0.077325,0.252312,42.237614,13.151087,11.999877,4635728888331239400.000000,0.563377,0.395597,0.630777,-0.358090,0
-9.436525,-0.651893,1.878141,-0.076810,-0.206056,0.183056,43.683394,-13.957468,6.218672,4635731143189069800.000000,0.754990,-0.120556,0.619755,0.177086,-9.580236,-0.274337,-1.737942,-0.009895,-0.109063,-0.175682,43.466073,-16.145903,-2.058543,4635727062433267700.000000,-0.251089,0.680142,-0.435452,-0.533613,-9.694061,-0.439885,-1.349728,0.069555,0.108609,0.276755,42.237614,13.122958,11.839198,4635728888331239400.000000,0.563339,0.396621,0.630542,-0.357432,0
-9.557491,-0.492109,1.987804,-0.066112,-0.201162,0.215003,43.704314,-14.033220,6.103318,4635731143189069800.000000,0.755359,-0.119937,0.619203,0.177865,-9.650272,-0.449083,-1.857441,0.006462,-0.116146,-0.171242,43.391536,-16.109904,-2.351485,4635727062433267700.000000,-0.251612,0.680128,-0.434891,-0.533841,-9.905730,-0.128942,-1.554485,0.100700,0.105505,0.299375,42.227572,13.122958,11.643884,4635728888331239400.000000,0.563291,0.397771,0.630214,-0.356807,0
-9.597023,-0.225376,1.950996,-0.056437,-0.193319,0.238484,43.604843,-13.940855,5.932798,4635731143189069800.000000,0.755693,-0.119233,0.618693,0.178688,-9.566133,-0.499865,-1.866455,0.034513,-0.121263,-0.162641,43.480820,-16.233895,-2.438925,4635727062433267700.000000,-0.252205,0.680057,-0.434412,-0.534042,-10.079582,0.413112,-1.526709,0.102042,0.096581,0.320928,42.305745,12.992409,11.689578,4635728888331239400.000000,0.563294,0.398967,0.629827,-0.356149,0
-9.587913,0.089812,1.879940,-0.063036,-0.183180,0.249149,43.711963,-14.114287,5.937899,4635731143189069800.000000,0.755989,-0.118530,0.618216,0.179557,-9.465883,-0.469027,-1.849741,0.075494,-0.125141,-0.151904,43.639514,-16.225592,-2.341267,4635727062433267700.000000,-0.252898,0.679913,-0.434052,-0.534190,-9.987238,0.783818,-1.473554,0.094445,0.099458,0.343167,42.393355,12.773483,11.867556,4635728888331239400.000000,0.563334,0.400207,0.629420,-0.355414,0
-9.605221,0.298253,1.828931,-0.079424,-0.183019,0.250122,43.789786,-14.355906,5.945005,4635731143189069800.000000,0.756274,-0.117876,0.617726,0.180471,-9.525598,-0.483786,-1.836258,0.119624,-0.129302,-0.141279,43.714710,-16.015526,-2.397749,4635727062433267700.000000,-0.253697,0.679696,-0.433813,-0.534282,-9.890965,0.962785,-1.535165,0.070089,0.089864,0.365596,42.478794,12.601808,11.902218,4635728888331239400.000000,0.563472,0.401433,0.628987,-0.354578,0
-9.583727,0.446747,1.660948,-0.102573,-0.189333,0.247986,43.588277,-14.284493,5.863390,4635731143189069800.000000,0.756564,-0.117295,0.617198,0.181440,-9.678510,-0.525556,-1.626233,0.162461,-0.125256,-0.127732,43.669755,-15.849083,-2.541689,4635727062433267700.000000,-0.254579,0.679418,-0.433710,-0.534300,-9.795475,0.928564,-1.761165,0.087996,0.074412,0.379242,42.493969,12.513389,11.831943,4635728888331239400.000000,0.563639,0.402713,0.628468,-0.353782,0
-9.518681,0.458614,1.592230,-0.125976,-0.183612,0.252544,43.548155,-14.256407,5.790490,4635731143189069800.000000,0.756822,-0.116782,0.616671,0.182480,-9.766558,-0.524283,-1.311407,0.213501,-0.115644,-0.114576,43.584309,-15.853538,-2.536597,4635727062433267700.000000,-0.255560,0.679081,-0.433772,-0.534210,-9.587406,0.614413,-2.087762,0.211504,0.116361,0.390112,42.433742,12.369886,11.977376,4635728711744901100.000000,0.563503,0.404371,0.627844,-0.353213,0
-9.497360,0.243820,1.705022,-0.148948,-0.176610,0.269553,43.695396,-14.457908,5.852446,4635731143189069800.000000,0.757037,-0.116302,0.616156,0.183629,-9.681817,-0.525553,-1.241906,0.259435,-0.112211,-0.106648,43.505282,-15.938985,-2.438943,4635727062433267700.000000,-0.256647,0.678687,-0.433961,-0.534036,-9.596378,0.438917,-2.148503,0.353944,0.162930,0.417481,42.561255,12.271420,12.242955,4635728673582874600.000000,0.563043,0.406503,0.627072,-0.352872,0
-9.456557,-0.028762,1.641645,-0.169404,-0.208362,0.296718,43.595396,-14.635757,5.783049,4635731143189069800.000000,0.757301,-0.115793,0.615538,0.184932,-9.530818,-0.492185,-1.332505,0.271033,-0.105921,-0.108666,43.509083,-15.896030,-2.296350,4635727062433267700.000000,-0.257758,0.678298,-0.434176,-0.533821,-9.797945,0.204258,-2.208730,0.466145,0.181443,0.439674,42.651857,12.326497,12.132250,4635728673582874600.000000,0.562373,0.408979,0.626137,-0.352739,0
-9.348711,-0.252486,1.478026,-0.164198,-0.257274,0.328394,43.344170,-14.685506,5.599960,4635731143189069800.000000,0.757666,-0.115148,0.614784,0.186344,-9.517875,-0.310464,-1.431415,0.250805,-0.099899,-0.122210,43.627250,-15.769446,-2.260889,4635727062433267700.000000,-0.258832,0.677966,-0.434315,-0.533609,-9.889350,-0.774709,-1.820283,0.620182,0.233779,0.449429,42.464143,12.271429,11.866695,4635728673582874600.000000,0.561313,0.411915,0.625076,-0.352893,0
-9.252136,-0.350928,1.341600,-0.165247,-0.263186,0.353311,43.268273,-14.792564,5.416861,4635731098347818000.000000,0.758023,-0.114438,0.614020,0.187839,-9.474963,-0.176693,-1.540647,0.197819,-0.098160,-0.143230,43.708921,-15.768061,-2.454812,4635727062433267700.000000,-0.259798,0.677734,-0.434277,-0.533466,-9.348205,-0.414557,-1.472506,0.862832,0.267439,0.454271,42.290255,12.125761,11.826803,4635728673582874600.000000,0.559748,0.415475,0.623720,-0.353605,0
-9.272668,-0.314306,1.332897,-0.202174,-0.215869,0.364144,43.396381,-15.048920,5.192966,4635731035814887400.000000,0.758230,-0.113854,0.613381,0.189440,-9.322685,-0.183740,-1.657560,0.130349,-0.097256,-0.166674,43.714710,-15.763661,-2.587970,4635727062433267700.000000,-0.260622,0.677620,-0.434021,-0.533417,-8.807270,1.383093,-1.757295,0.945877,0.231103,0.454153,42.603267,11.906846,11.979519,4635728673582874600.000000,0.558122,0.419166,0.622146,-0.354589,0
-9.585380,-0.354154,1.438323,-0.231907,-0.185894,0.357019,43.170856,-15.055473,5.105920,4635731035814887400.000000,0.758350,-0.113406,0.612808,0.191080,-9.343041,-0.310814,-1.746909,0.084070,-0.097147,-0.186295,43.663379,-15.639722,-2.491724,4635727062433267700.000000,-0.261357,0.677591,-0.433606,-0.533430,-9.197773,2.488260,-1.760864,0.800193,0.153685,0.452207,42.807538,11.805385,12.002049,4635728673582874600.000000,0.556938,0.422392,0.620601,-0.355330,0
-10.029666,-0.454761,1.265269,-0.257530,-0.293043,0.353205,42.409696,-14.514843,5.202365,4635731035814887400.000000,0.758730,-0.112963,0.611872,0.192823,-9.526767,-0.485625,-1.808568,0.066677,-0.095011,-0.201701,43.617050,-15.564439,-2.456185,4635727062433267700.000000,-0.262075,0.677613,-0.433112,-0.533451,-9.472634,2.608867,-1.284054,0.543905,0.108127,0.429875,42.574872,11.852561,11.929633,4635728673582874600.000000,0.556284,0.424893,0.619361,-0.355536,0
-10.167695,-0.445504,1.097594,-0.273903,-0.462084,0.359261,41.847920,-13.829521,5.014835,4635731035814887400.000000,0.759525,-0.112420,0.610388,0.194705,-9.600184,-0.549333,-1.920316,0.083123,-0.101857,-0.206043,43.661966,-15.429693,-2.553849,4635727062433267700.000000,-0.262859,0.677610,-0.432634,-0.533458,-9.599881,2.489793,-0.883072,0.327913,0.083913,0.399659,42.438107,11.925806,11.763902,4635728673582874600.000000,0.556026,0.426777,0.618435,-0.355295,0
-10.081185,-0.392652,1.133387,-0.302056,-0.522750,0.365576,42.001987,-13.782615,4.660984,4635731125460863000.000000,0.760449,-0.111901,0.608689,0.196705,-9.486576,-0.504423,-1.925650,0.119547,-0.112319,-0.206262,43.734583,-15.134860,-2.651502,4635727062433267700.000000,-0.263762,0.677547,-0.432219,-0.533429,-9.769939,2.797007,-0.597155,0.145865,0.086257,0.370442,42.621401,11.818436,11.641011,4635728673582874600.000000,0.556040,0.428165,0.617834,-0.354648,0
-10.020262,-0.403908,1.324670,-0.345217,-0.491049,0.371902,42.255871,-14.399133,4.519819,4635731250563252200.000000,0.761262,-0.111528,0.607053,0.198819,-9.508755,-0.341996,-1.893393,0.146211,-0.118728,-0.215586,43.814861,-15.061879,-2.749156,4635727062433267700.000000,-0.264770,0.677457,-0.431828,-0.533361,-9.983146,3.290143,-0.499166,-0.027054,0.109536,0.378475,42.935775,11.601716,11.701716,4635728673582874600.000000,0.556313,0.429206,0.617527,-0.353495,0
-10.034486,-0.363027,1.452681,-0.371725,-0.482833,0.383475,41.836100,-14.614999,4.418852,4635731250563252200.000000,0.762025,-0.111215,0.605422,0.201032,-9.748340,-0.244769,-1.897320,0.153252,-0.124014,-0.232277,43.816300,-15.182080,-2.744181,4635727062433267700.000000,-0.265845,0.677376,-0.431400,-0.533275,-10.082479,2.879780,-0.618731,-0.114745,0.147653,0.396253,42.874072,11.359743,11.959909,4635728673582874600.000000,0.556669,0.430145,0.617403,-0.352006,0
-10.049769,-0.078049,1.396642,-0.378747,-0.541787,0.400749,41.340420,-14.451644,4.049492,4635731250563252200.000000,0.762912,-0.110832,0.603601,0.203342,-9.779586,-0.192220,-1.822218,0.146011,-0.124358,-0.253747,43.769336,-15.094361,-2.601633,4635727062433267700.000000,-0.266949,0.677338,-0.430898,-0.533177,-9.854749,1.737762,-0.857669,-0.116576,0.185605,0.411777,42.727598,11.256069,12.172600,4635728673582874600.000000,0.556952,0.431173,0.617341,-0.350408,0
-10.076201,0.252402,1.277651,-0.394169,-0.621792,0.426921,42.029988,-15.136991,3.629466,4635731250563252200.000000,0.763962,-0.110363,0.601519,0.205810,-9.551580,-0.031665,-1.699525,0.129826,-0.123398,-0.283420,43.808436,-14.888694,-2.514725,4635727062433267700.000000,-0.268074,0.677370,-0.430280,-0.533071,-9.591874,0.971992,-1.204307,-0.073035,0.229134,0.405663,42.771721,11.112603,12.287659,4635728673582874600.000000,0.557033,0.432348,0.617324,-0.348856,0
-10.149532,0.289818,1.363362,-0.436188,-0.669383,0.456829,43.172838,-16.235226,3.358970,4635731250563252200.000000,0.765076,-0.109911,0.599256,0.208497,-9.533132,0.061037,-1.546013,0.117334,-0.123905,-0.315861,43.938771,-14.890946,-2.559614,4635727062433267700.000000,-0.269237,0.677471,-0.429542,-0.532951,-9.435838,1.105317,-1.490273,-0.091301,0.292430,0.395860,42.786949,10.953907,12.315095,4635728673582874600.000000,0.556968,0.433545,0.617496,-0.347165,0
-10.282760,-0.081757,1.776480,-0.464913,-0.677114,0.489411,43.303442,-16.590828,3.218628,4635731250563252200.000000,0.766157,-0.109461,0.596950,0.211360,-9.900948,0.003328,-1.484125,0.108681,-0.118295,-0.345206,44.103254,-14.838035,-2.651473,4635727062433267700.000000,-0.270430,0.677647,-0.428707,-0.532797,-9.371785,1.199826,-1.498010,-0.193747,0.350940,0.375715,42.726763,10.795226,12.397516,4635728673582874600.000000,0.556906,0.434535,0.617986,-0.345150,0
-10.334577,-0.726696,2.110910,-0.450738,-0.683360,0.532857,42.952680,-16.647984,3.131159,4635731250563252200.000000,0.767209,-0.108851,0.594648,0.214327,-10.221297,-0.106538,-1.565631,0.086779,-0.117712,-0.379096,44.217066,-14.542590,-2.755545,4635727062433267700.000000,-0.271630,0.677909,-0.427723,-0.532643,-9.042103,1.629814,-1.188388,-0.311241,0.406673,0.348896,42.723733,10.636533,12.495173,4635728673582874600.000000,0.556871,0.435261,0.618818,-0.342792,0
-10.317281,-1.263602,2.145438,-0.421200,-0.711132,0.585809,42.962010,-16.899205,2.930654,4635731250563252200.000000,0.765676,-0.114941,0.590988,0.226411,-10.130539,-0.030455,-1.674881,0.046879,-0.129624,-0.419793,44.206954,-14.296964,-2.910296,4635727062433267700.000000,-0.272828,0.678262,-0.426519,-0.532547,-9.012563,2.473531,-0.922471,-0.462089,0.431498,0.325513,42.796125,10.477837,12.592832,4635728673582874600.000000,0.557008,0.435608,0.619962,-0.340052,0
-10.262334,-1.650130,2.118999,-0.413463,-0.747267,0.636360,43.134876,-17.077160,2.587902,4635731250563252200.000000,0.766745,-0.113867,0.588555,0.229651,-9.934365,0.277791,-1.766123,0.009421,-0.138967,-0.463638,44.121506,-14.221624,-2.951731,4635727062433267700.000000,-0.274033,0.678712,-0.425098,-0.532492,-9.131593,3.118205,-0.878933,-0.612261,0.445267,0.284655,42.701041,10.319157,13.011419,4635728673582874600.000000,0.557319,0.435516,0.621417,-0.336990,0
-10.154491,-1.958315,2.178049,-0.424149,-0.778419,0.683984,43.004532,-17.269503,2.228742,4635731250563252200.000000,0.767824,-0.112679,0.586023,0.233080,-10.093136,0.233713,-1.845159,0.019847,-0.137630,-0.502889,44.119397,-14.176750,-2.802792,4635727062433267700.000000,-0.275352,0.679219,-0.423589,-0.532367,-9.015146,3.333074,-1.270065,-0.737914,0.477390,0.222243,42.616907,10.150434,13.339240,4635728673582874600.000000,0.557679,0.435010,0.623229,-0.333685,0
-10.073135,-2.101745,2.423279,-0.435182,-0.807531,0.730538,42.660733,-17.646947,1.771969,4635731250563252200.000000,0.768907,-0.111382,0.583398,0.236694,-10.573521,-0.424942,-1.758139,0.139820,-0.167681,-0.515193,44.192641,-14.001551,-2.863898,4635727062433267700.000000,-0.277088,0.679542,-0.422273,-0.532100,-8.984649,3.226659,-1.485399,-0.879676,0.516340,0.158650,42.684069,9.929386,13.471754,4635728673582874600.000000,0.558098,0.434055,0.625433,-0.330084,0
-9.977482,-2.167829,2.718217,-0.429571,-0.863345,0.772455,42.482766,-18.033446,1.308143,4635731250563252200.000000,0.770067,-0.109908,0.580604,0.240448,-10.917092,-1.149983,-1.519803,0.344682,-0.232381,-0.513325,44.227421,-13.790080,-3.111988,4635727118813087700.000000,-0.279511,0.679478,-0.421338,-0.531655,-8.974621,3.208367,-1.443523,-1.048811,0.537431,0.094758,42.641331,9.697468,13.569403,4635728673582874600.000000,0.558669,0.432560,0.628021,-0.326146,0
-9.726196,-2.069120,2.816852,-0.425303,-0.939447,0.794079,42.463465,-18.368128,0.884978,4635731161050401800.000000,0.771371,-0.108289,0.577566,0.244290,-10.698252,-0.928353,-1.224395,0.507453,-0.258785,-0.536158,44.182558,-13.670459,-3.261820,4635727169807450100.000000,-0.282491,0.679199,-0.420667,-0.530968,-8.832055,3.030051,-0.926888,-1.241341,0.540483,0.025406,42.447757,9.515670,13.907722,4635728673582874600.000000,0.559468,0.430427,0.630984,-0.321850,0
-9.422033,-1.854471,2.841293,-0.436875,-1.002822,0.791585,42.475647,-18.669233,0.595078,4635731035814887400.000000,0.772801,-0.106645,0.574295,0.248174,-10.527058,0.228917,-1.049226,0.589993,-0.293475,-0.597497,44.141972,-13.501078,-3.308206,4635727169807450100.000000,-0.285897,0.678846,-0.419959,-0.530156,-8.661152,3.050979,-0.146049,-1.420332,0.537851,-0.040704,42.358380,9.414959,14.378579,4635728673582874600.000000,0.560487,0.427683,0.634276,-0.317232,0
-9.219629,-1.565555,2.951152,-0.440788,-1.050884,0.779657,42.361706,-18.882837,0.371278,4635731035814887400.000000,0.774333,-0.104991,0.570842,0.252042,-10.909571,1.168064,-0.537536,0.542776,-0.352552,-0.726430,44.218909,-13.206205,-3.263326,4635727169807450100.000000,-0.289555,0.678633,-0.418708,-0.529433,-8.841188,3.695719,0.812135,-1.556012,0.522364,-0.081290,42.548008,9.409727,14.856800,4635728673582874600.000000,0.561710,0.424475,0.637755,-0.312363,0
-9.109763,-1.244115,3.183125,-0.407313,-1.099487,0.765950,42.226417,-19.160583,-0.021423,4635731035814887400.000000,0.775983,-0.103207,0.567243,0.255800,-11.233289,2.165203,0.543075,0.269371,-0.368801,-0.940466,44.333355,-12.915030,-3.274063,4635727169807450100.000000,-0.292937,0.679075,-0.416223,-0.528964,-9.227877,4.103829,1.349739,-1.660310,0.503329,-0.114784,42.601655,9.341725,15.092253,4635728673582874600.000000,0.563098,0.420887,0.641353,-0.307314,0
-8.954117,-1.296044,3.631733,-0.323821,-1.127696,0.766041,42.171492,-19.516601,-0.575816,4635731035814887400.000000,0.777710,-0.101120,0.563624,0.259365,-11.337362,3.442023,0.918468,-0.163045,-0.378829,-1.195409,44.367497,-12.530404,-3.474339,4635727169807450100.000000,-0.295669,0.680449,-0.412044,-0.528951,-9.532641,3.922098,1.759127,-1.699992,0.493752,-0.132105,42.353185,9.065778,15.295416,4635728673582874600.000000,0.564528,0.417125,0.644973,-0.302199,0
-8.683536,-1.782275,3.915525,-0.247633,-1.104554,0.771826,42.062645,-19.666126,-1.061023,4635731035814887400.000000,0.779382,-0.098794,0.560147,0.262752,-11.722931,3.407712,1.001132,-0.606094,-0.406037,-1.444892,44.477118,-11.985079,-3.773691,4635727169807450100.000000,-0.297731,0.682713,-0.406133,-0.529449,-9.823409,3.248203,1.339891,-1.561784,0.545047,-0.132832,42.118204,8.808566,15.583121,4635728673582874600.000000,0.565551,0.413728,0.648508,-0.297353,0
-8.438369,-2.205469,3.878903,-0.214431,-1.147990,0.756071,41.818497,-19.701731,-1.439453,4635731125291225100.000000,0.781161,-0.096347,0.556541,0.266020,-12.620550,1.240250,1.951022,-1.040441,-0.475375,-1.730038,44.703253,-11.354274,-3.924988,4635727113414096900.000000,-0.299287,0.685805,-0.398342,-0.530493,-9.625204,1.549233,-0.982230,-1.179836,0.734546,-0.149991,42.159107,8.634611,15.948410,4635728673582874600.000000,0.565359,0.411402,0.652018,-0.293241,0
-8.084430,-2.309236,4.182984,-0.176695,-1.318607,0.701070,41.569288,-19.995663,-1.889035,4635731250563252200.000000,0.783384,-0.093713,0.552379,0.269081,-13.287822,-0.084463,2.619413,-1.413400,-0.627587,-2.058701,44.890322,-10.637944,-3.988492,4635727062433267700.000000,-0.300734,0.689504,-0.388566,-0.532128,-9.871300,0.476842,-2.958340,-1.019202,0.871566,-0.150305,42.126461,8.475918,16.417040,4635728673582874600.000000,0.564500,0.409606,0.655633,-0.289321,0
-7.210787,-2.503410,4.837064,-0.113155,-1.450980,0.621681,41.348553,-20.515452,-2.484042,4635731250563252200.000000,0.785993,-0.090902,0.547804,0.271778,-12.845945,1.991455,2.502162,-1.718871,-0.739620,-2.312897,44.902164,-9.797785,-4.354804,4635727062433267700.000000,-0.302013,0.693655,-0.377194,-0.534188,-10.969089,0.267283,-3.063308,-1.107839,0.914895,-0.109202,41.925125,8.507655,16.744936,4635728673582874600.000000,0.563705,0.407752,0.659365,-0.284979,0
-6.138490,-2.698900,5.008139,-0.041135,-1.352156,0.544326,41.248817,-20.800381,-3.067015,4635731205845487600.000000,0.788459,-0.088141,0.543583,0.274009,-12.033976,3.709209,1.707330,-2.066413,-0.815600,-2.492120,44.926925,-8.875872,-4.952933,4635727062433267700.000000,-0.302754,0.698237,-0.364369,-0.536694,-10.843429,0.045900,-2.253579,-1.210089,0.972289,-0.060069,41.753318,8.510746,16.957735,4635728673582874600.000000,0.562962,0.405845,0.663242,-0.280131,0
-5.300188,-2.253454,4.492527,-0.035945,-0.998107,0.459681,41.279318,-20.855328,-3.466835,4635731143189069800.000000,0.790199,-0.085956,0.540485,0.275813,-12.044207,2.103829,0.425552,-2.297198,-0.933526,-2.643738,45.150343,-7.864772,-5.448526,4635727062433267700.000000,-0.303278,0.702932,-0.350358,-0.539590,-10.105497,0.440955,-2.087466,-1.310607,1.022348,-0.009180,41.684818,8.247996,17.553920,4635728673582874600.000000,0.562285,0.403881,0.667238,-0.274789,0
-4.943998,-1.707088,3.735653,-0.107858,-0.650572,0.371474,41.255987,-20.892947,-3.673384,4635731143189069800.000000,0.791220,-0.084605,0.538409,0.277360,-12.189699,-0.226473,-0.112611,-2.252267,-1.041606,-2.703375,45.443284,-6.598996,-5.909001,4635727062433267700.000000,-0.304157,0.707255,-0.336055,-0.542537,-9.520339,0.547146,-2.468245,-1.463802,1.049175,-0.013152,41.565850,7.990758,18.157304,4635728673582874600.000000,0.561758,0.401556,0.671443,-0.268970,0
-5.152391,-1.514761,3.175100,-0.138513,-0.525171,0.309596,41.061709,-20.971277,-3.799499,4635731143189069800.000000,0.792014,-0.083639,0.536685,0.278725,-11.752090,-1.959836,1.271310,-2.109810,-1.099817,-2.724336,45.608078,-5.350239,-6.466545,4635727062433267700.000000,-0.305517,0.711132,-0.321862,-0.545303,-9.083427,0.048321,-2.841934,-1.703696,1.052317,-0.077396,41.171044,7.876878,18.743247,4635728673582874600.000000,0.561516,0.398468,0.675988,-0.262609,0
-5.561372,-1.317531,2.401261,-0.156801,-0.564568,0.298626,40.980191,-21.127856,-4.104539,4635731143189069800.000000,0.792896,-0.082711,0.534803,0.280107,-11.040359,-2.732015,3.561859,-2.118594,-1.148340,-2.813557,45.624864,-4.302173,-7.116015,4635727062433267700.000000,-0.307052,0.714865,-0.307250,-0.547982,-8.668376,0.119327,-2.995544,-2.020548,1.057386,-0.163565,41.040019,7.591021,19.168878,4635728673582874600.000000,0.561646,0.394368,0.680980,-0.255527,0
-5.669381,-0.841578,1.491606,-0.237990,-0.630548,0.318747,41.167325,-21.348639,-4.499322,4635731098497079300.000000,0.793867,-0.081930,0.532611,0.281757,-9.887542,-1.538667,4.655883,-2.432496,-1.193199,-2.950022,45.599842,-3.167341,-7.561853,4635727062433267700.000000,-0.307944,0.718889,-0.291380,-0.550878,-8.724260,1.090467,-2.874962,-2.397913,1.054151,-0.236432,41.049121,7.151245,19.639629,4635728673582874600.000000,0.562269,0.389132,0.686413,-0.247523,0
-5.377551,-0.021756,1.048896,-0.295771,-0.634049,0.303286,41.208214,-21.448408,-4.703883,4635731035814887400.000000,0.794837,-0.081369,0.530330,0.283483,-8.923688,-0.186561,3.383993,-2.933668,-1.192537,-3.094882,45.563223,-1.870994,-7.832831,4635727062433267700.000000,-0.307576,0.723511,-0.273839,-0.554023,-9.353834,2.095487,-2.674006,-2.840871,1.013745,-0.243619,40.823066,6.667336,20.218084,4635728673582874600.000000,0.563640,0.382741,0.692122,-0.238300,0
-4.778520,1.207845,0.638164,-0.377706,-0.637654,0.240900,40.964091,-21.453489,-4.877743,4635731035814887400.000000,0.795853,-0.081213,0.527914,0.285182,-8.627602,0.687095,0.687728,-3.335217,-1.176887,-3.232755,45.475346,-0.406456,-8.252732,4635727062433267700.000000,-0.306188,0.728575,-0.254875,-0.557195,-9.475134,2.350727,-2.436424,-3.214374,0.991101,-0.252989,40.462146,6.439528,20.806227,4635728673582874600.000000,0.565562,0.375354,0.698039,-0.228015,0
-4.022791,2.591328,0.216702,-0.507922,-0.727961,0.172187,40.816477,-21.531730,-5.280398,4635731035814887400.000000,0.797095,-0.081531,0.525016,0.286968,-7.993038,1.028554,-1.698216,-3.375363,-1.177311,-3.288002,45.309041,1.084928,-8.669321,4635727231477057500.000000,-0.304685,0.733456,-0.235546,-0.560114,-9.122330,2.418324,-2.082106,-3.479749,1.011703,-0.259670,40.223999,6.148430,21.402143,4635728673582874600.000000,0.567713,0.367260,0.704116,-0.216893,0
-3.516791,3.693332,0.403616,-0.630595,-0.785731,0.124183,40.773786,-21.631519,-5.737336,4635731035814887400.000000,0.798467,-0.082292,0.521755,0.288877,-7.035308,-1.118595,-4.602296,-2.969582,-1.152223,-3.197216,45.107317,2.456143,-9.043764,4635727384555814900.000000,-0.304072,0.737514,-0.217382,-0.562457,-9.075738,2.860018,-1.703685,-3.668444,1.070344,-0.204531,40.016476,5.430352,22.000292,4635728673582874600.000000,0.569894,0.358845,0.710246,-0.204946,0
-3.350095,4.361862,0.487599,-0.774113,-0.757325,0.077759,40.754368,-21.601047,-5.989641,4635731035814887400.000000,0.799769,-0.083664,0.518391,0.290930,-5.718333,-3.270516,-8.474107,-2.311441,-1.077060,-3.007951,44.861353,3.793156,-9.561315,4635727384555814900.000000,-0.304875,0.740516,-0.201368,-0.564038,-9.232568,3.194607,-1.134927,-3.776321,1.153908,-0.162465,39.808952,4.764906,22.508299,4635728673582874600.000000,0.571875,0.350274,0.716414,-0.192400,0
-3.170902,4.417377,-0.185430,-0.975658,-0.711194,0.025646,40.797142,-21.487201,-6.266154,4635731080468216800.000000,0.800947,-0.085875,0.514907,0.293222,-2.852435,-3.344966,-11.855347,-1.648353,-0.943783,-2.751739,44.670275,5.001372,-9.966673,4635727271873477600.000000,-0.306941,0.742603,-0.187824,-0.564845,-9.475757,2.966718,-0.654826,-3.821038,1.249375,-0.145433,39.611462,4.130183,23.086693,4635728849782697000.000000,0.573493,0.341626,0.722622,-0.179488,0
-3.332278,4.088625,-0.765929,-1.168000,-0.555183,0.022601,40.726066,-21.321371,-6.656799,4635731143189069800.000000,0.801704,-0.088923,0.511696,0.295854,1.068079,-3.381855,-15.425388,-1.028849,-0.778451,-2.426146,44.598846,6.036469,-9.975048,4635727169807450100.000000,-0.309982,0.743913,-0.176929,-0.564979,-9.832265,2.494712,-0.273273,-3.835938,1.338687,-0.136997,39.346037,3.355190,23.684842,4635728888331239400.000000,0.574706,0.332936,0.728834,-0.166333,0
-3.979785,4.089216,-0.586483,-1.281264,-0.339473,0.052821,40.590711,-21.269278,-7.042314,4635731143189069800.000000,0.801900,-0.092549,0.509064,0.298740,4.222194,-4.438913,-18.980751,-0.379113,-0.597547,-2.059699,44.402122,6.903597,-10.105734,4635727169807450100.000000,-0.314010,0.744461,-0.168916,-0.564485,-10.441059,1.894050,-0.047272,-3.900955,1.425399,-0.159317,39.195473,2.499422,24.202878,4635728888331239400.000000,0.575563,0.323983,0.735115,-0.152865,0
-4.950187,4.427865,-0.198471,-1.359765,-0.188280,0.127819,40.571237,-21.397386,-7.420736,4635731143189069800.000000,0.801626,-0.096463,0.506853,0.301977,5.889980,-5.899589,-20.227465,0.327279,-0.386545,-1.669249,44.143569,7.570796,-10.514380,4635727169807450100.000000,-0.319141,0.744257,-0.164038,-0.563314,-11.300487,-0.851570,0.358334,-4.012029,1.461962,-0.189031,38.943221,1.813046,24.703333,4635728888331239400.000000,0.576262,0.314595,0.741365,-0.139032,0
-6.115685,4.678454,-0.367751,-1.456670,-0.107198,0.230712,40.614029,-21.497236,-7.723041,4635731187831683100.000000,0.800986,-0.100583,0.504817,0.305719,5.828585,-7.278947,-18.434336,1.054332,-0.215930,-1.277734,44.139761,8.067072,-10.757119,4635727169807450100.000000,-0.325474,0.743183,-0.162299,-0.561610,-11.723125,-4.933298,1.420876,-4.106932,1.460433,-0.214557,38.532269,1.045895,25.293955,4635728800246527000.000000,0.576889,0.304797,0.747457,-0.124923,0
-7.591442,4.466420,-0.447168,-1.547516,-0.103045,0.363897,40.608955,-21.395745,-7.964017,4635731250563252200.000000,0.800098,-0.104727,0.502716,0.310084,3.413051,-8.069281,-13.301605,1.646465,-0.171585,-0.969855,44.215214,8.309235,-10.752325,4635727169807450100.000000,-0.332873,0.741160,-0.162950,-0.559755,-12.631366,-8.264538,2.707330,-4.193151,1.392494,-0.179539,38.222990,0.182313,25.814196,4635728780957057000.000000,0.577662,0.294761,0.753134,-0.110507,0
-9.162147,3.666431,0.308258,-1.568511,-0.171494,0.543311,40.530787,-21.253090,-8.340222,4635731250563252200.000000,0.799076,-0.108473,0.500418,0.315107,-0.196300,-7.026050,-6.290060,1.875264,-0.235763,-0.820297,44.080777,8.433087,-10.814722,4635727169807450100.000000,-0.340650,0.738517,-0.164499,-0.558113,-14.099460,-8.996177,4.093500,-4.234787,1.292048,-0.131477,38.072418,-0.746600,26.314650,4635728780957057000.000000,0.578627,0.284627,0.758271,-0.095931,0
-10.488107,2.480428,0.949965,-1.535953,-0.332855,0.741262,40.329445,-21.395154,-8.770638,4635731250563252200.000000,0.798108,-0.111481,0.497691,0.320779,-3.217614,-5.079771,-0.038004,1.668912,-0.357595,-0.793893,43.958858,8.687770,-11.169433,4635727169807450100.000000,-0.347792,0.735816,-0.165465,-0.556989,-15.261458,-8.422691,5.437243,-4.240547,1.161088,-0.098305,37.760101,-1.766653,26.825156,4635728780957057000.000000,0.579831,0.274435,0.762797,-0.081379,0
-11.291400,1.238262,0.821508,-1.502370,-0.557782,0.920683,40.049774,-21.696376,-9.060758,4635731250563252200.000000,0.797338,-0.113698,0.494320,0.327066,-5.749602,-4.771759,4.342640,1.231321,-0.514665,-0.848811,43.914063,8.939962,-11.657698,4635727169807450100.000000,-0.353811,0.733384,-0.165014,-0.556539,-16.365748,-8.248775,6.507514,-4.087224,1.014727,-0.098186,37.335997,-2.674114,27.177660,4635728780957057000.000000,0.581139,0.264474,0.766669,-0.067456,0
-11.451826,0.063321,0.622244,-1.497348,-0.754478,1.007527,39.857170,-21.879625,-9.406167,4635731250563252200.000000,0.796809,-0.115445,0.490314,0.333706,-8.021026,-5.263162,6.680287,0.858381,-0.681183,-0.928194,43.790222,9.021271,-12.094775,4635727113523947500.000000,-0.358976,0.731142,-0.163204,-0.556716,-17.556606,-8.680512,7.260325,-3.817970,0.867145,-0.132627,37.076785,-3.352727,27.324822,4635728780957057000.000000,0.582444,0.254936,0.769924,-0.054620,0
-11.138734,-1.052603,1.483308,-1.503425,-0.807346,0.968124,39.852098,-22.007716,-9.974831,4635731250563252200.000000,0.796389,-0.117212,0.486076,0.340231,-10.174252,-5.400395,7.240666,0.654776,-0.827761,-0.988312,43.618728,9.283625,-12.434221,4635727062433267700.000000,-0.363745,0.728879,-0.160511,-0.557370,-18.264541,-9.618084,7.996177,-3.457937,0.703100,-0.167083,36.987203,-3.987498,27.444698,4635728780957057000.000000,0.583746,0.246062,0.772548,-0.043184,0
-10.615089,-1.927154,2.894996,-1.485477,-0.704153,0.855913,39.606556,-22.214129,-10.455223,4635731205946405900.000000,0.795878,-0.119286,0.482121,0.346277,-12.567588,-5.442140,6.552043,0.565438,-0.921122,-1.062332,43.486808,9.739337,-12.682406,4635727062433267700.000000,-0.368460,0.726558,-0.157234,-0.558237,-18.422200,-10.783666,8.660737,-3.045157,0.551169,-0.207204,36.735949,-4.762443,27.556761,4635728780957057000.000000,0.584994,0.237986,0.774619,-0.033322,0
-10.062460,-2.416512,3.262180,-1.445532,-0.600906,0.752681,39.134299,-22.399460,-10.867041,4635731143189069800.000000,0.795286,-0.121577,0.478491,0.351831,-14.153792,-4.736745,5.142400,0.526997,-0.921035,-1.125685,43.311804,9.975211,-12.883509,4635727062433267700.000000,-0.373194,0.724308,-0.153673,-0.559007,-18.533281,-11.149024,8.757103,-2.648873,0.408842,-0.266376,36.513071,-5.487970,27.756708,4635728780957057000.000000,0.586215,0.230630,0.776232,-0.025020,0
-9.928375,-2.531439,2.621398,-1.404565,-0.531247,0.705273,38.901049,-22.454486,-11.383686,4635731143189069800.000000,0.794607,-0.123924,0.475106,0.357094,-14.579156,-4.586080,3.449708,0.555758,-0.873839,-1.164136,42.972305,10.189179,-13.187562,4635727062433267700.000000,-0.378060,0.722117,-0.150132,-0.559533,-18.545242,-11.352151,8.322279,-2.258815,0.287995,-0.345161,36.485732,-5.945735,27.796257,4635728780957057000.000000,0.587380,0.223934,0.777499,-0.018286,0
-10.512235,-2.133867,2.105128,-1.362054,-0.442068,0.682399,38.843956,-22.563031,-11.835727,4635731143189069800.000000,0.793772,-0.126303,0.472049,0.362137,-14.757627,-5.165538,2.311156,0.642025,-0.856757,-1.217701,42.640412,10.652521,-13.641577,4635727062433267700.000000,-0.383284,0.719833,-0.146652,-0.559845,-18.122626,-11.049168,7.467031,-1.901348,0.213609,-0.433539,36.547988,-6.268499,27.646107,4635728780957057000.000000,0.588398,0.217802,0.778576,-0.012994,0
-11.609668,-1.389147,1.829452,-1.290448,-0.366446,0.648700,38.712154,-22.776741,-12.035362,4635731143189069800.000000,0.792846,-0.128620,0.469314,0.366874,-13.346964,-4.906690,1.751403,0.640979,-0.818496,-1.260926,42.601534,11.149485,-14.033321,4635727062433267700.000000,-0.388565,0.717634,-0.143093,-0.559950,-17.419799,-10.764272,6.349193,-1.614961,0.168601,-0.538143,36.631235,-6.583663,27.453006,4635728780957057000.000000,0.589263,0.212017,0.779576,-0.008929,0
-12.782535,-0.124095,1.500049,-1.212699,-0.258395,0.615271,38.420105,-22.810770,-12.247556,4635731143189069800.000000,0.791774,-0.130907,0.467022,0.371278,-10.971297,-5.795346,1.475927,0.567840,-0.798114,-1.238077,42.587539,11.480805,-14.281527,4635727062433267700.000000,-0.393547,0.715555,-0.139462,-0.560047,-16.625120,-10.267717,5.289600,-1.396010,0.163918,-0.667917,36.656634,-6.770938,27.507905,4635728780957057000.000000,0.589917,0.206337,0.780633,-0.005897,0
-14.208852,1.254459,1.003957,-1.164239,-0.000357,0.609993,38.234733,-22.682501,-12.516511,4635731143189069800.000000,0.790211,-0.133439,0.465641,0.375419,-9.892625,-7.559951,1.702093,0.537227,-0.861544,-1.167226,42.243977,11.814470,-14.540201,4635727062433267700.000000,-0.398294,0.713306,-0.135863,-0.560444,-15.849155,-9.447808,4.121389,-1.261430,0.195161,-0.836727,36.728927,-6.729430,27.677895,4635728780957057000.000000,0.590325,0.200432,0.781876,-0.003691,0
-15.947249,2.354649,0.175738,-1.172726,0.280117,0.602919,38.184757,-22.738939,-12.568558,4635731187759728600.000000,0.788087,-0.136448,0.465153,0.379386,-9.357838,-7.478474,1.839247,0.467389,-0.913063,-1.072470,41.871392,12.184736,-14.890130,4635727062433267700.000000,-0.402627,0.710972,-0.132292,-0.561168,-15.059994,-8.889259,2.874888,-1.211203,0.257084,-1.058552,36.804370,-6.653985,27.710806,4635728780957057000.000000,0.590461,0.193919,0.783420,-0.002144,0
-17.571365,2.711636,-0.888657,-1.236818,0.296189,0.584115,38.149282,-22.990239,-12.753996,4635731250563252200.000000,0.785900,-0.139725,0.464593,0.383395,-9.264844,-6.961128,1.674738,0.315305,-0.942056,-0.975879,41.704559,12.475969,-15.383079,4635727062433267700.000000,-0.406286,0.708746,-0.128598,-0.562204,-14.186485,-8.401011,1.717781,-1.274963,0.322619,-1.312221,36.747435,-6.640827,27.630700,4635728780957057000.000000,0.590400,0.186411,0.785289,-0.000959,0
-18.988599,2.074725,-1.523634,-1.300464,0.089326,0.614675,38.028351,-23.102621,-13.187479,4635731250563252200.000000,0.784001,-0.142815,0.463257,0.387736,-10.040892,-7.754624,1.496858,0.184127,-0.988699,-0.870234,41.574344,12.725930,-15.866722,4635727062433267700.000000,-0.409320,0.706555,-0.124823,-0.563611,-13.245206,-7.822550,0.842772,-1.420005,0.393038,-1.587381,36.661978,-6.450559,27.613146,4635728780957057000.000000,0.590178,0.177632,0.787488,0.000078,0
-20.462145,1.114327,-1.557710,-1.367028,-0.002962,0.734805,37.892931,-22.993910,-13.461542,4635731205992593400.000000,0.782018,-0.145737,0.461568,0.392638,-11.193543,-8.576558,1.224827,0.137181,-1.041696,-0.736877,41.320333,12.976457,-16.110278,4635727062433267700.000000,-0.411918,0.704229,-0.121236,-0.565408,-12.203087,-7.224492,0.205235,-1.592080,0.464591,-1.873128,36.586552,-6.208647,27.763326,4635728780957057000.000000,0.589792,0.167475,0.789998,0.001029,0
-21.528332,0.246450,-1.581435,-1.426622,-0.014128,0.872697,37.878420,-22.936559,-13.642349,4635731232330386400.000000,0.779760,-0.148563,0.459809,0.398094,-11.824317,-8.166286,0.972542,0.095938,-1.070945,-0.606518,41.029111,13.226404,-16.220139,4635727062433267700.000000,-0.414095,0.701820,-0.117884,-0.567518,-11.481478,-6.576298,-0.312810,-1.770753,0.523890,-2.148183,36.563368,-6.044601,27.876349,4635728604839173100.000000,0.589263,0.155953,0.792744,0.001933,0
-21.500047,-0.434582,-1.892574,-1.449396,-0.314466,0.972650,37.822015,-23.092927,-13.958554,4635731357937434600.000000,0.777859,-0.150766,0.457078,0.404085,-11.706349,-8.171299,0.993429,-0.016261,-1.094745,-0.471273,40.779148,13.387443,-16.675229,4635727062433267700.000000,-0.415625,0.699464,-0.114617,-0.569973,-11.214920,-5.816984,-0.633108,-1.916914,0.570866,-2.391652,36.491091,-5.757952,27.893917,4635728566208692200.000000,0.588585,0.143242,0.795639,0.002751,0
-20.970424,-0.816447,-2.069291,-1.464438,-0.804075,1.060449,37.434051,-23.344169,-14.365217,4635731357937434600.000000,0.776687,-0.152018,0.452764,0.410674,-12.352474,-9.659789,1.553094,-0.150893,-1.185112,-0.309945,40.618114,13.517635,-17.297225,4635727062433267700.000000,-0.416408,0.697033,-0.111336,-0.573021,-11.061859,-4.765510,-0.903840,-1.990067,0.625359,-2.588467,36.475719,-5.380529,27.963988,4635728566208692200.000000,0.587665,0.129673,0.798638,0.003361,0
-20.469383,-1.134462,-1.758065,-1.523738,-0.990699,1.120937,36.961585,-23.628821,-14.829089,4635731357937434600.000000,0.775671,-0.153017,0.447751,0.417659,-14.167662,-10.257273,2.393051,-0.308296,-1.332504,-0.140830,40.532668,13.682138,-17.638487,4635727062433267700.000000,-0.416389,0.694424,-0.107914,-0.576846,-10.825283,-3.184191,-1.152377,-2.040931,0.673211,-2.750180,36.405652,-5.049961,28.129518,4635728566208692200.000000,0.586497,0.115414,0.801678,0.003768,0
-20.372708,-1.558747,-1.141442,-1.602704,-0.752770,1.162255,36.697807,-23.899743,-15.298043,4635731357937434600.000000,0.774029,-0.154596,0.443364,0.424743,-16.509639,-9.111739,2.866954,-0.537726,-1.495064,-0.028956,40.325777,13.802484,-17.993019,4635727062433267700.000000,-0.415495,0.691745,-0.103978,-0.581413,-10.348656,-1.078934,-1.386538,-2.138249,0.709510,-2.871982,36.190046,-4.742548,28.402748,4635728566208692200.000000,0.585125,0.100483,0.804683,0.004218,0
-20.594496,-1.860298,-0.825938,-1.648413,-0.486575,1.177307,36.597794,-23.933945,-15.779137,4635731357937434600.000000,0.771782,-0.156755,0.439733,0.431758,-18.651815,-8.388209,2.826376,-0.786801,-1.658888,0.026232,40.002012,13.887931,-18.583537,4635727062433267700.000000,-0.413799,0.689041,-0.099307,-0.586627,-9.733748,1.268149,-1.948737,-2.292530,0.734051,-2.939837,36.076058,-4.357344,28.535529,4635728566208692200.000000,0.583595,0.084924,0.807576,0.005029,0
-20.640033,-2.135416,-1.062060,-1.669777,-0.512640,1.140649,36.491492,-23.810687,-16.343353,4635731357937434600.000000,0.769578,-0.158991,0.435925,0.438680,-20.453739,-8.832074,2.773944,-0.931351,-1.836943,0.087156,39.717161,13.973378,-19.209602,4635727062433267700.000000,-0.411584,0.686081,-0.094141,-0.592478,-8.728569,3.848919,-2.723693,-2.436014,0.759986,-2.938838,35.990600,-4.034556,28.623185,4635728566208692200.000000,0.581878,0.068996,0.810320,0.006332,0
-20.401234,-2.650826,-1.694192,-1.759299,-0.780313,1.037919,36.133886,-23.874122,-17.050209,4635731357937434600.000000,0.767930,-0.161199,0.430995,0.445580,-22.680872,-8.488777,3.221867,-0.945629,-2.017967,0.159226,39.473028,14.097160,-19.693864,4635727062433267700.000000,-0.409189,0.682615,-0.088829,-0.598925,-7.271717,6.453547,-3.439309,-2.552979,0.837491,-2.887289,35.915158,-3.849484,28.798728,4635728566208692200.000000,0.579775,0.052938,0.813014,0.008175,0
-19.881408,-3.329035,-2.319698,-1.961531,-1.101203,0.867913,35.668848,-24.064661,-17.726033,4635731357937434600.000000,0.766969,-0.163749,0.424512,0.452476,-25.319634,-7.051445,3.915326,-0.870550,-2.171572,0.177684,39.184195,14.217511,-20.090272,4635727062433267700.000000,-0.406982,0.678569,-0.083486,-0.605756,-6.084152,10.464281,-4.024911,-2.723782,0.896358,-2.703141,35.711829,-3.760872,29.154129,4635728566208692200.000000,0.577348,0.037074,0.815581,0.011051,0
-18.908693,-3.863193,-2.359907,-2.270511,-1.268256,0.672181,35.284165,-24.091460,-18.297696,4635731357937434600.000000,0.766378,-0.167300,0.416733,0.459358,-27.596210,-4.924247,4.664423,-0.714920,-2.285269,0.156721,38.816318,14.258247,-20.634136,4635727062433267700.000000,-0.405267,0.673913,-0.078273,-0.612759,-4.913284,15.455988,-4.306229,-2.857585,0.958326,-2.378702,35.609989,-3.747673,29.454685,4635728566208692200.000000,0.574563,0.021978,0.818025,0.015168,0
-17.482693,-3.845076,-1.972283,-2.615803,-1.163476,0.457326,34.977812,-23.881598,-18.924075,4635731357937434600.000000,0.765673,-0.172505,0.408425,0.466021,-28.932180,-2.916135,5.053299,-0.519349,-2.362650,0.169609,38.413471,14.213542,-21.311368,4635727062433267700.000000,-0.404050,0.668658,-0.073454,-0.619875,-4.169476,18.854077,-4.225751,-2.863965,0.958495,-1.976005,35.536746,-3.887772,29.675414,4635728566208692200.000000,0.571614,0.008233,0.820231,0.020266,0
-15.825362,-3.389942,-1.757866,-2.926262,-0.884015,0.181357,34.787253,-23.478811,-19.693587,4635731357937434600.000000,0.764691,-0.179688,0.400147,0.472062,-29.839419,0.104316,5.252384,-0.360309,-2.370252,0.190278,37.965953,14.172795,-22.040200,4635727062433267700.000000,-0.403183,0.663041,-0.069080,-0.626936,-4.002829,23.339870,-3.478925,-2.756314,0.865815,-1.425900,35.473513,-4.108688,29.872913,4635728566208692200.000000,0.568815,-0.003371,0.822038,0.026299,0
-14.376192,-2.341576,-1.874211,-3.138397,-0.552034,-0.122663,34.689594,-23.005148,-20.625195,4635731357937434600.000000,0.763467,-0.188676,0.392218,0.477164,-31.607138,4.416501,4.774076,-0.276635,-2.523726,0.215682,37.477683,14.255800,-22.872513,4635727062433267700.000000,-0.402479,0.656805,-0.064726,-0.634372,-4.402050,27.819298,-2.499955,-2.471619,0.725156,-0.743476,35.282407,-4.420668,30.078233,4635728566208692200.000000,0.566339,-0.011947,0.823426,0.032971,0
-13.302688,-0.586136,-2.691178,-3.368134,-0.350718,-0.368561,34.657696,-22.365640,-21.543177,4635731357937434600.000000,0.762081,-0.199162,0.384207,0.481614,-32.284615,10.305294,1.704228,-0.491129,-2.664190,0.110342,36.995746,14.286791,-23.700411,4635727062433267700.000000,-0.401454,0.650508,-0.059271,-0.641998,-4.032067,31.835953,-1.869155,-2.013916,0.590884,-0.027993,35.182740,-4.740262,30.115664,4635728566208692200.000000,0.564192,-0.016969,0.824511,0.039764,0
-11.885261,0.009833,-3.132838,-3.777041,-0.209678,-0.501711,34.718733,-21.597787,-22.239669,4635731357937434600.000000,0.760227,-0.211399,0.375630,0.486074,-29.136964,19.817097,-4.265482,-1.090324,-2.501072,-0.118789,36.468643,14.290729,-24.379440,4635727062433267700.000000,-0.399328,0.645622,-0.051858,-0.648861,-2.450135,35.986448,-1.700043,-1.541577,0.537423,0.707240,35.119505,-5.247707,30.205703,4635728566208692200.000000,0.562104,-0.018345,0.825546,0.046664,0
-10.301110,-2.054293,-0.875637,-3.999508,0.315380,-0.351542,34.850578,-20.779931,-22.724098,4635731357937434600.000000,0.756852,-0.225113,0.368301,0.490769,-24.393692,27.186066,-9.664297,-1.702386,-2.133489,-0.422649,35.971527,14.586833,-24.818543,4635727174730270700.000000,-0.396245,0.642730,-0.042577,-0.654274,0.637050,39.795541,-2.244853,-1.233737,0.609652,1.411368,34.998445,-5.997110,30.325572,4635728566208692200.000000,0.559619,-0.016593,0.826813,0.054146,0
-10.103190,-4.957707,1.734296,-3.793920,0.764444,0.020895,34.981361,-19.992434,-23.146271,4635731357937434600.000000,0.752017,-0.238466,0.363062,0.495773,-20.285506,27.531714,-13.581197,-2.056969,-1.674227,-0.798413,35.582549,15.343296,-25.027982,4635727277181632500.000000,-0.393102,0.641658,-0.032073,-0.657812,3.986285,41.988168,-2.908459,-1.129428,0.706661,2.103423,34.744115,-6.920645,30.757774,4635728566208692200.000000,0.556603,-0.012234,0.828306,0.062871,0
-10.252996,-6.955560,2.053126,-3.501866,0.389960,0.422438,34.933754,-19.283182,-23.525924,4635731357937434600.000000,0.747033,-0.249467,0.357567,0.501851,-17.373092,22.079125,-16.378391,-2.409341,-1.421503,-1.185210,35.183899,16.254819,-25.098979,4635727277181632500.000000,-0.389987,0.641813,-0.019978,-0.659990,7.921357,44.744066,-3.087461,-1.314239,0.794233,2.659709,34.263263,-7.882827,31.038187,4635728566208692200.000000,0.553055,-0.006405,0.829871,0.073512,0
-10.217090,-8.183082,2.802444,-3.317577,-0.347941,0.911518,34.770368,-18.765594,-23.961691,4635731357937434600.000000,0.742160,-0.257570,0.350597,0.509840,-16.298811,15.784360,-21.923523,-3.409665,-1.368755,-1.971572,34.661489,17.167846,-25.078718,4635727277181632500.000000,-0.386272,0.643657,-0.003115,-0.660673,9.255224,34.073986,-0.199833,-1.726098,0.551456,2.648847,33.928453,-8.907135,30.940008,4635728566208692200.000000,0.550245,-0.001490,0.830608,0.085547,0
-9.529303,-8.665160,6.364719,-3.058734,-0.751770,1.400987,34.448308,-18.478557,-24.588049,4635731357937434600.000000,0.736966,-0.263247,0.343385,0.519297,-15.636982,9.499947,-31.243629,-4.531602,-1.406791,-3.248279,33.820747,18.769449,-24.877256,4635727164898106400.000000,-0.382897,0.646939,0.020321,-0.659126,4.136098,7.418540,-0.360746,-1.770546,0.435037,2.414576,33.635480,-10.124789,30.629070,4635728654190321700.000000,0.547828,0.002555,0.830923,0.097185,0
-7.868956,-8.088037,10.027853,-2.855442,-0.784017,1.856084,34.033276,-18.305190,-25.266575,4635731357937434600.000000,0.730904,-0.267525,0.336943,0.529791,-13.504499,5.591509,-33.768453,-4.868952,-1.363963,-4.446237,32.892791,21.012989,-24.400891,4635727062433267700.000000,-0.381648,0.650337,0.047829,-0.655072,-16.374215,-11.934578,-11.028655,-1.647802,0.848981,2.432843,33.282521,-11.141993,30.747364,4635728673582874600.000000,0.543883,0.006773,0.832099,0.108429,0
-5.536086,-5.997789,10.834574,-2.801588,-0.704794,2.184703,33.582876,-18.368411,-25.932882,4635731357937434600.000000,0.723909,-0.271295,0.331158,0.541008,-15.801472,8.135475,-23.206047,-5.104831,-1.399423,-5.689485,31.953141,23.376932,-23.784174,4635727062433267700.000000,-0.382805,0.653172,0.079354,-0.648483,-32.464129,-20.247936,-15.382935,-1.383613,0.881042,2.286107,32.856302,-12.036349,31.127112,4635728673582874600.000000,0.539804,0.011065,0.833347,0.118410,0
-2.424000,-2.697616,10.346763,-2.578175,-0.722406,2.310111,33.117772,-18.559058,-26.551622,4635731357937434600.000000,0.716749,-0.274118,0.325894,0.552198,-22.684774,8.454401,-11.404944,-6.101717,-1.224842,-7.113544,30.406117,26.081712,-22.982920,4635727062433267700.000000,-0.384665,0.656753,0.117058,-0.637970,-22.970425,-12.608529,-9.172207,-1.164642,0.842833,2.607630,32.416834,-13.305328,31.232126,4635728673582874600.000000,0.535612,0.016982,0.834483,0.128335,0
1.416056,0.791709,8.909415,-2.157249,-0.743799,2.237934,32.702749,-18.585974,-27.082806,4635731357937434600.000000,0.710127,-0.275678,0.321392,0.562520,-25.996760,4.238948,-9.704437,-7.598921,-0.494645,-8.062377,28.327108,29.098415,-21.661286,4635727062433267700.000000,-0.384594,0.663004,0.159953,-0.622035,-10.349725,-1.028120,-2.662270,-1.322237,0.662407,2.876289,31.897358,-14.460327,31.108730,4635728673582874600.000000,0.531825,0.023574,0.834974,0.139374,0
3.971264,4.229810,5.545767,-2.192565,-0.538345,1.908883,32.287676,-18.507673,-27.525647,4635731357937434600.000000,0.703845,-0.278221,0.316986,0.571590,-31.156435,-3.610535,-15.358875,-7.649415,-0.199499,-8.330920,26.115482,32.188370,-19.611451,4635727062433267700.000000,-0.384445,0.668483,0.202896,-0.603462,-7.274546,8.028661,0.489658,-1.062343,0.958923,2.486805,31.290286,-15.261091,31.110049,4635728673582874600.000000,0.527122,0.029210,0.836177,0.148654,0
2.274520,7.135986,3.143967,-2.791683,-0.021442,1.375195,32.044434,-18.427262,-27.868754,4635731357937434600.000000,0.697347,-0.284412,0.312003,0.579199,-38.397843,-4.322087,-20.416873,-6.239088,-0.533787,-7.905232,23.876253,34.968954,-17.443199,4635727118549260300.000000,-0.386274,0.669963,0.241051,-0.586375,-8.150136,19.626914,0.020105,-0.901903,1.137009,2.032886,30.807762,-16.043440,31.216656,4635728673582874600.000000,0.521994,0.033503,0.837821,0.156381,0
-3.109914,8.059333,2.863519,-3.110568,0.245831,0.925346,32.069718,-18.146671,-28.171887,4635731357937434600.000000,0.691090,-0.292709,0.306442,0.585500,-37.312511,1.139331,-18.719354,-4.782412,-0.522974,-6.911886,21.705678,37.128500,-15.846814,4635727169807450100.000000,-0.389015,0.669070,0.272680,-0.571540,-6.137147,16.582800,-2.642389,-0.882097,0.953569,1.998254,30.226181,-16.846824,31.348712,4635728673582874600.000000,0.517474,0.037832,0.838999,0.163923,0
-8.104072,8.004735,1.748969,-3.242020,-0.034158,0.675524,32.100413,-17.608346,-28.570166,4635731357937434600.000000,0.685512,-0.300968,0.299394,0.591485,-31.964898,5.428424,-16.042725,-3.524142,-0.279126,-6.045201,19.594468,38.753197,-14.807488,4635727169807450100.000000,-0.393071,0.667010,0.298223,-0.558262,0.078348,2.712020,-4.695649,-0.137903,1.075872,1.831425,29.555843,-17.462556,31.712918,4635728497722698800.000000,0.512476,0.043096,0.840902,0.168509,0
-10.100700,6.896210,0.693477,-3.520377,-0.517704,0.590761,31.951707,-17.084696,-29.158673,4635731357937434600.000000,0.680257,-0.308874,0.290114,0.598064,-29.571518,12.490530,-13.117033,-2.887786,-0.280998,-5.533246,17.622361,40.100191,-13.836511,4635727057601236000.000000,-0.397402,0.664031,0.320641,-0.546191,-3.276261,4.051510,-7.408974,-0.275111,0.986160,1.781854,29.062123,-17.966373,32.118012,4635728458834509800.000000,0.507814,0.047952,0.842463,0.173442,0
-10.305146,3.755883,1.976608,-3.656144,-0.860488,0.578852,31.574534,-16.374493,-29.899955,4635731357937434600.000000,0.675114,-0.316252,0.279443,0.605077,-28.283376,14.198648,-7.530781,-2.232663,-0.478034,-5.038568,15.900882,41.234106,-12.878769,4635726955059085300.000000,-0.401919,0.659781,0.340333,-0.536027,-10.334508,8.227065,-5.265916,-0.846473,0.835679,1.768164,28.670504,-18.444588,32.370848,4635728458834509800.000000,0.503766,0.051655,0.843232,0.180308,0
-10.705275,0.528096,3.912983,-3.511899,-0.884249,0.554478,31.218062,-15.471208,-30.589344,4635731357937434600.000000,0.670089,-0.323118,0.268971,0.611743,-28.409895,10.061481,-4.843607,-1.049855,-0.906519,-4.393807,14.397458,41.949189,-12.398897,4635726955059085300.000000,-0.407461,0.653214,0.356175,-0.529554,-8.481766,5.389688,-3.925786,-1.119928,0.735997,1.805005,28.082189,-19.000618,32.350683,4635728458834509800.000000,0.500059,0.054984,0.843509,0.188177,0
-12.145986,-2.337768,4.391552,-3.225554,-0.716937,0.619969,31.027408,-14.709374,-31.109209,4635731269028055000.000000,0.664954,-0.329470,0.259730,0.617921,-29.210137,8.701967,-3.835256,-0.439343,-1.250376,-3.803213,12.904974,42.297726,-12.387408,4635726955059085300.000000,-0.412718,0.645517,0.369534,-0.525754,-8.805635,9.929704,-3.959787,-1.547553,0.394584,1.741124,27.527366,-19.694311,32.207471,4635728458834509800.000000,0.497653,0.057459,0.842677,0.197321,0
-14.502173,-5.344133,3.611522,-2.945345,-0.509499,0.855955,30.965129,-14.142780,-31.541055,4635731143189069800.000000,0.659254,-0.335265,0.252064,0.624056,-27.792765,10.315194,-3.227792,-0.711465,-1.278344,-3.427770,11.291513,42.657163,-12.362295,4635726955059085300.000000,-0.416267,0.638635,0.382436,-0.522120,-9.813021,8.740128,-2.594855,-1.663124,0.216768,1.720686,27.180181,-20.544401,31.888886,4635728634647816200.000000,0.495867,0.059763,0.841303,0.206767,0
-17.429929,-8.402360,3.069500,-2.708366,-0.342664,1.236169,30.887218,-13.634735,-31.853393,4635731143189069800.000000,0.652617,-0.340390,0.245965,0.630656,-25.238615,10.389453,-4.945652,-1.067630,-1.291477,-3.038270,9.931088,43.139566,-11.993821,4635727067186845700.000000,-0.417906,0.632821,0.395016,-0.518512,-8.536545,2.998783,-2.782478,-1.352085,0.178469,1.772186,27.004923,-21.343363,31.604835,4635728673582874600.000000,0.494048,0.062917,0.840028,0.215200,0
-19.260329,-11.256052,2.712873,-2.451569,-0.471174,1.627469,30.579879,-13.396575,-32.229312,4635731143189069800.000000,0.645349,-0.344026,0.240710,0.638146,-23.296536,7.528996,-5.980356,-1.092012,-1.477200,-2.419564,8.933912,43.538610,-11.540116,4635727169807450100.000000,-0.417763,0.627551,0.406268,-0.516333,-10.714050,1.743379,-6.890702,-1.278280,0.005530,1.864258,26.798472,-22.074668,31.496174,4635728673582874600.000000,0.492690,0.066693,0.838365,0.223500,0
-17.344141,-12.329404,2.551826,-2.114081,-0.891606,1.718627,30.049096,-13.368361,-32.705368,4635731143189069800.000000,0.638650,-0.345495,0.235319,0.646053,-21.314503,5.239431,-4.936700,-0.911398,-1.737111,-1.682176,8.024791,43.639316,-11.371465,4635727169807450100.000000,-0.416006,0.622570,0.415604,-0.516352,-11.657147,4.579147,-10.164364,-1.693699,-0.298724,1.920548,26.508812,-22.924739,31.263055,4635728673582874600.000000,0.492407,0.070090,0.835591,0.233261,0
-13.978990,-11.980110,2.618212,-1.768088,-0.973570,1.523456,29.510716,-13.252594,-33.105667,4635731143189069800.000000,0.632976,-0.345970,0.230333,0.653141,-18.180232,5.137298,-3.024787,-0.710274,-1.949966,-0.854220,7.338132,43.637239,-11.281723,4635727169807450100.000000,-0.412576,0.618151,0.422690,-0.518655,-8.625892,6.381672,-8.685212,-2.115568,-0.504718,1.923829,26.133685,-23.863607,30.854604,4635728673582874600.000000,0.492898,0.072823,0.831874,0.244406,0
-12.846376,-11.552767,1.932938,-1.488135,-0.850619,1.417320,29.052755,-13.129269,-33.393577,4635731143189069800.000000,0.627815,-0.346109,0.226258,0.659442,-14.591120,4.651701,-1.356318,-0.556659,-2.089560,0.156678,7.225787,43.805540,-11.143209,4635727169807450100.000000,-0.407075,0.614895,0.427048,-0.523282,-7.694994,6.660812,-4.392922,-2.257707,-0.662308,1.935781,25.872951,-24.745838,30.245266,4635728673582874600.000000,0.493890,0.075454,0.827558,0.255984,0
-12.832498,-10.154061,1.206440,-1.224911,-0.769993,1.394707,28.738756,-13.086336,-33.679378,4635731143189069800.000000,0.622973,-0.345776,0.223069,0.665270,-11.276820,3.551634,-1.523552,-0.446834,-2.156690,1.255128,7.553289,43.928609,-11.192106,4635727113762610200.000000,-0.399300,0.613202,0.428428,-0.530088,-8.201342,7.324661,-1.042346,-2.119154,-0.777447,1.948305,25.700979,-25.742363,29.518408,4635728673582874600.000000,0.495145,0.078524,0.823018,0.267033,0
-13.435288,-8.969084,0.740024,-0.993382,-0.369993,1.399862,28.567853,-13.086336,-33.967305,4635731143189069800.000000,0.618041,-0.345924,0.221555,0.670280,-8.931849,3.290208,-2.856225,-0.276427,-2.181068,2.302439,7.968317,43.807023,-11.426174,4635727062433267700.000000,-0.389543,0.612952,0.426738,-0.538926,-7.895839,7.740686,-0.568224,-1.863850,-0.820442,1.934702,25.482340,-26.647872,28.933628,4635728673582874600.000000,0.496407,0.082110,0.818559,0.277127,0
-13.792690,-8.335597,0.071232,-0.737187,-0.155604,1.440818,28.366654,-13.091387,-34.253113,4635731098765482000.000000,0.613136,-0.345956,0.221358,0.674818,-8.185331,3.914481,-4.152838,-0.006080,-2.163455,3.292654,8.689179,43.524650,-11.598637,4635727062433267700.000000,-0.378196,0.613928,0.421790,-0.549685,-7.450848,7.550757,-2.564161,-1.617212,-0.804697,1.867394,25.180463,-27.456868,28.454231,4635728673582874600.000000,0.497547,0.085947,0.814336,0.286211,0
-13.276803,-7.606623,-1.113233,-0.463371,-0.502149,1.466897,28.087192,-13.234869,-34.495564,4635731035814887400.000000,0.608845,-0.344274,0.221074,0.679639,-8.401387,4.396265,-5.405353,0.266968,-2.084364,4.362383,9.951306,43.073501,-11.722839,4635727062433267700.000000,-0.365107,0.616326,0.413216,-0.562220,-7.822810,7.155695,-3.992005,-1.418666,-0.764205,1.791175,24.803164,-28.120405,27.840549,4635728673582874600.000000,0.498514,0.089880,0.810374,0.294447,0
-11.707903,-6.813197,-1.438912,-0.169915,-0.883503,1.435687,27.828290,-13.599782,-34.545297,4635731035814887400.000000,0.605386,-0.340780,0.220599,0.684626,-7.918917,3.864462,-5.954562,0.458743,-1.959033,5.584993,11.535431,42.512560,-12.033836,4635727062433267700.000000,-0.349669,0.620514,0.400659,-0.576338,-7.882642,7.939492,-4.131629,-1.355471,-0.707294,1.692602,24.462451,-28.625360,27.353358,4635728673582874600.000000,0.499340,0.093532,0.806568,0.302258,0
-9.709930,-6.125729,-0.791184,0.153099,-0.706727,1.302160,27.568629,-13.908822,-34.509043,4635731035814887400.000000,0.602578,-0.337082,0.221292,0.688698,-6.943412,3.847910,-5.507720,0.554922,-1.812101,6.751680,13.539421,41.874105,-12.473278,4635727062433267700.000000,-0.331663,0.626406,0.384354,-0.591513,-8.213426,8.130131,-3.934080,-1.324596,-0.636119,1.592496,24.342661,-29.171341,27.041575,4635728673582874600.000000,0.499998,0.096815,0.802918,0.309760,0
-9.012248,-5.497773,-0.081802,0.498865,0.081759,1.080528,27.196091,-14.072558,-34.549063,4635731035814887400.000000,0.600145,-0.334971,0.224640,0.690765,-8.068345,5.334481,-5.126052,0.389484,-1.638554,7.672119,15.909773,41.064714,-12.906376,4635727062433267700.000000,-0.310914,0.633825,0.365447,-0.606669,-9.667209,8.609568,-2.036343,-1.264102,-0.568544,1.515020,24.199507,-29.792744,26.611014,4635728673582874600.000000,0.500467,0.099869,0.799458,0.316902,0
-10.261506,-4.892350,-0.225724,0.844978,0.885651,0.842655,27.144101,-14.445352,-34.368182,4635731035814887400.000000,0.598108,-0.334521,0.230654,0.690769,-11.297402,7.166143,-5.242793,-0.164252,-1.285439,8.341402,18.587932,39.963424,-13.225377,4635727062433267700.000000,-0.287189,0.643143,0.345293,-0.620212,-12.210762,9.115606,0.164269,-1.105919,-0.541648,1.479093,23.910970,-30.427514,26.077227,4635728673582874600.000000,0.500794,0.103090,0.796222,0.323432,0
-12.348562,-4.506771,-1.270012,1.180922,1.177008,0.618689,27.516182,-15.069204,-34.000678,4635731035814887400.000000,0.596875,-0.334270,0.238038,0.689450,-14.915878,8.282907,-5.778768,-0.943940,-0.798810,8.718053,21.377971,38.535806,-13.247709,4635727006427079700.000000,-0.260732,0.654363,0.325116,-0.630974,-14.286012,9.114490,1.330617,-0.865488,-0.503388,1.494145,23.403805,-31.072287,25.767606,4635728673582874600.000000,0.500841,0.106805,0.793337,0.329193,0
-13.582122,-4.506817,-2.504000,1.509995,0.998913,0.383790,27.729360,-15.572257,-33.723680,4635731035814887400.000000,0.596916,-0.332902,0.245584,0.687427,-17.880190,7.888890,-6.337164,-1.726630,-0.363156,8.922153,23.872972,37.068322,-12.885288,4635726731058991100.000000,-0.231832,0.666945,0.305513,-0.638827,-16.773855,9.094516,1.261827,-0.586826,-0.434451,1.528322,23.044275,-31.449572,25.571196,4635728673582874600.000000,0.500462,0.111115,0.790921,0.334118,0
-13.262687,-5.089402,-3.658545,1.875361,0.689932,0.144478,27.726764,-16.015504,-33.468604,4635731035814887400.000000,0.598426,-0.329962,0.253058,0.684816,-20.317777,6.619925,-6.430155,-2.379823,-0.007049,9.142724,26.471808,35.460324,-12.278696,4635726525562355700.000000,-0.200639,0.680391,0.286234,-0.644114,-20.255010,9.963345,0.209879,-0.374359,-0.361430,1.649399,22.926621,-31.697052,25.388089,4635728673582874600.000000,0.499551,0.116159,0.788858,0.338613,0
-12.016178,-5.812013,-3.790168,2.287268,0.517569,-0.066151,27.955598,-16.576504,-33.037312,4635731035814887400.000000,0.601233,-0.325697,0.260966,0.681423,-22.814467,5.362556,-6.601963,-2.915079,0.276725,9.331072,29.227024,33.526299,-11.619493,4635726525562355700.000000,-0.167444,0.694179,0.267157,-0.647074,-25.227689,10.196506,0.447174,-0.097428,-0.268698,1.882826,22.593727,-32.008885,25.214964,4635728673582874600.000000,0.497844,0.122409,0.787221,0.342711,0
-10.445154,-6.172940,-2.610123,2.643319,0.548508,-0.209530,28.340312,-17.258676,-32.386713,4635731035814887400.000000,0.604828,-0.320747,0.269737,0.677161,-24.527600,4.003346,-6.804841,-3.324084,0.511539,9.463339,31.779479,31.424540,-10.807516,4635726525562355700.000000,-0.132689,0.707850,0.248177,-0.647882,-30.278871,8.108466,1.188395,0.183373,-0.320912,2.469906,22.003422,-32.338453,25.203844,4635728585753525200.000000,0.495284,0.131230,0.785512,0.347050,0
-9.081716,-5.691258,-0.723018,2.875323,0.808287,-0.311927,28.616553,-17.996148,-31.759386,4635731035814887400.000000,0.608641,-0.316014,0.279640,0.671932,-25.242610,2.678128,-7.207369,-3.510143,0.654190,9.621573,34.220668,29.104455,-9.804537,4635726189679834100.000000,-0.096868,0.720903,0.228710,-0.646999,-38.608830,5.205475,-0.396812,0.196356,-0.521690,3.199224,21.248829,-32.737941,25.308139,4635728566208692200.000000,0.492248,0.142737,0.782896,0.352693,0
-8.256430,-4.863025,1.158690,2.998805,1.150010,-0.287443,28.834957,-18.735735,-31.125667,4635731035814887400.000000,0.612045,-0.311840,0.290738,0.666054,-24.885474,2.328795,-8.484034,-3.506474,0.691183,9.823025,36.496685,26.715442,-8.907443,4635725881317261300.000000,-0.060365,0.732901,0.208193,-0.644878,-44.943017,2.306750,-1.500199,0.063056,-0.555924,3.423874,20.397659,-33.282799,25.290422,4635728566208692200.000000,0.488977,0.154725,0.779729,0.359144,0
-7.580614,-3.046867,2.075502,3.118907,1.411927,-0.141405,29.133727,-19.397503,-30.365460,4635731035814887400.000000,0.614762,-0.307849,0.302969,0.659928,-23.246491,2.660050,-10.651139,-3.359332,0.698239,10.095572,38.626993,24.013851,-8.144271,4635725881317261300.000000,-0.021277,0.743058,0.188584,-0.641754,-45.506063,-1.202899,-4.166161,-0.505503,-0.494091,3.299566,19.660809,-33.916394,24.991999,4635728566208692200.000000,0.485959,0.165026,0.775761,0.367157,0
-6.640099,0.036175,1.930134,3.216864,1.461215,-0.036994,29.440262,-20.029653,-29.583898,4635731035814887400.000000,0.617124,-0.303545,0.315663,0.653740,-21.625194,1.644824,-13.308966,-2.831641,0.652732,10.557236,40.597737,20.816330,-7.324341,4635725881317261300.000000,0.017431,0.752064,0.165785,-0.637660,-46.258027,-4.643510,-5.762685,-1.365060,-0.485909,2.958185,18.952726,-34.693237,24.568064,4635728566208692200.000000,0.483935,0.172440,0.770582,0.377194,0
-6.015590,3.455088,2.316685,3.039037,1.148577,0.036616,29.701664,-20.867989,-28.715823,4635731035814887400.000000,0.619344,-0.298687,0.327097,0.648234,-21.369074,-1.101473,-14.745900,-1.920414,0.555480,11.203217,42.334017,17.323905,-6.610295,4635725601445997600.000000,0.055019,0.759869,0.138261,-0.632816,-48.874962,-10.642056,-8.050268,-1.305976,-0.291415,2.745215,18.115046,-35.498786,24.208536,4635728566208692200.000000,0.481494,0.178952,0.765907,0.386687,0
-6.085664,7.239116,4.605595,2.602513,0.818079,-0.006616,29.970207,-21.715575,-27.948393,4635731035814887400.000000,0.621489,-0.294073,0.336391,0.643516,-21.866430,-4.378696,-15.046780,-1.251212,0.530709,11.769188,43.841408,13.190534,-6.424724,4635725176543739900.000000,0.091762,0.766526,0.106825,-0.626582,-51.521548,-22.341141,-7.540408,-1.431682,0.021176,2.818769,17.248443,-36.174608,23.866777,4635728566208692200.000000,0.477950,0.184912,0.761474,0.396898,0
-6.032583,10.569731,7.601694,2.400681,0.787905,-0.293353,30.299261,-22.297035,-27.292898,4635731035814887400.000000,0.624121,-0.290267,0.344672,0.638294,-21.854694,-8.298761,-15.534861,-1.205139,0.651915,12.093297,45.036712,8.746899,-6.404762,4635725022323802100.000000,0.128782,0.771973,0.073945,-0.618066,-47.060872,-24.653428,-4.599715,-1.761652,-0.080383,3.121800,16.242006,-36.771684,23.365287,4635728566208692200.000000,0.474388,0.191308,0.755911,0.408603,0
-5.524362,12.216922,10.257790,2.348594,1.028203,-0.717018,30.714272,-22.684490,-26.699834,4635731035814887400.000000,0.627395,-0.287808,0.352884,0.631676,-20.988050,-16.059249,-15.273252,-1.206134,0.860266,12.442672,45.896180,4.374840,-6.056795,4635725022323802100.000000,0.166243,0.776235,0.039902,-0.606819,-35.729444,-17.409883,-1.656061,-2.387265,-0.299845,3.594654,15.264166,-37.467495,22.598525,4635728566208692200.000000,0.471081,0.198276,0.748266,0.422927,0
-4.217297,10.508428,11.108700,2.043972,1.440836,-1.290541,31.199826,-22.858076,-26.118971,4635731035814887400.000000,0.631123,-0.288037,0.360637,0.623426,-19.356550,-28.893543,-15.133993,-0.374467,0.865390,12.956457,46.178556,-0.349245,-5.568530,4635725022323802100.000000,0.201770,0.779212,0.002021,-0.593391,-30.813630,-7.413387,-2.941624,-0.903797,-0.855944,4.598702,14.180193,-38.267446,22.169981,4635728566208692200.000000,0.466344,0.212195,0.741047,0.433988,0
-2.621369,5.113077,10.687296,1.607112,1.870877,-1.960470,31.881531,-22.795274,-25.474668,4635731035814887400.000000,0.635320,-0.291492,0.367524,0.613455,-16.792982,-40.618043,-15.288207,1.209087,0.741667,13.225473,45.864685,-5.271322,-5.239245,4635725022323802100.000000,0.232115,0.781142,-0.040756,-0.578169,-34.776055,-4.324696,-14.581429,2.087887,-0.915063,5.523641,12.500552,-38.716075,22.476838,4635728566208692200.000000,0.457237,0.234780,0.737934,0.437339,0
-0.390836,-1.097881,11.360052,1.297173,2.089501,-2.511825,32.638915,-22.367646,-24.654499,4635731035814887400.000000,0.640091,-0.297115,0.373454,0.602112,-15.505735,-43.111856,-13.828180,2.365790,0.915511,12.955196,45.014928,-10.295722,-4.852635,4635725022323802100.000000,0.257200,0.782546,-0.085224,-0.560541,-42.617893,7.692683,-19.904504,3.599536,-0.788198,6.839902,10.633981,-38.822836,23.307722,4635728741759618000.000000,0.443484,0.263864,0.735919,0.438315,0
2.709649,-4.762822,11.314136,1.096802,2.002812,-2.778659,33.300245,-21.726466,-23.807344,4635731035814887400.000000,0.645274,-0.303404,0.378236,0.590343,-20.308132,-38.117983,-11.082849,2.518564,1.271491,12.366404,43.753645,-15.101751,-4.132730,4635725022323802100.000000,0.279608,0.783133,-0.127596,-0.540594,-46.027816,2.113322,-20.652588,4.962638,-1.166892,7.700265,8.554665,-38.552367,24.472639,4635728780957057000.000000,0.427264,0.298460,0.733826,0.435738,0
6.185271,-4.366186,8.588012,0.878103,1.873989,-2.778812,34.088300,-21.203873,-23.155508,4635730991501937700.000000,0.650243,-0.309899,0.382049,0.578952,-30.124325,-35.988824,-9.319633,2.249694,1.452589,11.610026,42.354195,-19.372862,-3.240113,4635725022323802100.000000,0.300407,0.782393,-0.166390,-0.519549,-42.956956,1.358368,-9.015347,5.868912,-0.614643,7.492627,6.360779,-37.831411,25.992685,4635728780957057000.000000,0.407954,0.332576,0.733503,0.430046,0
9.140805,-1.022734,5.417668,0.700764,2.007800,-2.504735,35.036708,-20.718348,-22.658729,4635730928440705000.000000,0.653979,-0.316700,0.386073,0.568296,-39.387597,-38.983529,-8.620725,2.010769,1.350498,10.526435,40.602104,-23.226828,-2.369518,4635725022323802100.000000,0.318723,0.780325,-0.200983,-0.499114,-54.919701,11.288732,-14.352133,3.588039,0.427427,7.243265,4.220875,-37.145391,27.499972,4635728780957057000.000000,0.388511,0.359739,0.730223,0.431766,0
10.232396,2.507417,3.131953,0.554568,2.339526,-1.926641,35.867339,-20.162660,-22.017877,4635730928440705000.000000,0.655502,-0.323698,0.391348,0.558912,-44.251302,-42.177266,-6.256313,1.577720,1.045077,9.138942,38.557366,-26.457881,-1.608931,4635725413688848400.000000,0.334563,0.776976,-0.230352,-0.480951,-67.383093,-3.448182,-6.538252,0.808057,-0.003088,6.838009,2.027319,-36.945240,28.210822,4635728780957057000.000000,0.374892,0.381593,0.721142,0.440223,0
8.766058,4.970098,3.823182,0.255165,2.896718,-1.141224,36.682553,-19.750642,-20.923845,4635730928440705000.000000,0.653773,-0.331477,0.398440,0.551316,-43.677638,-45.122738,-1.292074,0.750052,0.684839,7.385378,36.582897,-28.976906,-1.008986,4635725885750376400.000000,0.348651,0.772573,-0.252749,-0.466573,-45.989326,-21.183611,-6.908690,-0.581884,0.591676,5.875253,0.057307,-37.027158,28.049584,4635728780957057000.000000,0.363192,0.397021,0.711459,0.451987,0
5.186960,6.667563,6.731974,0.052821,3.382972,-0.337662,37.462094,-19.587846,-19.709130,4635730928440705000.000000,0.648989,-0.339528,0.407427,0.545469,-40.921335,-48.946304,3.042579,-0.002334,0.185029,5.302615,35.091599,-30.818406,-0.762710,4635725988691443700.000000,0.360212,0.767797,-0.267655,-0.457270,-28.044034,-36.885040,-10.294220,-1.658979,0.897663,4.818442,-1.739540,-37.079397,27.562595,4635728780957057000.000000,0.354162,0.406896,0.701579,0.465609,0
0.829986,7.837254,6.486390,0.079284,2.645668,0.328498,37.846608,-19.610885,-18.931258,4635730928440705000.000000,0.643874,-0.344645,0.415356,0.542333,-35.745265,-52.638450,4.242634,-0.350984,-0.328221,3.202663,34.152398,-32.115938,-0.852194,4635725988691443700.000000,0.367070,0.762995,-0.277722,-0.453838,-31.114251,-25.931196,-8.740819,-2.381747,0.731135,3.922570,-3.300111,-37.375403,27.117487,4635728780957057000.000000,0.348433,0.413239,0.691277,0.479546,0
-2.947652,8.870322,3.144172,-0.254639,1.024945,0.842576,37.903988,-19.789865,-18.656427,4635730928440705000.000000,0.639873,-0.346079,0.418889,0.543438,-27.313845,-53.635280,3.472046,-0.529046,-0.439516,1.197066,33.612656,-32.814179,-1.086134,4635726044588384300.000000,0.370528,0.759944,-0.281225,-0.453989,-36.145803,-15.879670,-2.696078,-2.737746,0.724350,3.314846,-4.624154,-37.849084,26.460843,4635728780957057000.000000,0.344427,0.417183,0.681057,0.493447,0
-4.817781,10.015414,1.266317,-0.800612,0.246742,1.088353,37.873781,-20.084207,-18.506290,4635730928440705000.000000,0.635865,-0.346765,0.419452,0.547256,-18.478050,-51.875197,1.603604,-0.865655,-0.191305,-0.722305,33.587590,-32.845096,-1.322419,4635726263756446700.000000,0.371716,0.759080,-0.277598,-0.456687,-30.073646,-18.538634,1.619565,-3.239688,0.599211,2.522801,-5.796180,-38.409427,25.343861,4635728780957057000.000000,0.343169,0.418284,0.670789,0.507264,0
-4.646266,11.631711,1.992540,-0.949438,0.597329,0.997810,37.830742,-20.262902,-18.223276,4635730928440705000.000000,0.631215,-0.348791,0.420460,0.550569,-12.060325,-47.614440,-0.354211,-1.353694,0.126950,-2.224538,33.952423,-32.461203,-1.517713,4635726418188173300.000000,0.371930,0.759752,-0.267779,-0.461237,-24.848433,-22.834155,5.957547,-3.244975,0.338932,1.558225,-6.474803,-38.903331,24.125473,4635728780957057000.000000,0.344596,0.417121,0.661641,0.519129,0
-4.015998,12.993551,0.916828,-1.139602,1.341870,0.918187,37.901213,-20.378556,-17.872908,4635730928440705000.000000,0.625133,-0.353146,0.422852,0.552895,-10.815003,-43.425108,-0.807435,-2.090328,0.479673,-3.796602,34.720714,-31.643587,-1.821019,4635726418188173300.000000,0.371765,0.761545,-0.250961,-0.467822,-19.456372,-24.691745,8.430686,-2.785590,0.289950,0.580968,-6.719417,-39.449221,23.293721,4635728780957057000.000000,0.347409,0.413953,0.654992,0.528143,0
-4.255251,13.831313,-3.402576,-1.555423,1.475090,0.959160,38.036878,-20.507045,-17.700735,4635730972709686300.000000,0.618059,-0.358789,0.424661,0.555820,-13.259146,-39.735344,-0.574248,-2.017470,0.591343,-4.686178,36.006188,-30.233538,-2.319188,4635726418188173300.000000,0.369606,0.764303,-0.231190,-0.475168,-11.790922,-23.683082,8.023616,-2.463184,0.477287,-0.546772,-6.690854,-40.000787,22.529123,4635728780957057000.000000,0.351592,0.407707,0.651184,0.534900,0
-5.110018,14.177087,-5.259179,-1.987123,1.011214,1.018851,38.087097,-20.486834,-17.781229,4635731035814887400.000000,0.610963,-0.364329,0.424324,0.560302,-15.274316,-30.845492,-1.627800,-2.152415,0.818730,-5.999630,37.430874,-28.543167,-2.708173,4635726529942872100.000000,0.365277,0.768121,-0.206484,-0.483659,-5.596188,-21.177799,7.261003,-2.398112,0.571474,-1.841433,-6.428145,-40.540096,21.690326,4635728780957057000.000000,0.358245,0.397777,0.649764,0.539667,0
-5.829700,13.610195,0.720337,-2.170155,0.498264,1.002953,38.051890,-20.391394,-17.976529,4635731035814887400.000000,0.604470,-0.369127,0.422187,0.565791,-15.530589,38.490352,-17.940777,0.525783,0.171110,-3.052024,38.030427,-27.690756,-2.407526,4635726632936538100.000000,0.357599,0.771839,-0.197500,-0.487218,-1.539614,-18.585243,6.979545,-2.315386,0.628581,-3.124898,-5.993333,-41.077209,20.825855,4635728780957057000.000000,0.367415,0.384280,0.650599,0.542269,0
-8.752084,9.326201,22.681047,0.178220,-0.101350,1.164890,37.966437,-20.670192,-18.076281,4635731035814887400.000000,0.602225,-0.366289,0.424300,0.568443,-68.245738,122.511791,-7.428407,5.915214,-3.199300,2.824599,37.983087,-27.478265,-1.841724,4635726632936538100.000000,0.341096,0.771278,-0.223988,-0.488481,1.546473,-14.775202,7.743764,-2.069853,0.712918,-4.441952,-4.741671,-41.594391,20.008988,4635728780957057000.000000,0.378811,0.367264,0.653997,0.542133,0
-10.580967,3.695655,44.607357,3.761519,-0.071100,1.405625,37.725086,-21.429928,-17.833466,4635730947343611900.000000,0.604731,-0.354049,0.435277,0.565229,-130.571122,55.300369,56.217913,-2.086226,-2.158356,-5.412775,38.796444,-26.094525,-2.428616,4635726632936538100.000000,0.334675,0.768715,-0.205376,-0.504867,5.956561,-10.615919,8.620637,-1.862615,0.562890,-6.039080,-2.864670,-42.097130,19.273104,4635728780957057000.000000,0.393692,0.346355,0.659696,0.538374,0
-8.310917,-1.454878,23.532840,2.063104,1.065877,2.081559,37.291379,-22.328247,-17.100204,4635730821066522600.000000,0.600941,-0.347458,0.446016,0.564989,-75.845973,-37.131753,57.220687,-10.258660,-0.270836,-10.813858,40.333017,-23.427478,-4.464420,4635726632936538100.000000,0.343943,0.761629,-0.149174,-0.528556,8.678488,-9.592137,9.714368,-1.657476,0.111122,-7.613801,-0.438583,-42.657410,18.463202,4635728605556034600.000000,0.412704,0.322166,0.666803,0.530339,0
-16.395761,-42.444531,-2.755834,-0.128196,2.735279,3.150421,37.041562,-23.219343,-16.006582,4635730821066522600.000000,0.588218,-0.348213,0.457217,0.568946,17.916374,-22.964473,-2.360101,-11.358139,-1.137897,-9.350233,41.688552,-20.212744,-6.723789,4635726632936538100.000000,0.358071,0.747251,-0.095861,-0.551554,6.003682,-11.358571,8.648404,-1.176999,-0.407579,-8.931017,2.427288,-42.892150,17.922258,4635728566208692200.000000,0.434911,0.295894,0.675017,0.517350,0
-29.669970,-83.628847,-4.771247,3.261509,0.532686,2.904907,36.716213,-24.256224,-15.190295,4635730821066522600.000000,0.585002,-0.335795,0.470552,0.568855,52.570460,-17.139436,-85.762651,-12.866207,2.856281,-8.902566,43.023422,-16.460075,-7.710202,4635726744626299900.000000,0.378052,0.736576,-0.034133,-0.559792,1.870835,-13.811629,7.225579,0.062345,-0.887785,-10.301806,5.628184,-42.731814,17.755262,4635728566208692200.000000,0.459182,0.268567,0.685612,0.496951,0
-26.200287,-37.449076,-0.985466,5.563444,-4.840231,1.989463,35.789840,-25.571767,-15.280850,4635730821066522600.000000,0.597311,-0.306601,0.474645,0.569146,30.058212,-85.380638,-84.632542,-0.835258,3.357824,-2.829709,44.159310,-13.612204,-7.498140,4635726847684902900.000000,0.374465,0.743409,-0.018189,-0.553884,1.238232,-17.171423,5.853903,2.461511,-1.100632,-11.333906,9.854479,-41.702361,18.146084,4635728566208692200.000000,0.482544,0.242759,0.700468,0.466437,0
-12.748185,4.559171,26.120126,3.456080,-2.757924,0.542779,34.905975,-26.640887,-15.529961,4635730953718859800.000000,0.605835,-0.290237,0.476749,0.566954,-42.906381,-101.792952,-17.064572,10.199703,-0.660716,-1.819066,44.607364,-12.902413,-6.818002,4635726847684902900.000000,0.338320,0.757279,-0.037086,-0.557398,-5.738612,-15.081343,1.047381,5.156605,-1.437821,-11.963557,14.307942,-39.915628,19.354384,4635728302714471400.000000,0.504095,0.220543,0.718642,0.425209,0
-7.938829,-3.797988,21.867186,2.929209,2.640862,-0.164599,34.985678,-26.968309,-14.604417,4635731143189069800.000000,0.604481,-0.289271,0.490230,0.557315,-62.357699,-36.659501,4.771361,8.457723,0.230567,-5.114020,44.915767,-12.370668,-5.703914,4635726847684902900.000000,0.299551,0.769920,-0.040223,-0.562027,-19.971301,-7.129495,-4.371371,6.450879,-2.547667,-12.623121,18.504046,-37.490899,21.030480,4635728068199787500.000000,0.527284,0.200315,0.735010,0.376305,0
-33.274625,5.587545,9.925653,3.574838,3.653115,-1.212683,35.820086,-26.938868,-12.687855,4635731143189069800.000000,0.604040,-0.291059,0.506308,0.542284,-34.442912,1.107815,6.058695,4.733810,1.352305,-5.167425,45.554998,-10.592414,-4.583155,4635726847684902900.000000,0.272398,0.779557,-0.033018,-0.563028,-30.969051,-3.009184,-8.997188,7.341673,-3.548082,-13.164363,23.050932,-33.905226,22.427238,4635728028800909300.000000,0.551589,0.181182,0.748170,0.321191,0
-54.200034,20.796099,1.012804,3.665365,-0.696515,-2.201163,36.330680,-26.922349,-11.756387,4635731143189069800.000000,0.614871,-0.284759,0.510236,0.529627,-17.460164,15.788787,-8.238556,3.989095,-0.311606,-4.044975,45.937461,-8.816955,-4.151018,4635726847684902900.000000,0.249868,0.783727,-0.029575,-0.567858,-35.352666,-1.536788,-15.674939,6.755126,-4.394455,-13.526443,27.539796,-29.835527,23.277092,4635728028800909300.000000,0.577119,0.159945,0.755704,0.265072,0
-36.432047,23.716324,-8.969501,3.342507,-8.153849,-2.462226,36.164854,-26.803933,-12.759942,4635731143189069800.000000,0.641195,-0.263137,0.493583,0.525361,1.902879,16.639086,-8.837106,4.520505,-0.255223,-3.796061,46.030768,-7.657918,-4.124599,4635726847684902900.000000,0.226054,0.788096,-0.028126,-0.571851,-37.470937,0.662361,-16.384851,6.219316,-4.901782,-13.480465,31.586405,-25.391044,23.633025,4635727853502957600.000000,0.602083,0.137446,0.758162,0.209275,0
-14.482072,17.212207,22.540618,2.651832,-5.018114,-2.751717,36.230745,-26.353041,-13.809438,4635731187380748300.000000,0.660261,-0.250534,0.482943,0.517740,3.903984,2.263502,-3.640881,3.837830,0.390401,-3.590388,46.241268,-6.479155,-3.797255,4635726847684902900.000000,0.204924,0.792907,-0.025102,-0.573301,-42.213437,9.930576,-18.291036,6.245510,-4.637400,-13.125164,35.053582,-20.505229,23.283732,4635727288109777900.000000,0.623390,0.115340,0.757957,0.153565,0
-1.851549,9.990222,25.729384,2.434834,1.725980,-3.118474,36.867594,-25.719005,-13.449217,4635731250563252200.000000,0.665986,-0.253687,0.489755,0.502241,-3.586339,-9.124996,-2.936030,2.595280,-0.025470,-2.947874,46.445807,-5.231625,-3.489823,4635726959440653300.000000,0.189313,0.795299,-0.021578,-0.575494,-46.969161,20.794162,-24.441177,4.714330,-5.393582,-12.673042,37.822696,-15.795823,22.426682,4635727169807450100.000000,0.645122,0.090728,0.751664,0.102898,0
-10.491441,6.849723,10.950866,2.403635,1.774202,-3.438270,37.577082,-25.055539,-12.526477,4635731250563252200.000000,0.672017,-0.257593,0.496126,0.485693,-7.652136,0.632413,-1.790104,1.732178,-0.334492,-2.803666,46.491149,-4.148160,-3.518222,4635727062433267700.000000,0.176835,0.796076,-0.016700,-0.578545,-39.337338,28.042062,-26.269000,4.122958,-5.834772,-11.677943,40.110252,-11.026150,21.028569,4635727169807450100.000000,0.665793,0.067521,0.740945,0.056225,0
-18.169718,3.380626,11.139956,2.440585,0.535497,-3.555299,38.201119,-24.163051,-11.776691,4635731250563252200.000000,0.680651,-0.259041,0.498803,0.469901,-9.295089,11.175375,-7.666390,1.651521,-0.178304,-2.785376,46.498992,-3.058780,-3.487841,4635727062433267700.000000,0.164648,0.797019,-0.011570,-0.580962,-37.786572,24.123414,-29.271743,4.253391,-5.850930,-10.733713,41.931134,-6.567597,19.307935,4635727169807450100.000000,0.684201,0.047389,0.727660,0.011584,0
-14.708379,-1.419631,8.414302,2.607734,0.411303,-3.348884,38.840135,-23.146964,-11.258983,4635731338920841200.000000,0.689097,-0.259260,0.501513,0.454328,-11.455974,6.260318,-9.955027,1.802882,0.149691,-2.471960,46.509710,-2.064229,-3.361401,4635727062433267700.000000,0.152703,0.798709,-0.007620,-0.581969,-45.578808,30.297214,-40.252084,3.256742,-6.439736,-9.482703,43.226207,-2.633480,17.408341,4635726906906281000.000000,0.702690,0.028112,0.710442,-0.026625,0
-12.028086,-6.228089,9.749016,2.928952,1.087375,-3.245290,39.642833,-22.296757,-10.533228,4635731465311617000.000000,0.696048,-0.259533,0.506712,0.437496,-14.316739,-0.694070,-4.480143,2.108822,0.274745,-2.268182,46.440838,-1.272781,-3.282306,4635727062433267700.000000,0.140214,0.800758,-0.005008,-0.582324,-42.833036,50.206953,-42.061403,2.933948,-6.082830,-9.408386,43.944244,1.169384,14.941817,4635726847684902900.000000,0.718480,0.008087,0.692590,-0.063560,0
-12.502420,-12.592334,8.469899,3.401580,1.753821,-3.337101,40.510986,-21.434489,-9.409597,4635731465311617000.000000,0.701987,-0.259740,0.514399,0.418501,-13.486106,-4.241758,0.135808,2.532696,0.381617,-2.072888,46.464340,-0.528172,-3.101107,4635727062433267700.000000,0.126760,0.803167,-0.004013,-0.582098,-36.900923,52.788668,-40.201141,5.257166,-4.924173,-9.263632,44.245813,4.846621,12.602722,4635726847684902900.000000,0.729188,-0.004275,0.675950,-0.106577,0
-11.811107,-19.298958,5.506380,4.062865,1.813853,-3.253545,41.268580,-20.426367,-8.122889,4635731376994966500.000000,0.708021,-0.257810,0.523247,0.398061,-10.592146,-2.819523,-0.999764,2.901166,0.576838,-1.921667,46.566370,0.171985,-2.921950,4635727062433267700.000000,0.112418,0.806079,-0.004314,-0.581017,-36.698641,50.769405,-48.813907,9.992626,-4.044810,-6.652714,44.278498,8.486396,10.399807,4635726847684902900.000000,0.736771,0.005500,0.658176,-0.154733,0
-6.093918,-21.471394,1.663850,4.259565,1.147574,-2.545617,41.799417,-19.691439,-6.969475,4635731250563252200.000000,0.714194,-0.252525,0.530954,0.379797,-9.249316,-0.219456,-3.003481,2.970812,0.844379,-1.756910,46.627404,0.793052,-2.836504,4635727062433267700.000000,0.098220,0.809492,-0.005211,-0.578833,-25.348864,61.986118,-62.298344,12.986540,-3.166843,-4.689485,44.146765,11.546059,7.836447,4635726847684902900.000000,0.740830,0.030395,0.639064,-0.204561,0
-0.092555,-19.731973,-0.186531,4.403110,0.984856,-1.815785,42.098882,-19.447877,-6.057503,4635731250563252200.000000,0.719410,-0.244830,0.538938,0.363391,-12.597214,1.416120,-0.119588,2.987320,1.009832,-1.540846,46.688441,1.290120,-2.497089,4635727062433267700.000000,0.084468,0.813130,-0.006809,-0.575880,-21.606932,68.237043,-69.404266,13.071486,-2.636331,-3.268702,43.938273,13.758639,5.217380,4635727022900807700.000000,0.742169,0.059688,0.619180,-0.249475,0
2.877604,-17.110357,-1.741403,5.244029,1.741013,-1.582700,42.425486,-19.216883,-4.972175,4635731250563252200.000000,0.723075,-0.235115,0.550426,0.344841,-18.405551,1.131339,2.855100,3.180272,1.089558,-1.437641,46.666944,1.705146,-1.929725,4635727062433267700.000000,0.070293,0.816843,-0.009190,-0.572488,-25.534022,64.814246,-65.842830,11.577301,-1.943009,-1.802822,43.668737,15.172031,2.684677,4635727675688933400.000000,0.741489,0.088699,0.600858,-0.285123,0
3.555228,-14.410343,-4.117533,6.247719,2.184096,-1.616559,42.822613,-18.677072,-3.400619,4635731250563252200.000000,0.726249,-0.222926,0.564269,0.323212,-19.151041,1.042496,2.072373,3.432083,1.252378,-1.532233,46.607377,2.291560,-1.463431,4635727062433267700.000000,0.055023,0.820813,-0.011800,-0.568418,-17.813546,64.593893,-61.233831,8.711341,-1.092356,-1.120699,43.427832,15.923609,0.727900,4635727814052544500.000000,0.739134,0.111416,0.587172,-0.310640,0
1.314160,-11.555654,-3.831832,6.336928,2.327643,-1.740836,43.171586,-17.958384,-1.606257,4635731250563252200.000000,0.728731,-0.210767,0.578077,0.300592,-13.710970,-0.248276,-1.009973,3.587132,1.504356,-1.605343,46.582964,2.998083,-1.142147,4635727062433267700.000000,0.039045,0.825181,-0.014468,-0.563332,-0.511045,55.070449,-51.911949,6.128406,-1.152757,-0.476167,43.275567,16.299454,-0.774532,4635727814052544500.000000,0.738203,0.127568,0.575745,-0.327567,0
-2.305229,-8.911756,-3.194935,5.476656,2.189047,-1.910085,43.513359,-17.224507,0.027534,4635731206441287700.000000,0.730446,-0.201292,0.589793,0.279418,-8.896952,-2.148943,-4.589726,3.769943,1.715563,-1.422200,46.641059,3.625065,-0.664134,4635727062433267700.000000,0.022867,0.829797,-0.018157,-0.557301,3.491962,49.357088,-51.911347,5.790092,-1.152194,0.302120,43.220953,16.427632,-2.053418,4635727814052544500.000000,0.738037,0.144467,0.564000,-0.341078,0
-4.250150,-7.684412,-5.659681,5.161837,1.638149,-1.910521,43.784914,-16.576091,1.275737,4635731143189069800.000000,0.732792,-0.192009,0.599091,0.259302,-5.990881,-2.358497,-7.629232,4.018210,1.835491,-1.109123,46.781677,4.122136,0.102419,4635727062433267700.000000,0.006557,0.834402,-0.023488,-0.550616,-15.855887,108.602111,-23.166326,1.974119,-0.720773,2.928787,43.403423,15.736304,-2.900225,4635728076837744600.000000,0.742579,0.156359,0.557190,-0.337145,0
-4.503464,-4.208626,-7.440554,5.220696,1.213438,-2.102022,43.990921,-15.912739,2.301159,4635731143189069800.000000,0.736026,-0.182453,0.606652,0.238641,-3.110951,-2.651304,-10.509007,4.271555,1.908087,-0.765809,46.756832,4.530820,0.804602,4635727062433267700.000000,-0.009843,0.838832,-0.030585,-0.543441,-35.497037,130.493920,-7.167802,-4.754517,-0.826330,4.884366,43.944024,14.172637,-3.029686,4635728311782126600.000000,0.754111,0.151744,0.557940,-0.311436,0
-5.785163,0.540012,-6.533549,5.141341,1.434991,-2.357658,44.247276,-14.950285,3.431886,4635731143189069800.000000,0.738459,-0.173899,0.614256,0.217087,-0.858333,-3.485271,-13.143981,4.763286,1.911266,-0.326141,46.535650,4.851173,1.321722,4635727062433267700.000000,-0.029172,0.842661,-0.043795,-0.535867,-21.247593,53.904035,-28.909173,-3.922463,-0.267826,4.632554,44.574295,12.321987,-2.469830,4635728351460327400.000000,0.762946,0.149772,0.559116,-0.287874,0
-9.184827,5.602923,-6.058981,5.011040,1.664491,-2.482250,44.533718,-13.728024,4.638446,4635731099082286100.000000,0.739880,-0.166168,0.621987,0.195185,1.646244,-3.480311,-14.823406,5.438070,1.916033,0.107870,46.368135,4.968413,1.804128,4635727062433267700.000000,-0.047676,0.846030,-0.056605,-0.527974,-5.331669,-25.527104,-25.282621,0.664489,2.441137,1.565976,44.790864,11.328319,-1.786283,4635728351460327400.000000,0.758629,0.158426,0.565093,-0.282938,0
-14.541168,10.636355,-3.844172,4.598289,1.182912,-2.586982,44.828215,-12.591215,5.541546,4635731035814887400.000000,0.741937,-0.159497,0.627476,0.174253,4.179759,-1.839534,-15.255399,5.925144,1.939883,0.492101,46.409575,4.879588,2.387594,4635727062433267700.000000,-0.067018,0.848727,-0.071816,-0.519629,0.549050,-97.361644,-5.840193,3.220555,1.563714,1.496499,44.763600,10.923131,-1.261976,4635728263453185000.000000,0.754451,0.173928,0.565212,-0.284759,0
-21.680275,14.437499,1.200262,4.253961,1.043541,-2.726286,45.037247,-11.504863,6.199155,4635731035814887400.000000,0.740269,-0.168060,0.628304,0.170268,4.293653,-1.780153,-14.704832,6.185197,1.882456,0.902490,46.492134,4.626224,3.014552,4635727006633222100.000000,-0.086363,0.850496,-0.088979,-0.511157,-2.314511,-27.978905,19.410969,3.355514,2.054316,2.581465,45.041057,10.097994,-0.853326,4635728243549274100.000000,0.750064,0.192935,0.565746,-0.283039,0
-32.511550,17.260249,4.832469,3.946655,2.310835,-2.338995,45.135783,-10.418558,7.112559,4635731035814887400.000000,0.738498,-0.163491,0.636493,0.150891,1.843038,-4.642330,-14.193857,6.262477,1.741613,1.281907,46.453596,4.334702,3.403834,4635726955059085300.000000,-0.105160,0.851151,-0.107534,-0.502911,-57.815584,38.754192,0.071917,0.411777,2.122317,2.754602,45.404992,9.098388,-0.383090,4635728243549274100.000000,0.747864,0.203173,0.569657,-0.273699,0
-43.021629,17.453881,1.652407,3.388879,2.311674,-1.380154,45.082838,-9.462400,8.326104,4635731035814887400.000000,0.735449,-0.158030,0.644730,0.135881,-1.890738,-5.535060,-13.820005,6.188215,1.571537,1.586291,46.507684,4.040308,3.655744,4635726955059085300.000000,-0.123051,0.850697,-0.126856,-0.495057,-77.150631,26.222753,-14.274921,0.327166,1.477294,1.966464,45.641801,8.264374,0.334144,4635728243549274100.000000,0.746250,0.210509,0.572230,-0.267115,0
-39.207453,15.535876,-6.451234,3.095471,-0.511995,-1.258395,45.091707,-8.773519,8.990558,4635731123976912900.000000,0.739527,-0.151500,0.644056,0.123855,-6.263875,-2.813735,-13.011104,6.062269,1.430810,1.921172,46.595657,3.659966,4.050203,4635726955059085300.000000,-0.139785,0.849200,-0.146937,-0.487575,-23.280010,-12.015338,-0.198503,-0.100472,1.990573,2.669928,45.849328,7.281761,1.113165,4635728243549274100.000000,0.744458,0.218731,0.576173,-0.256833,0
-27.189797,11.812873,-4.532010,3.236152,-2.487520,-1.294781,45.353718,-8.134621,8.540547,4635731250563252200.000000,0.748818,-0.143576,0.637172,0.112554,-9.743133,-0.613687,-12.227212,5.938873,1.361777,2.288353,46.608340,3.105902,4.494075,4635727010839554000.000000,-0.155275,0.846778,-0.167918,-0.480272,8.519028,-8.074485,4.069534,0.621807,2.844730,1.806549,45.927442,6.326111,1.894362,4635728419078812700.000000,0.738887,0.227991,0.582665,-0.250133,0
-20.756131,7.235849,6.580492,3.434682,-0.618509,-0.648458,45.598765,-7.397165,7.988010,4635731250563252200.000000,0.752759,-0.134154,0.636423,0.101594,-10.143404,-0.130023,-11.912533,5.896590,1.333106,2.586044,46.543988,2.307766,4.846150,4635727062433267700.000000,-0.169922,0.843482,-0.189721,-0.472938,1.661949,7.883299,9.566187,0.823508,2.633707,1.313351,45.966316,5.824087,2.745289,4635728458834509800.000000,0.732989,0.236412,0.588660,-0.245594,0
-18.292596,2.676002,6.001129,3.652251,2.010995,0.087694,45.632186,-6.817929,8.390120,4635731250563252200.000000,0.749338,-0.123175,0.644254,0.090869,-8.075999,0.000946,-11.979721,6.020586,1.280800,2.862578,46.397500,1.474635,5.202058,4635727062433267700.000000,-0.184369,0.839116,-0.212556,-0.465524,-7.966213,11.640064,4.587721,0.821323,1.913854,1.337143,46.132346,5.620284,3.532467,4635728458834509800.000000,0.728784,0.244116,0.592356,-0.241652,0
-21.511862,-1.057226,-0.724084,3.850736,2.220593,0.345195,45.450657,-6.576343,9.524955,4635731250563252200.000000,0.745113,-0.110924,0.652732,0.080276,-6.694790,-0.260864,-12.148724,6.363798,1.179533,3.225946,46.339774,0.673446,5.706309,4635727062433267700.000000,-0.199242,0.833243,-0.237071,-0.458045,-6.415843,7.923308,4.957575,1.159947,1.741185,1.036769,46.198255,5.143154,4.152121,4635728458834509800.000000,0.724285,0.251908,0.595433,-0.239608,0
-26.148849,-4.904474,-2.528912,4.056487,1.139252,-0.048454,45.248761,-6.343429,10.416704,4635731250563252200.000000,0.743808,-0.098705,0.657520,0.068374,-5.922904,-0.879893,-12.486311,6.814242,1.127697,3.656715,46.414897,-0.416030,6.209355,4635727062433267700.000000,-0.214711,0.825644,-0.263667,-0.450212,-7.213468,6.645616,4.344009,1.135038,1.483026,0.648457,45.966189,4.713262,4.668390,4635728458834509800.000000,0.720007,0.258384,0.598116,-0.238925,0
-26.448644,-6.684410,-3.814510,4.299549,-0.326738,-0.658477,45.185242,-5.820980,10.582553,4635731250563252200.000000,0.746551,-0.086954,0.657367,0.054497,-4.997267,-0.910608,-12.928355,7.270835,1.189283,4.056343,46.359486,-1.613992,6.618068,4635727062433267700.000000,-0.230685,0.816359,-0.292247,-0.441514,-9.368187,7.759927,0.271277,1.022223,1.283124,0.455722,45.653214,4.758273,5.159086,4635728633958836200.000000,0.716114,0.263826,0.600483,-0.238739,0
-21.326676,-7.015181,-4.063751,4.681300,-1.400337,-1.122172,45.353645,-5.061654,10.370332,4635731250563252200.000000,0.752187,-0.075008,0.653534,0.038499,-4.986938,-0.121402,-12.990797,7.541737,1.336617,4.413391,46.139767,-2.662355,7.122296,4635727062433267700.000000,-0.246441,0.805587,-0.322300,-0.431763,-10.255950,5.324824,-1.324848,0.987115,1.221186,0.133049,45.276104,5.223304,5.637412,4635728673582874600.000000,0.712061,0.268281,0.603028,-0.239483,0
-14.647075,-5.844737,-1.912373,5.019972,-1.459995,-1.432205,45.628780,-4.228427,9.993464,4635731162452768800.000000,0.757779,-0.062800,0.649155,0.020609,-5.576824,0.544113,-12.637554,7.580523,1.513581,4.727066,45.958080,-3.757824,7.973852,4635727062433267700.000000,-0.261178,0.793543,-0.353208,-0.421094,-12.096136,4.373611,-0.842273,0.988990,1.164837,-0.165462,44.686390,5.631011,6.123445,4635728673582874600.000000,0.707818,0.271925,0.605712,-0.241171,0
-9.925896,-3.290387,0.281387,5.111607,-0.478461,-1.665871,45.760548,-3.420898,9.681411,4635731035814887400.000000,0.760368,-0.052021,0.647401,0.002680,-5.803455,-0.116202,-11.946482,7.530866,1.698983,4.983121,45.817927,-4.974096,9.009622,4635727062433267700.000000,-0.274646,0.780344,-0.384567,-0.409561,-15.374925,4.287052,1.454310,0.901331,1.079564,-0.366844,44.310419,5.949715,6.452472,4635728673582874600.000000,0.703661,0.274705,0.608437,-0.243317,0
-8.693788,-1.052182,-0.022361,5.211614,0.771673,-1.810424,45.788399,-2.370214,9.845379,4635731035814887400.000000,0.759241,-0.040357,0.649326,-0.017351,-6.813304,-1.461434,-11.384384,7.514330,1.880388,5.054549,45.430183,-6.282146,9.947724,4635727062433267700.000000,-0.287238,0.766200,-0.415768,-0.396950,-18.267773,2.811737,3.623054,0.801970,0.912142,-0.517256,44.450898,6.334496,6.805139,4635728673582874600.000000,0.699865,0.276634,0.610924,-0.245835,0
-10.097233,1.046832,-1.974341,5.328743,1.363446,-1.790856,45.768698,-1.155102,10.420698,4635731035814887400.000000,0.756109,-0.028203,0.652748,-0.037728,-8.428635,-1.318282,-10.545691,7.474686,2.042132,4.979437,44.801343,-7.503967,10.984466,4635727062433267700.000000,-0.299118,0.751357,-0.446244,-0.383219,-20.297773,0.547250,4.999313,0.915523,0.817056,-0.607261,44.436268,6.468604,7.191259,4635728848669925400.000000,0.696066,0.278558,0.613102,-0.249006,0
-11.648853,3.440483,-3.308036,5.269910,1.164024,-1.654752,45.532734,0.001675,10.750331,4635731035814887400.000000,0.753105,-0.015879,0.655193,-0.057473,-8.710423,-0.702156,-9.602947,6.874122,2.267748,4.880675,44.293282,-8.558229,12.257660,4635727062433267700.000000,-0.308432,0.736748,-0.475109,-0.369247,-21.419041,-1.930468,5.473590,1.123840,0.901656,-0.586827,43.964908,6.730952,7.581896,4635728888331239400.000000,0.691804,0.281216,0.615262,-0.252541,0
-12.069710,5.740889,-4.200028,5.147272,0.641069,-1.491904,45.303266,1.046727,10.804158,4635731035814887400.000000,0.751160,-0.003613,0.655684,-0.076307,-9.690303,-2.190108,-9.959363,5.524650,2.487490,4.417650,43.896336,-9.527045,13.675474,4635727062433267700.000000,-0.313522,0.724272,-0.500215,-0.356256,-21.276444,-2.780766,6.266376,1.288801,1.011896,-0.544976,43.522843,7.543642,7.733655,4635728888331239400.000000,0.687077,0.284560,0.617489,-0.256237,0
-11.466621,7.633795,-4.700457,5.107485,0.117822,-1.276357,45.312897,1.997312,10.895221,4635731035814887400.000000,0.750343,0.008950,0.654226,-0.094309,-13.264611,-3.760907,-10.116963,3.928616,2.565217,3.707053,43.417486,-10.454812,14.937689,4635727062433267700.000000,-0.314435,0.714892,-0.520512,-0.345149,-19.582184,-3.057816,6.980628,1.298741,1.028348,-0.579945,43.973571,7.605614,7.891020,4635728888331239400.000000,0.682223,0.287844,0.619762,-0.260024,0
-9.900907,9.496870,-4.181066,5.063659,-0.374325,-1.083955,45.394330,3.023288,10.834353,4635731035814887400.000000,0.750587,0.021703,0.650924,-0.111560,-16.847224,-2.904145,-9.273222,2.595210,2.567313,3.150698,42.773105,-11.300280,16.056343,4635727006716723200.000000,-0.312007,0.708098,-0.536969,-0.336025,-17.512766,-4.085867,7.253980,1.297207,1.011014,-0.602679,45.038524,6.764784,8.221146,4635728888331239400.000000,0.677354,0.291031,0.621981,-0.263878,0
-7.856609,11.054291,-2.250819,4.953667,-0.360011,-1.005321,45.417143,3.955184,10.457551,4635731035814887400.000000,0.750477,0.034418,0.647404,-0.128324,-17.621759,-2.454004,-9.186052,1.625614,2.566165,2.697922,42.040706,-11.980627,17.215974,4635726955059085300.000000,-0.307244,0.703328,-0.550547,-0.328373,-17.136937,-5.990795,9.496763,1.397923,0.920199,-0.570814,45.322495,6.639491,8.597283,4635728888331239400.000000,0.672596,0.294470,0.623762,-0.267999,0
-5.530522,11.470553,-0.227404,4.908618,0.170185,-0.945034,45.520395,4.629768,10.115350,4635731035814887400.000000,0.748681,0.047244,0.645278,-0.144435,-15.384045,-3.373084,-9.801342,1.007310,2.480949,2.334221,41.352635,-12.578756,18.375611,4635726955059085300.000000,-0.301284,0.699884,-0.561968,-0.321842,-15.885505,-6.113567,9.062571,1.514663,0.833411,-0.452345,45.129347,7.170431,8.746856,4635728888331239400.000000,0.668016,0.298430,0.624990,-0.272181,0
-3.349283,11.049254,0.091741,4.802307,0.556722,-0.894397,45.506831,5.238485,9.975653,4635731035814887400.000000,0.745558,0.060178,0.644127,-0.160069,-12.010969,-4.518831,-9.754040,0.893560,2.227139,2.123135,40.705684,-13.176881,19.389602,4635726955059085300.000000,-0.295810,0.696593,-0.572194,-0.315989,-14.745368,-6.283720,9.009566,1.764969,0.658008,-0.304502,45.081940,7.476868,8.754966,4635728713295730700.000000,0.663708,0.303255,0.625225,-0.276805,0
-1.812716,9.820623,-0.478593,4.643816,0.646872,-0.872008,45.257694,6.002668,9.906233,4635731123785959400.000000,0.741943,0.072719,0.643090,-0.175125,-9.602483,-5.979128,-8.486142,1.250480,1.840951,1.999556,40.185359,-13.642048,20.059544,4635726899368311800.000000,-0.292404,0.692530,-0.581959,-0.310203,-13.775224,-7.410105,8.816865,2.193852,0.480639,-0.226161,45.012298,7.649094,8.832298,4635728673582874600.000000,0.659361,0.309244,0.624329,-0.282532,0
-0.845296,8.654658,-0.616278,4.434733,0.552215,-0.914857,45.166353,6.978156,9.721963,4635731250563252200.000000,0.738331,0.084407,0.641678,-0.189718,-8.274201,-6.511919,-6.358362,1.736081,1.515155,1.876994,39.826835,-13.983855,20.541964,4635726847684902900.000000,-0.291300,0.687644,-0.591508,-0.303987,-12.514666,-8.330537,8.565946,3.145565,0.123929,-0.049305,44.797521,7.927168,8.850368,4635728673582874600.000000,0.654837,0.317847,0.621025,-0.290671,0
-0.237264,8.043964,-0.243433,4.180747,0.400373,-1.007951,45.282844,7.845206,9.520606,4635731250563252200.000000,0.734888,0.094914,0.639808,-0.203904,-7.233034,-6.101405,-4.718763,2.222937,1.306013,1.742771,39.414500,-14.199026,21.226483,4635726847684902900.000000,-0.292228,0.682119,-0.600942,-0.296959,-11.960038,-8.464248,7.118035,4.519137,-0.309309,0.306850,44.802083,7.983642,8.303202,4635728673582874600.000000,0.649872,0.330511,0.614241,-0.301888,0
0.206597,7.744376,-0.213805,3.929664,0.184087,-1.122186,45.226103,8.391138,9.398538,4635731250563252200.000000,0.731796,0.104135,0.637335,-0.217793,-6.528690,-5.928279,-4.121123,2.776762,1.116448,1.610566,38.958337,-14.252370,22.042518,4635726847684902900.000000,-0.295313,0.675887,-0.610346,-0.288870,-10.636656,-6.888063,8.371191,5.843018,-0.741707,0.599400,44.972535,8.122904,7.472704,4635728673582874600.000000,0.644244,0.346806,0.603925,-0.316150,0
0.606643,7.243075,-0.421680,3.749882,-0.074430,-1.190405,44.976961,8.984402,9.196482,4635731250563252200.000000,0.729202,0.112367,0.634084,-0.231466,-5.956745,-5.830159,-3.770270,3.325116,0.943448,1.472893,38.581265,-14.175957,22.710304,4635726847684902900.000000,-0.300479,0.668969,-0.619672,-0.279642,-8.969247,-5.098594,8.778028,7.457403,-1.250494,0.954060,45.177794,8.423114,6.596051,4635728673582874600.000000,0.637508,0.367376,0.589120,-0.333999,0
1.035073,6.283554,-0.238450,3.676117,-0.217811,-1.183691,44.785590,9.689076,8.799095,4635731250563252200.000000,0.726833,0.120227,0.630293,-0.244930,-4.975619,-5.321055,-3.431631,3.817175,0.794778,1.341591,38.195148,-13.928640,23.429643,4635726847684902900.000000,-0.307470,0.661416,-0.628855,-0.269319,-7.381834,-4.076805,9.137475,9.381617,-1.831053,1.385356,45.504684,8.424463,5.249610,4635728673582874600.000000,0.629014,0.392825,0.568669,-0.355873,0
1.420578,5.037802,0.033355,3.673857,-0.165898,-1.131815,44.722926,10.306032,8.326407,4635731250563252200.000000,0.724194,0.128236,0.626469,-0.258137,-3.977835,-4.139278,-3.105669,4.229574,0.673135,1.244514,37.805892,-13.561085,24.233474,4635726847684902900.000000,-0.315926,0.653233,-0.637881,-0.258041,-6.595152,-4.216986,6.142970,11.481678,-2.215859,1.861909,45.729389,8.231855,3.647724,4635728673582874600.000000,0.617425,0.423539,0.542173,-0.381379,0
1.360401,3.697296,0.159273,3.681897,-0.023692,-1.033781,44.675730,10.949758,7.946344,4635731162633164800.000000,0.721102,0.136642,0.622851,-0.270922,-3.467852,-2.255548,-2.923897,4.462150,0.578436,1.142265,37.584803,-13.107666,24.895325,4635726847684902900.000000,-0.325260,0.644674,-0.646528,-0.246177,-5.547226,-8.084093,1.028568,13.232398,-2.186112,2.387505,45.725771,7.942523,1.793284,4635728673582874600.000000,0.601768,0.458790,0.510524,-0.408353,0
0.871554,2.546010,0.130347,3.635659,0.019634,-0.940822,44.648045,11.689375,7.541793,4635731035814887400.000000,0.717848,0.145166,0.619203,-0.283213,-3.003572,-0.258905,-3.144924,4.470687,0.526205,1.012783,37.480814,-12.569193,25.513370,4635726847684902900.000000,-0.334766,0.636156,-0.654526,-0.234164,-3.743351,-2.433708,-1.537033,13.724529,-1.991959,2.669397,45.875854,7.249469,-0.260211,4635728673582874600.000000,0.583224,0.494674,0.476288,-0.433932,0
0.301731,1.619564,-0.213195,3.560123,-0.148478,-0.897826,44.681311,12.321805,6.909232,4635731035814887400.000000,0.714951,0.153343,0.614963,-0.295215,-2.178956,1.381467,-3.528335,4.373765,0.520345,0.902599,37.288687,-11.951153,26.273812,4635726736368256000.000000,-0.344016,0.627833,-0.661897,-0.222194,-4.157202,7.382172,-2.667899,12.898666,-2.304149,3.047740,46.091065,6.090265,-2.039366,4635728673582874600.000000,0.565754,0.527111,0.440440,-0.456167,0
-0.143189,0.928753,-0.723630,3.521102,-0.418565,-0.907154,44.596943,12.810091,6.148526,4635731035814887400.000000,0.712590,0.161015,0.609826,-0.307248,-1.184333,2.372633,-3.755787,4.327184,0.508959,0.845979,37.058102,-11.159123,26.925813,4635726632936538100.000000,-0.353106,0.619501,-0.668835,-0.210225,-4.622014,5.995997,-1.959279,11.631957,-2.525937,3.111281,46.191443,4.636401,-3.350462,4635728673582874600.000000,0.549955,0.554746,0.405070,-0.475105,0
-0.104251,0.260113,-0.830051,3.551993,-0.639416,-0.929144,44.386064,13.368346,5.492659,4635731035814887400.000000,0.710573,0.168404,0.603860,-0.319500,-0.303095,2.667988,-3.859327,4.452622,0.437529,0.855339,36.862783,-10.332147,27.339079,4635726632936538100.000000,-0.362584,0.610675,-0.675568,-0.198032,-2.589698,2.176838,-2.095924,10.353291,-2.329404,2.761180,46.205021,3.403528,-4.580999,4635728673582874600.000000,0.534786,0.577948,0.372537,-0.491118,0
0.297478,-0.236970,-0.656421,3.639194,-0.734205,-0.925256,44.222425,13.987535,4.809616,4635731035814887400.000000,0.708562,0.175891,0.597341,-0.331942,0.288340,2.616039,-3.786168,4.705828,0.315892,0.917912,36.756047,-9.581215,27.806500,4635726632936538100.000000,-0.372855,0.600955,-0.682230,-0.185457,-1.714225,-2.111750,-1.665906,9.152808,-2.044165,2.471610,46.264671,2.221816,-5.883388,4635728673582874600.000000,0.520472,0.597540,0.343102,-0.504317,0
0.805756,-0.437813,-0.649771,3.746200,-0.672235,-0.906273,44.240192,14.449167,4.048886,4635731035814887400.000000,0.706160,0.183783,0.590685,-0.344460,0.659068,2.905541,-3.503657,4.938443,0.210022,0.987538,36.687361,-8.748549,28.317373,4635726632936538100.000000,-0.383795,0.590337,-0.688797,-0.172517,-2.051053,-5.852469,-0.466757,8.076119,-1.951884,2.314896,46.089385,0.650020,-6.953230,4635728673582874600.000000,0.507613,0.613899,0.316020,-0.515353,0
1.292907,-0.638142,-0.581500,3.844612,-0.472343,-0.899235,44.271258,14.771538,3.398052,4635731035814887400.000000,0.703007,0.192223,0.584307,-0.356955,0.906424,3.867304,-3.079245,5.098363,0.149325,1.065014,36.615447,-7.794721,28.730611,4635726632936538100.000000,-0.395068,0.578922,-0.695263,-0.159312,-2.247914,-8.944390,1.679023,7.342358,-2.116061,2.226610,45.857444,-0.801423,-7.817328,4635728586142433300.000000,0.496047,0.627506,0.290018,-0.525417,0
1.418277,-0.949404,-0.661422,3.952487,-0.173038,-0.914140,44.159172,15.166036,2.802151,4635731035814887400.000000,0.698819,0.201336,0.578488,-0.369415,1.007768,4.765515,-2.825795,5.072887,0.169079,1.165683,36.578826,-6.838031,29.096813,4635726632936538100.000000,-0.405966,0.566992,-0.701662,-0.146225,-1.196935,-10.461649,2.668584,6.863843,-2.294698,2.038164,45.555914,-1.837452,-8.806490,4635728566208692200.000000,0.485017,0.638856,0.264887,-0.535216,0
0.970320,-1.191396,-1.464085,4.027604,0.081702,-0.938471,43.937731,15.654453,2.196628,4635731035814887400.000000,0.693712,0.210940,0.573146,-0.381801,0.917936,4.396303,-3.275145,4.952098,0.237134,1.238158,36.466333,-6.004671,29.412453,4635726632936538100.000000,-0.416144,0.554829,-0.707953,-0.133385,-0.435301,-11.267934,2.179219,6.533992,-2.422968,1.768892,45.357832,-2.719957,-9.841751,4635728566208692200.000000,0.473948,0.648360,0.240703,-0.545037,0
0.183691,-1.482835,-2.485169,4.049259,0.139451,-0.963096,43.831784,16.042883,1.683295,4635730991829351400.000000,0.688204,0.220574,0.567783,-0.394137,0.514406,2.880147,-3.755748,5.013063,0.280906,1.307555,36.276899,-5.209876,29.579852,4635726632936538100.000000,-0.426099,0.542120,-0.714190,-0.120324,0.408203,-11.212861,0.786239,6.285040,-2.515438,1.517348,45.196873,-3.656241,-10.561288,4635728566208692200.000000,0.462660,0.656350,0.217376,-0.554885,0
-0.928415,-1.764620,-2.897570,4.049826,0.016266,-0.990866,43.754580,16.282014,1.247687,4635730928440705000.000000,0.682732,0.229876,0.561918,-0.406549,-0.178986,1.570812,-3.903539,5.210849,0.339062,1.426324,36.081593,-4.341892,29.855395,4635726632936538100.000000,-0.436056,0.528465,-0.720553,-0.106695,1.398740,-10.245385,-0.344368,6.102032,-2.652402,1.291006,44.928842,-4.926488,-11.198341,4635728566208692200.000000,0.451094,0.662933,0.194652,-0.564929,0
-2.126233,-1.824942,-2.718744,4.030985,-0.217653,-1.022575,43.513678,16.653951,0.667185,4635730928440705000.000000,0.677565,0.238588,0.555276,-0.419107,-0.820712,0.610625,-3.941251,5.439229,0.439443,1.551347,35.930535,-3.388027,30.369820,4635726632936538100.000000,-0.445921,0.513774,-0.727094,-0.092329,1.666470,-8.672915,-0.735895,6.097242,-2.747813,1.114073,44.616015,-6.209540,-11.992079,4635728566208692200.000000,0.438840,0.668613,0.172096,-0.575117,0
