Accelerometer-X,Accelerometer-Y,Accelerometer-Z,Gyroscope-X,Gyroscope-Y,Gyroscope-Z,Magnetometer-X,Magnetometer-Y,Magnetometer-Z,Barometer-pressure,Orientation-S,Orientation-X,Orientation-Y,Orientation-Z,Accelerometer-X,Accelerometer-Y,Accelerometer-Z,Gyroscope-X,Gyroscope-Y,Gyroscope-Z,Magnetometer-X,Magnetometer-Y,Magnetometer-Z,Barometer-pressure,Orientation-S,Orientation-X,Orientation-Y,Orientation-Z,Accelerometer-X,Accelerometer-Y,Accelerometer-Z,Gyroscope-X,Gyroscope-Y,Gyroscope-Z,Magnetometer-X,Magnetometer-Y,Magnetometer-Z,Barometer-pressure,Orientation-S,Orientation-X,Orientation-Y,Orientation-Z,jump
-9.6968,-0.097659,-0.433284,-0.130148,0.013386,-0.006964,41.664026,-8.980211,19.5477,4.63583E+18,0.679597,-0.193476,0.692179,0.146982,-9.371666,2.575088,0.687908,-0.005083,0.012619,-0.003956,34.955437,-30.110446,-7.50865,4.63583E+18,0.265185,-0.546789,0.414669,0.67731,-9.463282,-2.195304,0.222278,-0.033958,-0.035249,0.034804,36.212763,27.600939,2.894702,4.63583E+18,-0.529126,-0.329734,-0.627823,0.465983,0
-9.721212,-0.105897,-0.411082,-0.134947,0.026704,-0.015134,41.724903,-8.811386,19.416249,4.63583E+18,0.679395,-0.194007,0.692147,0.147365,-9.347254,2.667087,0.667791,-0.009435,0.013767,-0.00805,34.925381,-30.054626,-7.52857,4.63583E+18,0.265137,-0.546877,0.414605,0.677296,-9.480063,-2.1658,0.171419,-0.039254,-0.036094,0.032712,36.204613,27.600939,2.933835,4.63583E+18,-0.529343,-0.329657,-0.627776,0.465854,0
-9.749742,-0.156781,-0.449615,-0.136183,0.025443,-0.015662,41.712552,-8.677405,19.601404,4.63583E+18,0.6792,-0.194518,0.692117,0.147727,-9.354487,2.725867,0.675023,-0.016279,0.018099,-0.011374,35.083614,-29.999245,-7.719591,4.63583E+18,0.265076,-0.546991,0.414519,0.677281,-9.552784,-2.180034,0.17802,-0.04228,-0.036317,0.033735,36.27479,27.475337,3.031485,4.63583E+18,-0.529566,-0.329577,-0.627733,0.465715,0
-9.794456,-0.219881,-0.439467,-0.133699,0.019227,-0.014607,41.637246,-8.681671,19.763786,4.63583E+18,0.679026,-0.19501,0.692074,0.148084,-9.355166,2.718634,0.699439,-0.023697,0.019227,-0.013827,35.217003,-30.02456,-7.661728,4.63583E+18,0.265002,-0.547121,0.414408,0.677273,-9.522298,-2.204448,0.154127,-0.041881,-0.03209,0.033335,36.29261,27.384274,2.97456,4.63583E+18,-0.529778,-0.329504,-0.627699,0.465572,0
-9.822981,-0.297227,-0.435352,-0.133867,0.020667,-0.019238,41.551808,-8.752708,19.74733,4.63583E+18,0.678849,-0.19552,0.692029,0.148431,-9.327138,2.710043,0.715941,-0.030857,0.021996,-0.020492,35.195307,-30.157473,-7.529715,4.63583E+18,0.264927,-0.547278,0.414264,0.677264,-9.48058,-2.17089,0.107839,-0.038276,-0.030976,0.029731,36.418222,27.311023,2.954192,4.63583E+18,-0.529974,-0.329431,-0.627665,0.465445,0
-9.873873,-0.388721,-0.410935,-0.130314,0.029393,-0.025288,41.495163,-8.725951,19.680534,4.63583E+18,0.678652,-0.196052,0.692003,0.148754,-9.306338,2.741686,0.680683,-0.036574,0.029729,-0.024884,35.169529,-30.268698,-7.550721,4.63583E+18,0.2652,-0.547248,0.414397,0.6771,-9.472945,-2.180031,0.165283,-0.026396,-0.030131,0.033066,36.509269,27.42134,3.166722,4.63583E+18,-0.530158,-0.329396,-0.627605,0.465341,0
-9.930792,-0.447698,-0.388579,-0.129414,0.038646,-0.02956,41.566208,-8.579608,19.735117,4.63583E+18,0.678432,-0.196592,0.692002,0.149046,-9.373238,2.766784,0.643378,-0.032224,0.030344,-0.031173,35.122064,-30.354149,-7.644083,4.63583E+18,0.265137,-0.547448,0.414235,0.677062,-9.443966,-2.281724,0.163791,-0.00913,-0.025682,0.037562,36.466591,27.570368,3.222754,4.63583E+18,-0.530316,-0.329419,-0.627516,0.465265,0
-9.963296,-0.486241,-0.403096,-0.124973,0.044862,-0.033113,41.551819,-8.537338,19.63953,4.63583E+18,0.678201,-0.197133,0.692018,0.149309,-9.388179,2.739441,0.618965,-0.028148,0.032301,-0.036257,35.096283,-30.384226,-7.615179,4.63583E+18,0.265204,-0.54759,0.414163,0.676964,-9.455642,-2.297539,0.100737,0.003112,-0.024567,0.038453,36.451305,27.54298,3.155135,4.63583E+18,-0.530456,-0.329474,-0.627404,0.465218,0
-9.977562,-0.465805,-0.559884,-0.126413,0.039283,-0.032753,41.480755,-8.706202,19.570525,4.63583E+18,0.677981,-0.197682,0.692015,0.149591,-9.343649,2.651068,0.618279,-0.025696,0.036949,-0.037385,35.096283,-30.384226,-7.525433,4.63583E+18,0.265258,-0.547754,0.41409,0.676856,-9.460737,-2.169429,0.104769,0.011257,-0.023722,0.038453,36.509259,27.344179,3.060033,4.63583E+18,-0.530582,-0.329548,-0.627278,0.465192,0
-9.989639,-0.415052,-0.71805,-0.132799,0.006892,-0.031156,41.495149,-8.809372,19.61152,4.63583E+18,0.677848,-0.198228,0.691917,0.149926,-9.326456,2.65984,0.614668,-0.027336,0.034993,-0.037385,35.143739,-30.273497,-7.55862,4.63583E+18,0.26531,-0.547914,0.414009,0.676755,-9.489713,-2.097662,0.1485,0.006057,-0.022654,0.035918,36.592158,27.179853,3.116911,4.63583E+18,-0.530708,-0.329606,-0.627168,0.465155,0
-9.928495,-0.417106,-0.620292,-0.128168,-0.014934,-0.032584,41.551831,-8.66931,19.747355,4.63583E+18,0.677785,-0.198739,0.691762,0.15025,-9.397631,2.653995,0.642003,-0.028148,0.029653,-0.039461,35.224888,-30.213324,-7.711629,4.63583E+18,0.26528,-0.548122,0.413838,0.676703,-9.49736,-2.077808,0.178013,0.000047,-0.030037,0.030178,36.416836,27.323116,3.060036,4.63583E+18,-0.53085,-0.329622,-0.627061,0.465126,0
-9.814637,-0.425205,-0.504727,-0.124275,-0.002655,-0.03471,41.454055,-8.691787,19.635318,4.63583E+18,0.67769,-0.199257,0.691641,0.150549,-9.428415,2.533998,0.643384,-0.022236,0.029156,-0.04059,35.36569,-30.268678,-7.776116,4.63583E+18,0.265268,-0.548324,0.413681,0.67664,-9.516674,-2.075258,0.144482,-0.008673,-0.033734,0.026305,36.307911,27.426941,3.049301,4.63583E+18,-0.531006,-0.329602,-0.626968,0.465087,0
-9.747555,-0.431481,-0.585955,-0.131023,0.005161,-0.031505,41.307684,-8.752708,19.483015,4.63583E+18,0.677584,-0.199702,0.691566,0.150786,-9.329222,2.549273,0.626877,-0.015075,0.031292,-0.03713,35.417977,-30.298775,-7.586329,4.63583E+18,0.265259,-0.548517,0.413554,0.676564,-9.463812,-2.075258,0.085979,-0.02167,-0.035871,0.019719,36.476158,27.451903,3.119474,4.63583E+18,-0.531173,-0.329531,-0.626905,0.465032,0
-9.710936,-0.518868,-0.583903,-0.128348,0.004811,-0.027762,41.277654,-8.726027,19.497382,4.63583E+18,0.677478,-0.200129,0.691494,0.151025,-9.356694,2.580063,0.670019,-0.014893,0.030661,-0.035941,35.358329,-30.195987,-7.301281,4.63583E+18,0.265393,-0.548619,0.413547,0.676434,-9.44853,-2.055936,0.150535,-0.033866,-0.041389,0.014777,36.524551,27.454451,3.060012,4.63583E+18,-0.531361,-0.329409,-0.62686,0.464964,0
-9.676365,-0.553438,-0.575801,-0.122828,0.009273,-0.020455,41.521808,-8.594012,19.552047,4.63583E+18,0.677332,-0.200643,0.691409,0.151385,-9.455045,2.465074,0.695822,-0.013255,0.029908,-0.032166,35.280788,-30.140079,-7.328869,4.63583E+18,0.265474,-0.548739,0.413514,0.676325,-9.525811,-2.050844,0.238525,-0.04646,-0.047797,0.007969,36.39897,27.512411,2.972022,4.63583E+18,-0.53157,-0.32923,-0.626834,0.464887,0
-9.662216,-0.573748,-0.588009,-0.117137,0.019057,-0.009963,41.724903,-8.620706,19.470808,4.63583E+18,0.677164,-0.201081,0.691374,0.151715,-9.414004,2.507628,0.656295,-0.006908,0.031983,-0.02645,35.254982,-30.242849,-7.57951,4.63583E+18,0.265452,-0.548907,0.413436,0.676245,-9.53653,-2.002544,0.246696,-0.056742,-0.04998,0.001337,36.423814,27.527695,2.799634,4.63583E+18,-0.531787,-0.329006,-0.626833,0.4648,0
-9.69678,-0.563493,-0.600214,-0.115539,0.021705,-0.006409,41.698241,-8.767065,19.472859,4.63583E+18,0.676986,-0.201511,0.691349,0.152053,-9.335767,2.555651,0.603169,-0.008422,0.031729,-0.022493,35.207558,-30.298775,-7.678457,4.63583E+18,0.265417,-0.549069,0.413362,0.676173,-9.447043,-2.057426,0.176529,-0.057903,-0.045132,-0.00169,36.690256,27.411777,2.826492,4.63583E+18,-0.531986,-0.328781,-0.626848,0.46471,0
-9.717093,-0.512711,-0.600116,-0.116428,0.012638,-0.005512,41.551851,-8.811498,19.497372,4.63583E+18,0.676833,-0.201935,0.691298,0.152403,-9.377476,2.559251,0.562245,-0.014831,0.028902,-0.01998,35.173833,-30.188127,-7.741684,4.63583E+18,0.265364,-0.549225,0.413272,0.676121,-9.46275,-2.142869,0.20699,-0.05599,-0.042104,-0.005517,36.640586,27.381207,2.998864,4.63583E+18,-0.532167,-0.328557,-0.626872,0.46463,0
-9.717093,-0.506559,-0.547282,-0.11589,0.013903,-0.002145,41.468451,-8.679463,19.584873,4.63583E+18,0.676676,-0.202339,0.691256,0.152751,-9.427715,2.531941,0.525623,-0.012941,0.027772,-0.01646,35.224853,-30.127871,-7.90257,4.63583E+18,0.265308,-0.549371,0.413195,0.676072,-9.521237,-2.093102,0.268025,-0.055544,-0.043348,-0.008099,36.484442,27.313597,3.039644,4.63583E+18,-0.532346,-0.328324,-0.626895,0.464558,0
-9.723241,-0.465843,-0.555569,-0.113582,0.024926,-0.007477,41.407513,-8.706103,19.668175,4.63583E+18,0.676493,-0.202757,0.691244,0.153065,-9.404717,2.483119,0.520612,-0.005842,0.025698,-0.01288,35.199671,-30.183182,-7.908222,4.63583E+18,0.265261,-0.549496,0.413144,0.67602,-9.514668,-2.046287,0.21317,-0.055544,-0.041259,-0.01108,36.451305,27.295753,2.972043,4.63583E+18,-0.532513,-0.328087,-0.626928,0.464489,0
-9.761908,-0.408907,-0.653137,-0.115539,0.02294,-0.008552,41.407513,-8.83816,19.678333,4.63583E+18,0.676314,-0.203187,0.691221,0.153389,-9.387493,2.521205,0.556524,0.000252,0.019728,-0.010367,35.122119,-30.213324,-7.747353,4.63583E+18,0.265232,-0.549593,0.413109,0.675973,-9.470939,-2.115892,0.195318,-0.051319,-0.03721,-0.01344,36.509248,27.363353,2.876936,4.63583E+18,-0.53266,-0.327862,-0.626964,0.464431,0
-9.802545,-0.388674,-0.67337,-0.115532,0.003376,-0.014424,41.446443,-8.83816,19.64555,4.63583E+18,0.676194,-0.203621,0.691139,0.153712,-9.363787,2.559249,0.589552,0.000753,0.018473,-0.00823,34.985657,-30.110598,-7.559928,4.63583E+18,0.2652,-0.549683,0.41308,0.675931,-9.470393,-2.136296,0.272565,-0.045979,-0.038007,-0.013886,36.466616,27.37155,2.933779,4.63583E+18,-0.5328,-0.327646,-0.626988,0.46439,0
-9.788219,-0.433327,-0.624624,-0.111087,0.000185,-0.016553,41.639454,-8.852485,19.466643,4.63583E+18,0.676087,-0.204052,0.691047,0.154024,-9.366673,2.555654,0.613965,0.002765,0.016461,-0.006786,35.028093,-30.054626,-7.621761,4.63583E+18,0.265172,-0.549762,0.413057,0.675892,-9.463288,-2.155609,0.292978,-0.042327,-0.038453,-0.013041,36.451305,27.368998,2.954192,4.63583E+18,-0.532939,-0.327439,-0.627004,0.464356,0
-9.717093,-0.39261,-0.645019,-0.111983,0.005872,-0.014781,41.598518,-8.923612,19.385357,4.63583E+18,0.675963,-0.204478,0.690973,0.154334,-9.406888,2.567148,0.622578,0.000125,0.014954,-0.005718,35.194684,-30.157333,-7.682764,4.63583E+18,0.265138,-0.549838,0.413027,0.675862,-9.480047,-2.16071,0.273668,-0.041658,-0.038453,-0.013663,36.509234,27.436581,2.944537,4.63583E+18,-0.533075,-0.327232,-0.627019,0.464325,0
-9.725283,-0.343855,-0.695822,-0.117682,0.00195,-0.019048,41.354356,-8.894947,19.401737,4.63583E+18,0.675849,-0.204926,0.690882,0.154647,-9.400414,2.599463,0.598876,-0.004901,0.017028,-0.006032,35.357687,-30.15802,-7.615253,4.63583E+18,0.26509,-0.549925,0.412984,0.675835,-9.485152,-2.180021,0.249253,-0.042503,-0.038453,-0.013886,36.524551,27.454451,3.019226,4.63583E+18,-0.533212,-0.327023,-0.627035,0.464293,0
-9.761832,-0.358105,-0.685595,-0.124442,-0.004809,-0.01798,41.192064,-8.781343,19.466653,4.63583E+18,0.675766,-0.205307,0.690791,0.154911,-9.340096,2.667681,0.609654,-0.014012,0.025071,-0.005718,35.461075,-30.025178,-7.525501,4.63583E+18,0.265006,-0.550045,0.412926,0.675806,-9.475497,-2.214092,0.205526,-0.037657,-0.037608,-0.012196,36.466617,27.328929,3.039644,4.63583E+18,-0.533343,-0.326831,-0.627042,0.464268,0
-9.741508,-0.37843,-0.632738,-0.12711,-0.006224,-0.016195,41.423957,-8.964542,19.387403,4.63583E+18,0.675657,-0.205803,0.690662,0.155302,-9.330047,2.705735,0.638376,-0.029217,0.034369,-0.006032,35.486923,-29.969175,-7.558537,4.63583E+18,0.264872,-0.550209,0.412835,0.675782,-9.511557,-2.250707,0.185665,-0.036317,-0.035696,-0.010905,36.393388,27.228182,3.116869,4.63583E+18,-0.53347,-0.326649,-0.627049,0.464242,0
-9.747646,-0.384568,-0.628716,-0.127826,0.000895,-0.011213,41.525287,-9.153438,19.413932,4.63583E+18,0.675527,-0.206274,0.690562,0.155685,-9.393956,2.65475,0.623295,-0.040778,0.037385,-0.010556,35.384234,-30.071862,-7.529813,4.63583E+18,0.264719,-0.550401,0.412703,0.675765,-9.473506,-2.229409,0.163804,-0.031249,-0.031025,-0.006458,36.252563,27.277878,3.069727,4.63583E+18,-0.533586,-0.326499,-0.62705,0.464212,0
-9.782217,-0.423227,-0.661244,-0.131025,0.004447,-0.007651,41.307753,-9.070045,19.495224,4.63583E+18,0.675384,-0.206739,0.690475,0.156077,-9.432014,2.600898,0.634064,-0.041721,0.034621,-0.011436,35.22555,-30.13577,-7.55853,4.63583E+18,0.264571,-0.550588,0.412564,0.675756,-9.4897,-2.231401,0.158696,-0.029908,-0.031598,-0.003651,36.151788,27.353677,2.907041,4.63583E+18,-0.533708,-0.326358,-0.627043,0.46418,0
-9.802545,-0.472061,-0.667318,-0.128351,0.001074,-0.003204,41.26319,-9.023378,19.462507,4.63583E+18,0.675269,-0.207091,0.690411,0.156389,-9.420528,2.603765,0.662787,-0.038517,0.03795,-0.010681,35.114245,-30.029514,-7.656185,4.63583E+18,0.264422,-0.550779,0.41244,0.675734,-9.516665,-2.243608,0.20696,-0.029064,-0.032044,-0.00236,36.317319,27.436568,2.859087,4.63583E+18,-0.533832,-0.326222,-0.627032,0.464148,0
-9.808675,-0.518842,-0.655167,-0.124263,0.006588,-0.003383,41.423916,-9.080211,19.316253,4.63583E+18,0.675092,-0.207661,0.690297,0.156903,-9.348728,2.604487,0.639817,-0.037385,0.043354,-0.014828,35.194643,-30.071843,-7.682767,4.63583E+18,0.264279,-0.550992,0.412315,0.675693,-9.463859,-2.226857,0.161818,-0.018705,-0.029511,0.001242,36.61682,27.396536,2.9241,4.63583E+18,-0.533942,-0.326123,-0.627002,0.464132,0
-9.837123,-0.555464,-0.695822,-0.124432,0.006225,-0.004273,41.551902,-8.994758,19.411869,4.63583E+18,0.674919,-0.208214,0.690186,0.157398,-9.361623,2.568594,0.614682,-0.03324,0.040717,-0.019163,35.357625,-30.23841,-7.552126,4.63583E+18,0.264162,-0.551199,0.412188,0.675647,-9.429225,-2.289315,0.117531,-0.01011,-0.027151,0.002981,36.683247,27.439121,3.019205,4.63583E+18,-0.534038,-0.326053,-0.626957,0.464131,0
-9.820829,-0.592086,-0.685604,-0.116249,0.000536,-0.003736,41.46645,-8.895001,19.483015,4.63583E+18,0.674799,-0.208611,0.690104,0.157749,-9.419076,2.551347,0.594579,-0.021995,0.034999,-0.018913,35.413677,-30.188237,-7.491034,4.63583E+18,0.264454,-0.55115,0.412394,0.675448,-9.462721,-2.23964,0.20638,-0.007701,-0.025859,0.005738,36.49987,27.38689,3.039644,4.63583E+18,-0.534132,-0.325997,-0.626907,0.464129,0
-9.788294,-0.626664,-0.628656,-0.11393,0.006244,-0.000353,41.395306,-8.795614,19.452368,4.63583E+18,0.674639,-0.209093,0.690012,0.158195,-9.388946,2.598724,0.562267,-0.013636,0.033113,-0.021613,35.413677,-30.127871,-7.495346,4.63583E+18,0.264402,-0.551319,0.412309,0.675382,-9.463294,-2.134888,0.280196,-0.009166,-0.027324,0.008098,36.325842,27.368998,3.049294,4.63583E+18,-0.534237,-0.325942,-0.626854,0.464119,0
-9.774048,-0.646992,-0.612447,-0.105743,0.021542,0.003204,41.395306,-9.035592,19.316229,4.63583E+18,0.674438,-0.20956,0.689969,0.158621,-9.363078,2.664067,0.557228,-0.017276,0.032422,-0.026263,35.413677,-30.238403,-7.48745,4.63583E+18,0.264468,-0.551428,0.412294,0.675275,-9.441436,-2.169787,0.273676,-0.009613,-0.023549,0.011079,36.350518,27.311091,3.051851,4.63583E+18,-0.534338,-0.325901,-0.626806,0.464097,0
-9.753716,-0.642911,-0.691777,-0.099513,0.020467,0.002669,41.370818,-9.16776,19.44654,4.63583E+18,0.674268,-0.209912,0.689956,0.158933,-9.410446,2.638261,0.561541,-0.01615,0.027209,-0.028463,35.303154,-30.140883,-7.491033,4.63583E+18,0.26444,-0.551595,0.41218,0.67522,-9.455622,-2.233375,0.239613,-0.00708,-0.019898,0.01175,36.491304,27.353653,3.042201,4.63583E+18,-0.534428,-0.325875,-0.62676,0.464074,0
-9.747594,-0.626659,-0.724282,-0.094172,0.011396,0.000179,41.273305,-9.16776,19.641566,4.63583E+18,0.674132,-0.210245,0.689921,0.159226,-9.460007,2.5887,0.545751,-0.015958,0.020423,-0.029531,35.187512,-29.944102,-7.558502,4.63583E+18,0.264426,-0.551744,0.412056,0.675179,-9.50898,-2.178623,0.280183,-0.008942,-0.018382,0.010061,36.524551,27.494428,2.962456,4.63583E+18,-0.534513,-0.325843,-0.626723,0.464048,0
-9.713012,-0.653114,-0.683615,-0.08776,0.017097,0.00089,41.40959,-9.182045,19.350628,4.63583E+18,0.673982,-0.210569,0.689904,0.159504,-9.449264,2.61523,0.489764,-0.018472,0.016086,-0.027836,35.165215,-29.938979,-7.656154,4.63583E+18,0.264409,-0.551881,0.411925,0.675154,-9.531423,-2.102822,0.302626,-0.016367,-0.019003,0.009613,36.514904,27.595231,2.941984,4.63583E+18,-0.534609,-0.325792,-0.6267,0.464005,0
-9.69676,-0.677493,-0.697899,-0.076189,0.02795,-0.000357,41.439941,-9.253212,19.182094,4.63583E+18,0.673811,-0.210878,0.689922,0.159742,-9.412643,2.644692,0.487561,-0.019227,0.017026,-0.025322,35.216889,-29.969175,-7.564374,4.63583E+18,0.264382,-0.552017,0.411798,0.675131,-9.505041,-2.126054,0.247303,-0.017314,-0.01585,0.007081,36.521991,27.545617,2.941984,4.63583E+18,-0.534693,-0.325739,-0.626689,0.46396,0
-9.713014,-0.655152,-0.771106,-0.065508,0.026341,-0.001779,41.279445,-9.265452,19.53803,4.63583E+18,0.673657,-0.21115,0.689944,0.159937,-9.407593,2.562192,0.516288,-0.019227,0.014015,-0.025258,35.298019,-29.913929,-7.432208,4.63583E+18,0.26436,-0.552144,0.411667,0.675115,-9.449127,-2.203822,0.203001,-0.012026,-0.013266,0.007253,36.524551,27.469815,3.019158,4.63583E+18,-0.534764,-0.325702,-0.626673,0.463925,0
-9.690642,-0.697858,-0.777201,-0.054296,0.012817,0.000178,41.50518,-9.314238,19.641671,4.63583E+18,0.67355,-0.211376,0.689937,0.160118,-9.411908,2.475271,0.524918,-0.012322,0.006917,-0.024945,35.38346,-29.986302,-7.460812,4.63583E+18,0.264365,-0.552243,0.41155,0.675104,-9.474909,-2.231394,0.253199,-0.004773,-0.010286,0.008321,36.592076,27.396571,3.039644,4.63583E+18,-0.534819,-0.325691,-0.626648,0.463903,0
-9.670288,-0.703956,-0.756859,-0.040409,0.008724,0.00089,41.360519,-9.116765,19.379235,4.63583E+18,0.673467,-0.211555,0.68993,0.160261,-9.380347,2.453688,0.532809,-0.003022,0.004273,-0.021115,35.461019,-30.09765,-7.495346,4.63583E+18,0.264385,-0.552318,0.411464,0.675088,-9.465861,-2.166436,0.220335,-0.000672,-0.011301,0.011077,36.610001,27.313687,3.039644,4.63583E+18,-0.534876,-0.325694,-0.62661,0.463887,0
-9.629621,-0.681577,-0.760934,-0.02777,0.014241,-0.000178,40.184522,-8.337516,19.332522,4.63583E+18,0.673399,-0.211624,0.689971,0.160281,-9.339408,2.477359,0.552906,0.004142,0.003582,-0.016465,35.439581,-30.07264,-7.432224,4.63583E+18,0.264626,-0.552243,0.411585,0.674981,-9.422157,-2.206374,0.17859,0.006752,-0.00753,0.01175,36.542486,27.295753,2.962482,4.63583E+18,-0.534915,-0.325723,-0.626564,0.463883,0
-9.684543,-0.677516,-0.781274,-0.020471,0.010325,-0.00089,39.537825,-7.877868,19.57255,4.63583E+18,0.673349,-0.211672,0.690004,0.160281,-9.365902,2.49031,0.593098,0.012622,0.001824,-0.012883,35.461014,-30.042419,-7.4608,4.63583E+18,0.264663,-0.552279,0.41156,0.674952,-9.44084,-2.221747,0.219124,0.015296,-0.006409,0.015969,36.582414,27.421127,2.797323,4.63583E+18,-0.534947,-0.325784,-0.626499,0.463891,0
-9.702849,-0.712102,-0.775165,-0.008543,0.009436,-0.000356,39.975144,-8.020264,19.607085,4.63583E+18,0.673312,-0.211684,0.690044,0.160249,-9.411159,2.458755,0.61037,0.018783,0.001758,-0.009679,35.43959,-30.09764,-7.613677,4.63583E+18,0.264706,-0.552303,0.411559,0.674916,-9.458174,-2.183172,0.270516,0.020466,-0.004721,0.017934,36.530289,27.396588,2.604573,4.63583E+18,-0.534972,-0.325865,-0.626425,0.463905,0
-9.694714,-0.730408,-0.756868,0.004274,0.014777,-0.002314,39.69028,-8.020264,19.342609,4.63583E+18,0.673272,-0.21167,0.690106,0.16017,-9.424115,2.473036,0.578815,0.019605,0.003517,-0.005094,35.358455,-30.127871,-7.623235,4.63583E+18,0.264734,-0.552323,0.411573,0.67488,-9.480025,-2.182561,0.261483,0.020519,-0.004273,0.019846,36.579849,27.313699,2.563555,4.63583E+18,-0.534999,-0.325952,-0.626349,0.463915,0
-9.708955,-0.716168,-0.821965,0.017624,0.018871,-0.003204,39.486881,-8.142338,19.257179,4.63583E+18,0.673233,-0.211623,0.690187,0.160047,-9.432003,2.474535,0.561541,0.021297,0.002892,-0.001134,35.328224,-30.080544,-7.4668,4.63583E+18,0.264905,-0.552242,0.411722,0.674789,-9.50444,-2.156194,0.265999,0.018607,-0.005116,0.020295,36.597794,27.295753,2.717855,4.63583E+18,-0.535032,-0.326035,-0.626275,0.46392,0
-9.731334,-0.699889,-0.838244,0.033289,0.016379,-0.003916,40.72176,-8.862522,19.609151,4.63583E+18,0.673215,-0.211533,0.690271,0.159879,-9.436323,2.473783,0.59309,0.025192,0.000756,0.004141,35.375549,-29.944204,-7.334588,4.63583E+18,0.265022,-0.552173,0.411849,0.674722,-9.51921,-2.177431,0.249278,0.019846,-0.001122,0.022826,36.597794,27.295753,2.903512,4.63583E+18,-0.535058,-0.326135,-0.626203,0.463917,0
-9.743542,-0.732444,-0.807723,0.048245,0.014064,-0.007299,41.781872,-9.42615,19.627471,4.63583E+18,0.673164,-0.211648,0.690282,0.159893,-9.436323,2.48599,0.594596,0.026704,-0.002761,0.01055,35.298936,-29.938934,-7.426224,4.63583E+18,0.265033,-0.552141,0.411912,0.674705,-9.50249,-2.194767,0.244148,0.020295,0.003375,0.02603,36.607436,27.2379,3.019123,4.63583E+18,-0.535078,-0.326252,-0.626136,0.463902,0
-9.757782,-0.789415,-0.748726,0.068715,0.021896,-0.006587,41.572353,-9.470927,19.295846,4.63583E+18,0.67314,-0.211571,0.690371,0.15971,-9.436323,2.466651,0.578069,0.032224,-0.007723,0.015578,35.195456,-30.024379,-7.621527,4.63583E+18,0.265052,-0.55208,0.411996,0.674696,-9.526287,-2.178048,0.224863,0.02367,0.00596,0.027547,36.542507,27.280363,3.039644,4.63583E+18,-0.535089,-0.326386,-0.626066,0.463888,0
-9.774063,-0.762967,-0.720228,0.089011,0.030976,-0.007477,41.236607,-9.3102,19.261214,4.63583E+18,0.673132,-0.211345,0.69053,0.159358,-9.396894,2.516775,0.605291,0.035939,-0.009613,0.01985,35.22473,-30.101941,-7.627578,4.63583E+18,0.26507,-0.552002,0.412099,0.67469,-9.427929,-2.269329,0.113681,0.034691,0.014001,0.034521,36.457063,27.421089,2.962514,4.63583E+18,-0.535078,-0.326579,-0.625984,0.463877,0
-9.759811,-0.746667,-0.781274,0.103963,0.035961,-0.007299,41.25083,-9.153537,19.511479,4.63583E+18,0.673097,-0.211188,0.690679,0.159066,-9.391057,2.575005,0.606806,0.039077,-0.015823,0.023433,35.247096,-30.080556,-7.593005,4.63583E+18,0.265096,-0.551897,0.412212,0.674697,-9.418982,-2.381759,0.085452,0.052569,0.016866,0.043066,36.564428,27.396606,2.797372,4.63583E+18,-0.535052,-0.326839,-0.625861,0.46389,0
-9.790338,-0.823991,-0.777211,0.118917,0.033825,-0.006942,41.307838,-9.110751,19.609135,4.63583E+18,0.673087,-0.21096,0.690841,0.158707,-9.383931,2.54066,0.527199,0.046799,-0.021986,0.026637,35.195465,-30.054626,-7.529926,4.63583E+18,0.265141,-0.55176,0.412347,0.674708,-9.424115,-2.30845,0.18186,0.059143,0.017934,0.051611,36.723126,27.198031,2.758873,4.63583E+18,-0.53503,-0.327139,-0.625717,0.463899,0
-9.786276,-0.856549,-0.754828,0.134225,0.030623,-0.009436,41.224423,-9.279611,19.708818,4.63583E+18,0.673101,-0.210699,0.691,0.158306,-9.32798,2.498956,0.527718,0.052273,-0.01798,0.031911,35.272025,-30.054626,-7.432271,4.63583E+18,0.265178,-0.55162,0.412514,0.674706,-9.453034,-2.205667,0.275003,0.059816,0.019002,0.058468,36.245588,27.689086,2.83599,4.63583E+18,-0.535018,-0.327459,-0.625564,0.463892,0
-9.763891,-0.866726,-0.736525,0.152028,0.023144,-0.008367,41.189776,-9.330643,19.780091,4.63583E+18,0.67315,-0.210382,0.691149,0.157864,-9.365116,2.466657,0.604524,0.051338,-0.013574,0.03625,35.430722,-30.046742,-7.397686,4.63583E+18,0.265192,-0.551486,0.412693,0.674701,-9.431819,-2.175486,0.302617,0.06066,0.020914,0.064033,35.164842,28.604027,2.943286,4.63583E+18,-0.53501,-0.3278,-0.625406,0.463873,0
-9.749655,-0.862665,-0.689731,0.173566,0.022429,-0.007832,41.334241,-8.895189,19.660062,4.63583E+18,0.673223,-0.20999,0.691315,0.15735,-9.462768,2.453688,0.705736,0.046754,-0.010059,0.040144,35.542105,-30.042419,-7.579005,4.63583E+18,0.265179,-0.55136,0.412873,0.674699,-9.433755,-2.211475,0.324464,0.062571,0.026424,0.069374,34.672188,28.809471,3.053153,4.63583E+18,-0.534996,-0.32817,-0.625249,0.46384,0
-9.723214,-0.842311,-0.661229,0.195462,0.031855,-0.009968,41.397335,-8.80749,19.586728,4.63583E+18,0.673288,-0.209548,0.69152,0.156758,-9.481594,2.453688,0.71312,0.046242,-0.008545,0.043727,35.414715,-30.097599,-7.623276,4.63583E+18,0.265152,-0.551232,0.41306,0.674699,-9.474876,-2.183195,0.339238,0.060491,0.028615,0.073871,35.109175,28.452858,2.989522,4.63583E+18,-0.534988,-0.328551,-0.625095,0.463788,0
-9.69065,-0.842311,-0.671407,0.214156,0.053759,-0.011217,41.407513,-9.096509,19.696592,4.63583E+18,0.673305,-0.209084,0.691793,0.156102,-9.409882,2.461571,0.640642,0.045619,-0.006476,0.046931,35.225747,-30.135754,-7.466879,4.63583E+18,0.265111,-0.551105,0.413256,0.674699,-9.475515,-2.105453,0.312894,0.056443,0.029683,0.076457,35.551187,28.367435,2.956761,4.63583E+18,-0.534987,-0.328932,-0.624947,0.463717,0
-9.68047,-0.838255,-0.663296,0.231241,0.060884,-0.00819,41.393318,-9.139372,19.769951,4.63583E+18,0.673313,-0.208569,0.692098,0.1554,-9.383168,2.536833,0.563079,0.038655,-0.004651,0.048756,35.169529,-30.084905,-7.397686,4.63583E+18,0.265045,-0.550989,0.413438,0.674709,-9.463308,-2.106739,0.314822,0.058073,0.039183,0.07775,35.257578,28.476008,2.963828,4.63583E+18,-0.534962,-0.329338,-0.624816,0.463635,0
-9.676413,-0.821954,-0.616491,0.252965,0.06337,-0.006231,41.295683,-9.011059,19.680362,4.63583E+18,0.67333,-0.207989,0.692426,0.154638,-9.395373,2.583643,0.529245,0.034559,-0.003583,0.047756,35.067084,-30.157073,-7.334643,4.63583E+18,0.265265,-0.550701,0.413847,0.674606,-9.489644,-2.111881,0.375204,0.062964,0.042501,0.077132,35.041699,28.195958,3.053116,4.63583E+18,-0.53492,-0.32976,-0.624683,0.463563,0
-9.656056,-0.84434,-0.602185,0.270058,0.076549,-0.005518,41.149163,-9.053906,19.720973,4.63583E+18,0.673344,-0.207277,0.692829,0.15373,-9.415462,2.619493,0.517037,0.030733,-0.006652,0.049067,35.010834,-30.213324,-7.363074,4.63583E+18,0.265281,-0.550527,0.414085,0.674596,-9.478088,-2.092609,0.381001,0.069148,0.051158,0.080279,35.772085,27.516211,2.989541,4.63583E+18,-0.534853,-0.33022,-0.624553,0.463487,0
-9.660111,-0.860601,-0.683615,0.282693,0.078692,-0.006231,41.092104,-8.870855,19.918258,4.63583E+18,0.673361,-0.206533,0.693244,0.152781,-9.376833,2.707723,0.441787,0.024703,-0.011993,0.044687,35.215725,-30.15816,-7.523774,4.63583E+18,0.265208,-0.550411,0.41421,0.674643,-9.44404,-2.154913,0.310983,0.083144,0.060152,0.082022,36.534062,27.067732,2.8026,4.63583E+18,-0.534747,-0.330734,-0.624413,0.463432,0
-9.674388,-0.901278,-0.665367,0.30138,0.07334,-0.005518,41.175529,-8.667256,20.125996,4.63583E+18,0.673382,-0.205854,0.693618,0.151904,-9.303568,2.738782,0.387077,0.019672,-0.009747,0.040278,35.336108,-30.238243,-7.648191,4.63583E+18,0.265131,-0.550315,0.414313,0.674687,-9.445957,-2.182552,0.254442,0.095793,0.060267,0.08309,36.615809,27.115808,2.758873,4.63583E+18,-0.534625,-0.331278,-0.624248,0.463407,0
-9.639794,-0.964341,-0.577802,0.327906,0.086682,-0.006232,41.236607,-8.667256,19.997929,4.63583E+18,0.673395,-0.205068,0.694058,0.150896,-9.285512,2.663486,0.504602,0.016088,-0.005407,0.038831,35.237916,-30.456491,-7.678457,4.63583E+18,0.265043,-0.550238,0.414408,0.674727,-9.477431,-2.156225,0.224881,0.106699,0.060659,0.090902,36.539994,27.207066,2.913009,4.63583E+18,-0.534502,-0.331868,-0.624051,0.463391,0
-9.629564,-1.035552,-0.618423,0.353539,0.110547,-0.004809,41.236607,-8.640918,19.777968,4.63583E+18,0.673357,-0.204229,0.694579,0.149804,-9.337149,2.577277,0.692035,0.017714,-0.001513,0.034313,35.118649,-30.330006,-7.623256,4.63583E+18,0.264965,-0.550178,0.414501,0.674749,-9.475519,-2.273738,0.181199,0.113166,0.067628,0.099672,36.717221,27.164709,2.944558,4.63583E+18,-0.534368,-0.332509,-0.623845,0.463364,0
-9.696677,-1.088485,-0.732391,0.378465,0.114665,-0.001605,41.222427,-8.49438,19.879624,4.63583E+18,0.673326,-0.203308,0.695129,0.148641,-9.355193,2.551347,0.772631,0.016467,0.00207,0.030664,35.194479,-30.158122,-7.529918,4.63583E+18,0.264887,-0.550135,0.414587,0.674762,-9.424783,-2.297567,0.122742,0.126934,0.075329,0.113274,36.884287,27.091472,2.864926,4.63583E+18,-0.534221,-0.33323,-0.62361,0.46333,0
-9.784203,-1.096642,-0.787408,0.400888,0.090106,0.0016,41.165327,-8.435254,20.064738,4.63583E+18,0.673381,-0.202297,0.695626,0.147439,-9.398186,2.590776,0.718187,0.005984,0.008725,0.027838,35.254982,-30.238272,-7.369173,4.63583E+18,0.264783,-0.550128,0.414644,0.674774,-9.440804,-2.28536,0.215819,0.142113,0.078592,0.125699,36.915188,27.076021,2.767269,4.63583E+18,-0.534069,-0.334024,-0.623336,0.463304,0
-9.818799,-1.07432,-0.756859,0.427595,0.066219,0.004627,41.23863,-8.482191,20.260036,4.63583E+18,0.673525,-0.201188,0.696072,0.14619,-9.416231,2.596615,0.64419,-0.000312,0.016579,0.030153,35.199787,-30.243581,-7.236948,4.63583E+18,0.264852,-0.550017,0.414867,0.6747,-9.544851,-2.186464,0.321204,0.151168,0.083257,0.13492,36.799604,27.008596,2.833354,4.63583E+18,-0.533909,-0.33487,-0.623041,0.463273,0
-9.85535,-1.007146,-0.766973,0.44825,0.07015,0.006055,41.234657,-8.396741,20.453328,4.63583E+18,0.673672,-0.200015,0.696542,0.144877,-9.356718,2.627391,0.575271,-0.000378,0.024056,0.029285,35.161645,-30.055637,-7.328517,4.63583E+18,0.264702,-0.550058,0.414926,0.67469,-9.503188,-2.102925,0.235868,0.157801,0.094496,0.145993,36.8939,26.932783,2.846902,4.63583E+18,-0.533732,-0.335782,-0.622743,0.463219,0
-9.948956,-0.980636,-0.817896,0.466753,0.058598,0.003919,41.163364,-8.327471,20.589923,4.63583E+18,0.673867,-0.198787,0.696987,0.143512,-9.389523,2.60959,0.58875,0.002759,0.026704,0.022943,35.212507,-30.071659,-7.397686,4.63583E+18,0.264573,-0.550113,0.414982,0.674661,-9.485152,-2.212663,0.207526,0.165895,0.102257,0.155214,37.052591,26.801758,2.844325,4.63583E+18,-0.533541,-0.33675,-0.622432,0.463155,0
-10.004007,-1.011114,-0.836088,0.492035,0.036317,0.001783,41.161343,-8.297228,20.459925,4.63583E+18,0.674145,-0.197486,0.697379,0.142091,-9.416233,2.611618,0.626136,0.009791,0.025324,0.018915,35.297953,-30.183051,-7.334624,4.63583E+18,0.264473,-0.550163,0.415047,0.674619,-9.542935,-2.198009,0.246048,0.182025,0.108666,0.165444,37.08609,26.703421,2.699867,4.63583E+18,-0.533329,-0.337792,-0.622089,0.463099,0
-9.981529,-1.070125,-0.954025,0.516239,0.031368,0,41.165298,-8.051085,20.229601,4.63583E+18,0.674456,-0.196118,0.697767,0.140597,-9.36461,2.664006,0.595371,0.016267,0.020429,0.01333,35.328224,-30.110846,-7.236964,4.63583E+18,0.264413,-0.550203,0.415112,0.67457,-9.481361,-2.165866,0.217838,0.200181,0.120973,0.176125,37.076461,26.685383,2.507143,4.63583E+18,-0.533081,-0.338926,-0.621723,0.463049,0
-10.034397,-1.125013,-1.080399,0.546131,-0.006317,0,41.250746,-7.823013,20.363528,4.63583E+18,0.6749,-0.194636,0.698065,0.139039,-9.393837,2.559518,0.557984,0.038159,0.006434,0.004474,35.273052,-29.999453,-7.328479,4.63583E+18,0.264452,-0.550194,0.415203,0.674506,-9.44148,-2.16071,0.169009,0.219182,0.131488,0.183436,37.01611,26.752787,2.475525,4.63583E+18,-0.532791,-0.340141,-0.621333,0.463016,0
-10.089466,-1.212477,-1.039742,0.586011,-0.081451,-0.000177,41.336192,-7.779966,20.647037,4.63583E+18,0.675591,-0.192993,0.698173,0.137422,-9.455637,2.545473,0.470528,0.060167,0,-0.001,35.195491,-30.071621,-7.523774,4.63583E+18,0.264567,-0.550152,0.415336,0.674413,-9.46521,-2.16071,0.2261,0.237566,0.139416,0.192372,37.000641,26.82861,2.545507,4.63583E+18,-0.532471,-0.341434,-0.62091,0.462999,0
-10.038701,-1.304084,-0.97264,0.622507,-0.142732,-0.002836,41.379233,-7.908465,20.437564,4.63583E+18,0.676485,-0.191234,0.698118,0.135752,-9.402017,2.615167,0.324807,0.060709,0.004827,-0.007653,35.067078,-30.183038,-7.593005,4.63583E+18,0.264695,-0.550134,0.415461,0.674301,-9.472945,-2.141454,0.273032,0.255723,0.143523,0.204512,37.068034,26.718916,2.717602,4.63583E+18,-0.532137,-0.342807,-0.620443,0.462995,0
-9.928752,-1.355022,-0.870953,0.659712,-0.171803,-0.009983,41.210364,-7.770536,20.247664,4.63583E+18,0.677492,-0.189374,0.697992,0.133979,-9.323671,2.621036,0.237037,0.028026,0.023338,-0.015509,34.955663,-30.166035,-7.411732,4.63583E+18,0.264737,-0.550219,0.415496,0.674193,-9.492201,-2.088157,0.232632,0.274723,0.150939,0.21396,37.08609,26.627617,2.681852,4.63583E+18,-0.531774,-0.344259,-0.619941,0.463007,0
-9.871847,-1.350984,-0.760992,0.694616,-0.16309,-0.002128,41.090024,-7.406047,20.485946,4.63583E+18,0.678507,-0.187308,0.697933,0.132033,-9.302041,2.667548,0.267016,-0.021348,0.040319,-0.016779,35.027826,-30.187362,-7.24131,4.63583E+18,0.264641,-0.550407,0.415408,0.674131,-9.487732,-2.084886,0.181223,0.291423,0.159484,0.22082,37.143857,26.612139,2.661214,4.63583E+18,-0.531376,-0.345782,-0.619414,0.463034,0
-9.784281,-1.344738,-0.689956,0.723094,-0.144073,-0.007654,41.191531,-7.263405,20.524967,4.63583E+18,0.679468,-0.185282,0.697909,0.130064,-9.246882,2.792396,0.300858,-0.073996,0.046931,-0.018091,35.139236,-30.323642,-7.328447,4.63583E+18,0.264415,-0.550675,0.415177,0.674144,-9.465899,-2.068213,0.132398,0.303232,0.166344,0.224702,37.294106,26.496622,2.728599,4.63583E+18,-0.53095,-0.347354,-0.618872,0.463071,0
-9.74766,-1.420096,-0.541163,0.755491,-0.103493,-0.008898,41.395306,-7.249276,20.376077,4.63583E+18,0.680334,-0.183171,0.698013,0.12795,-9.12203,2.931004,0.391865,-0.106029,0.053583,-0.026811,35.224689,-30.273907,-7.397686,4.63583E+18,0.26413,-0.551011,0.414843,0.674187,-9.508862,-2.024551,0.208699,0.308859,0.17191,0.228748,37.330238,26.340525,2.679291,4.63583E+18,-0.530508,-0.348958,-0.618324,0.463104,0
-9.709025,-1.43644,-0.591795,0.78808,-0.063922,-0.01174,41.369084,-7.151732,20.479673,4.63583E+18,0.681104,-0.180996,0.698238,0.125701,-9.211923,2.821026,0.557652,-0.100125,0.046271,-0.040628,35.247103,-30.055743,-7.279501,4.63583E+18,0.263909,-0.551344,0.414486,0.674221,-9.569904,-1.985344,0.260818,0.313974,0.178936,0.233863,37.262859,26.306953,2.362812,4.63583E+18,-0.530048,-0.350599,-0.617772,0.463127,0
-9.680359,-1.391867,-0.752716,0.810705,-0.064207,-0.01709,41.262815,-7.005145,20.624575,4.63583E+18,0.681888,-0.178767,0.698463,0.123368,-9.478917,2.600524,0.646213,-0.072937,0.021977,-0.053513,35.187625,-29.969175,-7.332753,4.63583E+18,0.263829,-0.551601,0.414148,0.674249,-9.563561,-1.958349,0.220438,0.320999,0.186412,0.240046,37.244789,26.306953,2.282784,4.63583E+18,-0.529569,-0.352284,-0.617212,0.463142,0
-9.737474,-1.253436,-0.777347,0.822112,-0.100907,-0.016914,41.421523,-6.907587,20.516718,4.63583E+18,0.682779,-0.176489,0.698581,0.121032,-9.606447,2.519054,0.651321,-0.046786,-0.000659,-0.061127,35.1652,-30.126745,-7.460714,4.63583E+18,0.263869,-0.551778,0.413842,0.674276,-9.510274,-1.972434,0.178652,0.331002,0.196416,0.243928,37.369909,26.249205,2.427155,4.63583E+18,-0.529056,-0.35402,-0.616647,0.463158,0
-9.698962,-1.159823,-0.665604,0.826031,-0.114344,-0.015141,41.566088,-6.732803,20.447281,4.63583E+18,0.683703,-0.174186,0.698656,0.118698,-9.517025,2.577745,0.62336,-0.023289,-0.010923,-0.062331,35.216795,-30.213324,-7.306285,4.63583E+18,0.264345,-0.551682,0.413883,0.674144,-9.487735,-1.967975,0.199778,0.339999,0.202886,0.248817,37.538229,26.108589,2.619891,4.63583E+18,-0.52852,-0.3558,-0.61607,0.463175,0
-9.599164,-1.084558,-0.510695,0.827638,-0.077359,-0.011034,41.615153,-6.50666,20.492314,4.63583E+18,0.684511,-0.171879,0.698833,0.11634,-9.421352,2.612384,0.515846,-0.005994,-0.021089,-0.061953,35.195512,-30.268462,-7.139352,4.63583E+18,0.264618,-0.551697,0.413749,0.674107,-9.475529,-1.955768,0.140161,0.350228,0.203174,0.255841,37.574387,26.075014,2.661214,4.63583E+18,-0.527979,-0.35762,-0.61546,0.4632,0
-9.560411,-0.999114,-0.516618,0.826923,-0.019643,-0.012113,41.539901,-6.431409,20.394664,4.63583E+18,0.685142,-0.169608,0.699164,0.113942,-9.462717,2.643892,0.432373,0.014095,-0.04011,-0.066777,35.169529,-30.243636,-7.293757,4.63583E+18,0.264981,-0.551645,0.413639,0.674074,-9.453703,-1.953184,0.073969,0.363433,0.207999,0.25574,37.507042,26.14236,2.661214,4.63583E+18,-0.527405,-0.359476,-0.614834,0.463251,0
-9.574633,-0.913663,-0.602191,0.827638,0.013854,-0.009074,41.428262,-6.319771,20.32722,4.63583E+18,0.685667,-0.167343,0.699585,0.111529,-9.387095,2.763603,0.312663,0.03966,-0.066674,-0.070119,35.271917,-30.103058,-7.523704,4.63583E+18,0.265359,-0.551558,0.413481,0.674093,-9.467771,-1.953184,0.003315,0.371425,0.211882,0.256971,37.614001,26.035401,2.661214,4.63583E+18,-0.526808,-0.361359,-0.614195,0.463311,0
-9.590991,-0.834254,-0.620563,0.828156,0.032376,-0.01034,41.2103,-6.073609,20.428786,4.63583E+18,0.686143,-0.165002,0.70007,0.109014,-9.287088,2.961636,0.122503,0.05258,-0.089997,-0.069809,35.430584,-29.940061,-7.655994,4.63583E+18,0.265806,-0.55139,0.413335,0.674144,-9.501806,-1.943564,-0.031448,0.373625,0.208353,0.254898,37.714973,25.818983,2.584252,4.63583E+18,-0.526212,-0.363233,-0.613546,0.463384,0
-9.56255,-0.78744,-0.626479,0.835292,0.048034,-0.001619,41.179222,-5.873649,20.581682,4.63583E+18,0.686567,-0.162621,0.7006,0.106491,-9.367775,2.913666,0.096071,0.059298,-0.102024,-0.071496,35.384565,-29.883722,-7.627675,4.63583E+18,0.266293,-0.551183,0.413191,0.67421,-9.57691,-1.912116,-0.036622,0.369643,0.201328,0.250852,37.733082,25.769829,2.563555,4.63583E+18,-0.525629,-0.365073,-0.612892,0.463465,0
-9.531825,-0.760879,-0.730141,0.833884,0.062154,0.006761,41.40923,-5.932945,20.565601,4.63583E+18,0.686916,-0.160357,0.701137,0.104115,-9.471354,2.741974,0.208679,0.070908,-0.115012,-0.076079,35.273114,-29.883722,-7.467035,4.63583E+18,0.266843,-0.550935,0.413054,0.674279,-9.585399,-1.885114,-0.084724,0.365144,0.200585,0.246579,37.858148,25.712107,2.563555,4.63583E+18,-0.525044,-0.366889,-0.612249,0.463542,0
-9.5989,-0.801385,-0.848344,0.826394,0.047588,0.009953,41.44727,-5.749082,20.510167,4.63583E+18,0.6873,-0.158049,0.701634,0.101731,-9.536723,2.693501,0.39019,0.083416,-0.131722,-0.082797,35.187666,-29.828614,-7.405559,4.63583E+18,0.267468,-0.550637,0.412918,0.674358,-9.611669,-1.860702,-0.078421,0.359188,0.199128,0.234732,37.891781,25.696585,2.486601,4.63583E+18,-0.524448,-0.368658,-0.611631,0.463631,0
-9.6865,-0.911387,-0.866874,0.826017,0.024203,0.016563,40.821321,-4.964307,20.684927,4.63583E+18,0.687755,-0.155626,0.702078,0.099299,-9.511161,2.6506,0.51899,0.100676,-0.141924,-0.084763,35.157322,-29.853379,-7.402021,4.63583E+18,0.268157,-0.550294,0.412815,0.674428,-9.686765,-1.788193,-0.015531,0.346046,0.193626,0.229263,37.824448,25.754297,2.321613,4.63583E+18,-0.523873,-0.370372,-0.611031,0.463704,0
-9.713074,-0.952177,-0.793629,0.834738,0.029706,0.014765,40.076904,-4.098111,20.897065,4.63583E+18,0.68819,-0.153183,0.702533,0.09683,-9.469409,2.538003,0.667408,0.12097,-0.138001,-0.087139,35.212424,-29.828621,-7.405558,4.63583E+18,0.268891,-0.549943,0.412767,0.67445,-9.676029,-1.741217,0.009619,0.324359,0.1889,0.219325,37.806328,25.769829,2.282784,4.63583E+18,-0.523323,-0.372004,-0.610477,0.46375,0
-9.698708,-0.944138,-0.728424,0.843824,0.041984,0.019227,40.117102,-3.866023,20.900937,4.63583E+18,0.688586,-0.150705,0.703021,0.094339,-9.437124,2.537537,0.834769,0.138509,-0.13252,-0.092789,35.345099,-29.798271,-7.346924,4.63583E+18,0.269672,-0.549598,0.412761,0.674424,-9.677881,-1.704598,0.012207,0.302545,0.182103,0.203369,38.056389,25.654416,2.350108,4.63583E+18,-0.522791,-0.373533,-0.609973,0.463784,0
-9.741358,-0.8933,-0.720087,0.847947,0.052014,0.018875,40.27885,-3.683065,20.970309,4.63583E+18,0.688945,-0.148218,0.703529,0.091828,-9.353275,2.642266,0.914754,0.146266,-0.123806,-0.099198,35.456569,-29.853369,-7.367333,4.63583E+18,0.270474,-0.549279,0.412772,0.674356,-9.651622,-1.716062,-0.083955,0.291282,0.175468,0.192171,38.191034,25.565642,2.43555,4.63583E+18,-0.522271,-0.374995,-0.609492,0.463823,0
-9.812587,-0.820218,-0.767215,0.839767,0.036885,0.016915,40.024528,-3.493169,20.929985,4.63583E+18,0.689336,-0.145753,0.703981,0.089342,-9.306378,2.685629,0.943503,0.135697,-0.107926,-0.10836,35.486923,-29.883722,-7.460648,4.63583E+18,0.271249,-0.549031,0.41275,0.674259,-9.538061,-1.855883,-0.19642,0.30209,0.174108,0.188447,38.01683,25.550095,2.386369,4.63583E+18,-0.521729,-0.376468,-0.608991,0.463898,0
-9.867599,-0.695979,-0.669712,0.826963,0.023675,0.015671,39.808499,-3.604731,20.762941,4.63583E+18,0.68975,-0.143322,0.704381,0.086898,-9.341385,2.67776,0.904965,0.118918,-0.098031,-0.121106,35.486923,-29.828641,-7.432396,4.63583E+18,0.272005,-0.548852,0.412663,0.674154,-9.461486,-1.949845,-0.315895,0.329891,0.178315,0.188835,37.840013,25.540479,2.300923,4.63583E+18,-0.521132,-0.378009,-0.608443,0.464035,0
-9.887997,-0.628761,-0.53311,0.809684,0.027203,0.014764,39.787466,-3.780598,20.737732,4.63583E+18,0.690135,-0.140943,0.704776,0.084498,-9.284386,2.712767,0.690073,0.084993,-0.089936,-0.138435,35.542006,-29.900571,-7.46064,4.63583E+18,0.272718,-0.548764,0.412449,0.674069,-9.429298,-1.955776,-0.293728,0.363391,0.183656,0.185697,37.998646,25.422497,2.350096,4.63583E+18,-0.520461,-0.379624,-0.607845,0.464253,0
-9.883986,-0.602174,-0.5087,0.797922,0.04252,0.020631,40.097747,-3.665883,20.988363,4.63583E+18,0.690458,-0.138584,0.705206,0.082139,-9.162316,2.85249,0.499399,0.021234,-0.070684,-0.15835,35.627454,-30.012049,-7.613377,4.63583E+18,0.273308,-0.548836,0.412033,0.674026,-9.501042,-1.876257,-0.136532,0.387475,0.190679,0.187314,38.242794,25.276007,2.445164,4.63583E+18,-0.519735,-0.381308,-0.607211,0.464516,0
-9.857565,-0.632605,-0.474258,0.792741,0.055147,0.029702,40.678557,-3.834782,21.053934,4.63583E+18,0.69073,-0.136216,0.705667,0.079814,-9.236953,2.862492,0.616907,-0.021864,-0.053691,-0.175201,35.649957,-29.885055,-7.623379,4.63583E+18,0.273817,-0.549033,0.411476,0.673999,-9.608307,-1.740148,0.027333,0.399582,0.192267,0.187153,38.169633,25.119918,2.398592,4.63583E+18,-0.518984,-0.383019,-0.606555,0.464805,0
-9.818937,-0.687626,-0.392817,0.793985,0.07136,0.041803,40.802375,-3.887186,21.000396,4.63583E+18,0.690944,-0.133813,0.706175,0.077509,-9.357119,2.753435,0.747371,-0.036484,-0.044316,-0.183271,35.480386,-29.640906,-7.537927,4.63583E+18,0.274299,-0.549287,0.41087,0.673965,-9.650868,-1.699423,0.080264,0.406671,0.199837,0.18272,38.001341,25.201573,2.159338,4.63583E+18,-0.518191,-0.384748,-0.605906,0.465108,0
-9.776124,-0.726077,-0.351834,0.796647,0.080477,0.055864,40.422372,-3.477105,21.175307,4.63583E+18,0.691119,-0.131363,0.70671,0.075231,-9.39536,2.686442,0.706128,-0.036768,-0.043723,-0.19305,35.334191,-29.443982,-7.570491,4.63583E+18,0.274807,-0.549559,0.410241,0.67392,-9.627213,-1.658372,0.037381,0.408874,0.201039,0.175696,37.965023,25.300002,1.945847,4.63583E+18,-0.517376,-0.386464,-0.605264,0.465428,0
-9.767927,-0.837936,-0.398836,0.802514,0.074101,0.070816,40.671415,-3.53504,21.324513,4.63583E+18,0.691303,-0.128848,0.707228,0.072982,-9.3997,2.665555,0.687141,-0.032496,-0.048992,-0.207244,35.626348,-29.438288,-7.723214,4.63583E+18,0.275373,-0.549836,0.409586,0.673862,-9.648274,-1.571093,0.014802,0.402371,0.199129,0.164855,38.157289,25.010529,1.981261,4.63583E+18,-0.516554,-0.388134,-0.604645,0.465756,0
-9.774122,-0.947985,-0.358391,0.812461,0.057888,0.08577,41.15809,-3.787775,21.249082,4.63583E+18,0.691528,-0.126254,0.707702,0.070753,-9.415434,2.614013,0.758756,-0.034418,-0.050583,-0.218756,36.008851,-29.460805,-7.780457,4.63583E+18,0.27597,-0.550129,0.408896,0.673797,-9.656056,-1.540727,-0.007019,0.387938,0.198675,0.150583,38.401431,24.869839,2.069305,4.63583E+18,-0.515726,-0.389734,-0.604075,0.466076,0
-9.745704,-0.990803,-0.25235,0.828674,0.045263,0.100197,40.788462,-3.228093,21.226671,4.63583E+18,0.691786,-0.123566,0.708144,0.068525,-9.400518,2.54864,0.73842,-0.028058,-0.044009,-0.228369,35.90933,-29.40927,-7.658128,4.63583E+18,0.276596,-0.550449,0.40821,0.673695,-9.627217,-1.52852,-0.108337,0.371916,0.195311,0.138152,38.501386,25.046533,2.010562,4.63583E+18,-0.514907,-0.391261,-0.603546,0.466387,0
-9.70689,-0.992991,-0.237953,0.839899,0.026768,0.112299,40.403036,-2.886044,21.218471,4.63583E+18,0.692092,-0.120803,0.708533,0.066306,-9.395357,2.503339,0.715894,-0.010425,-0.031644,-0.241422,35.792107,-29.273119,-7.65592,4.63583E+18,0.277279,-0.550806,0.407557,0.673519,-9.552159,-1.583589,-0.182335,0.368511,0.192721,0.130609,38.27409,25.088811,1.999417,4.63583E+18,-0.514084,-0.392756,-0.603029,0.466709,0
-9.711082,-0.952177,-0.250529,0.848269,0.00236,0.126009,40.922671,-3.208728,21.258731,4.63583E+18,0.692462,-0.117967,0.708851,0.064114,-9.383971,2.529634,0.767425,0.003677,-0.022575,-0.257065,35.949402,-29.102209,-7.816501,4.63583E+18,0.278022,-0.551197,0.406917,0.673279,-9.543593,-1.743338,-0.176096,0.375239,0.196472,0.123359,38.151506,24.903601,2.146182,4.63583E+18,-0.513225,-0.394252,-0.602516,0.467054,0
-9.68047,-0.942165,-0.144678,0.855219,-0.014745,0.13795,41.018603,-2.989112,21.451837,4.63583E+18,0.692873,-0.115069,0.709118,0.061943,-9.406743,2.64572,0.840667,0.017111,-0.017542,-0.273774,35.926155,-29.096462,-7.760153,4.63583E+18,0.278834,-0.551614,0.406282,0.672984,-9.575024,-1.743835,-0.0844,0.394717,0.202653,0.120928,38.385827,24.796604,2.262017,4.63583E+18,-0.512311,-0.395795,-0.601981,0.467442,0
-9.682473,-0.885133,-0.073244,0.859317,-0.028773,0.144726,40.387437,-2.193903,21.593853,4.63583E+18,0.693317,-0.112135,0.70934,0.059785,-9.408387,2.760747,0.898181,0.030688,-0.007765,-0.290176,35.865353,-29.079681,-7.635617,4.63583E+18,0.279706,-0.552071,0.405659,0.672624,-9.553984,-1.762279,-0.089865,0.411259,0.20822,0.124905,38.510976,24.905948,2.129037,4.63583E+18,-0.511362,-0.397393,-0.601417,0.467852,0
-9.698685,-0.858523,-0.06123,0.863397,-0.053006,0.14828,39.953214,-2.031856,21.263488,4.63583E+18,0.693823,-0.109171,0.709485,0.057636,-9.423292,2.771904,0.915555,0.042818,0.005741,-0.303446,36.022627,-28.998573,-7.605212,4.63583E+18,0.281169,-0.552241,0.405505,0.671967,-9.488538,-1.798899,-0.088051,0.445549,0.218605,0.131927,38.267133,24.997377,1.7896,4.63583E+18,-0.510342,-0.3991,-0.600793,0.468314,0
-9.757313,-0.87293,0.008004,0.871241,-0.068344,0.153445,39.794538,-2.244161,21.240074,4.63583E+18,0.694368,-0.106165,0.70958,0.055484,-9.499226,2.570164,0.821201,0.062135,0.014121,-0.316571,36.164538,-29.015345,-7.660253,4.63583E+18,0.282149,-0.552765,0.404933,0.67147,-9.415293,-1.902782,-0.075843,0.497682,0.235399,0.141085,38.264225,24.888058,1.785905,4.63583E+18,-0.509208,-0.400971,-0.600086,0.468856,0
-9.934202,-0.832311,0.04683,0.873238,-0.077377,0.158068,39.673853,-2.207956,21.483029,4.63583E+18,0.694929,-0.103135,0.709642,0.053343,-9.596874,2.355835,0.784789,0.084255,0.024965,-0.330455,36.084891,-29.049274,-7.627773,4.63583E+18,0.28332,-0.553243,0.404502,0.670843,-9.370878,-1.957592,-0.05403,0.549017,0.24599,0.150698,38.407313,24.796628,1.883555,4.63583E+18,-0.507978,-0.402994,-0.599281,0.469485,0
-10.137743,-0.759264,0.050628,0.864324,-0.102786,0.163252,39.775114,-2.049247,21.4228,4.63583E+18,0.695551,-0.100108,0.70962,0.051253,-9.647363,2.342157,0.927117,0.109056,0.035411,-0.343652,36.126239,-28.88854,-7.537979,4.63583E+18,0.284546,-0.553755,0.404105,0.67014,-9.420714,-1.917362,0.008806,0.590809,0.255375,0.16031,38.508355,24.781029,1.894749,4.63583E+18,-0.50667,-0.405145,-0.598393,0.47018,0
-10.302845,-0.620984,0.138079,0.857408,-0.134797,0.162709,39.979244,-1.874549,21.197646,4.63583E+18,0.696255,-0.097096,0.709494,0.049195,-9.663915,2.321082,0.97743,0.139882,0.043267,-0.357156,36.28491,-28.742251,-7.570425,4.63583E+18,0.285767,-0.554334,0.403689,0.669392,-9.484357,-1.846714,-0.033226,0.59839,0.260786,0.172446,38.459317,24.781029,1.8249,4.63583E+18,-0.505355,-0.40735,-0.597477,0.470854,0
-10.398179,-0.48228,0.18564,0.840518,-0.123043,0.163793,39.991278,-1.648174,21.350748,4.63583E+18,0.696908,-0.09413,0.709389,0.047184,-9.676121,2.22427,0.940811,0.17643,0.053494,-0.368978,36.498598,-28.656806,-7.723082,4.63583E+18,0.287089,-0.554916,0.403359,0.668544,-9.583814,-1.648597,-0.068042,0.556977,0.25245,0.169293,38.508355,24.723393,1.883543,4.63583E+18,-0.504121,-0.40944,-0.596626,0.471443,0
-10.613717,-0.427614,-0.021878,0.818552,-0.114627,0.15917,40.078555,-1.586962,21.334708,4.63583E+18,0.697519,-0.091242,0.709294,0.045221,-9.735483,2.263714,0.904186,0.207322,0.068682,-0.378285,36.632741,-28.571348,-7.67044,4.63583E+18,0.288481,-0.555517,0.40311,0.667594,-9.741705,-1.15731,0.042023,0.471019,0.235658,0.162656,38.651438,24.650151,1.894749,4.63583E+18,-0.503059,-0.411298,-0.595916,0.471857,0
-10.839984,-0.253112,-0.245389,0.819987,-0.130181,0.153638,40.225205,-1.546906,21.251087,4.63583E+18,0.698168,-0.088362,0.709142,0.043243,-9.868083,2.40936,0.828272,0.227836,0.094711,-0.393706,36.713843,-28.493758,-7.416608,4.63583E+18,0.289918,-0.55619,0.402913,0.66653,-9.768524,-0.797488,0.188512,0.370071,0.215819,0.150364,38.752501,24.634541,1.968993,4.63583E+18,-0.502194,-0.412873,-0.595381,0.472078,0
-10.889187,0.060305,-0.534572,0.816097,-0.183035,0.152044,40.28261,-1.274677,21.236873,4.63583E+18,0.698964,-0.085488,0.708827,0.04129,-10.003189,2.465895,0.55777,0.203675,0.133246,-0.413618,36.83857,-28.357666,-7.249378,4.63583E+18,0.29129,-0.55703,0.402647,0.66539,-9.679482,-0.770862,-0.020379,0.273421,0.194685,0.125554,38.703481,24.692167,1.989807,4.63583E+18,-0.501497,-0.414142,-0.595034,0.472147,0
-10.805925,0.305185,-0.647915,0.812046,-0.240762,0.146193,40.223209,-0.927763,21.184406,4.63583E+18,0.699921,-0.082632,0.708332,0.039352,-10.007406,2.536612,0.230823,0.078297,0.196599,-0.436663,36.945774,-28.186756,-7.222433,4.63583E+18,0.292327,-0.558234,0.402055,0.664282,-9.675262,-1.11738,-0.219894,0.237186,0.184248,0.101987,38.685261,24.650167,1.912982,4.63583E+18,-0.500841,-0.415255,-0.594775,0.472192,0
-10.657643,0.277152,-0.277732,0.858588,-0.274706,0.134587,40.298448,-0.969812,20.961078,4.63583E+18,0.700986,-0.079668,0.707731,0.037254,-10.064217,2.552194,0.224203,-0.062956,0.259676,-0.454354,37.023361,-27.968736,-7.163934,4.63583E+18,0.292977,-0.559812,0.401107,0.66324,-9.757301,-1.669519,-0.68853,0.239579,0.169208,0.079554,38.752489,24.452066,1.748089,4.63583E+18,-0.500173,-0.416287,-0.594518,0.472314,0
-10.439929,0.08825,-0.037229,0.922004,-0.271292,0.137389,40.369884,-1.210136,20.654926,4.63583E+18,0.702051,-0.07651,0.70714,0.034975,-10.123442,2.38202,0.32005,-0.169749,0.301851,-0.471677,37.088748,-27.669597,-7.136979,4.63583E+18,0.293354,-0.561663,0.399872,0.662254,-9.672496,-1.708061,-1.122589,0.244762,0.142876,0.055444,38.82833,24.344981,1.632212,4.63583E+18,-0.499513,-0.417218,-0.594236,0.472545,0
-10.242401,-0.186531,-0.578196,0.911758,-0.289789,0.154305,40.369884,-1.302772,20.668941,4.63583E+18,0.703153,-0.073328,0.706487,0.032781,-10.116432,2.216427,0.530364,-0.214328,0.319535,-0.489529,37.212641,-27.442119,-7.141331,4.63583E+18,0.293644,-0.563644,0.398492,0.661274,-9.701465,-1.511773,-0.88204,0.250715,0.112356,0.041801,38.661504,24.444587,1.688199,4.63583E+18,-0.498891,-0.418067,-0.593903,0.472871,0
-10.095941,-0.400635,-1.064672,0.88579,-0.370409,0.170324,40.39588,-1.070671,20.738378,4.63583E+18,0.70447,-0.070163,0.705588,0.030734,-9.911341,2.015806,0.320562,-0.194606,0.332204,-0.505244,37.426315,-27.326217,-7.141331,4.63583E+18,0.294001,-0.565657,0.397141,0.660208,-9.717093,-1.54171,-0.563016,0.280651,0.099025,0.03532,38.602412,24.60068,1.564996,4.63583E+18,-0.498236,-0.418935,-0.593493,0.473307,0
-9.931456,-0.395684,-0.819153,0.912926,-0.442351,0.187046,40.568573,-0.94176,20.712173,4.63583E+18,0.705992,-0.066859,0.704473,0.028677,-9.590484,1.708855,-0.151967,-0.113855,0.356777,-0.503015,37.513351,-27.248629,-7.015665,4.63583E+18,0.2945,-0.567631,0.396046,0.658948,-9.65949,-1.696954,-0.519704,0.335442,0.104762,0.030821,38.657412,24.567337,1.449122,4.63583E+18,-0.497462,-0.419917,-0.592994,0.473877,0
-9.6811,-0.039879,-0.483668,0.95939,-0.446614,0.205591,40.784726,-0.987219,20.598518,4.63583E+18,0.707524,-0.063362,0.703343,0.026539,-9.669308,1.052855,-0.19172,0.030308,0.379126,-0.493327,37.607605,-27.057565,-6.828195,4.63583E+18,0.295274,-0.56947,0.395393,0.657405,-9.826245,-1.656653,-0.45772,0.367536,0.096735,0.022348,38.682653,24.43389,1.72586,4.63583E+18,-0.496634,-0.420927,-0.592428,0.474557,0
-9.503358,0.381374,-0.694978,0.947401,-0.405252,0.21258,40.817979,-0.800534,20.401204,4.63583E+18,0.708916,-0.059883,0.702321,0.024444,-9.982312,0.419173,-0.059249,0.167373,0.402093,-0.470352,37.816903,-26.911182,-6.700076,4.63583E+18,0.29627,-0.571161,0.395197,0.655605,-10.010203,-1.395768,-0.449067,0.361022,0.083916,0.013574,38.694861,24.402599,1.883503,4.63583E+18,-0.49583,-0.421876,-0.591863,0.47526,0
-9.545973,0.801955,-0.943967,0.900426,-0.386825,0.204073,40.675068,-0.498939,20.195692,4.63583E+18,0.71023,-0.056568,0.701334,0.022457,-9.757841,-0.137153,-0.503451,0.266084,0.47789,-0.418762,37.951105,-26.880703,-6.539593,4.63583E+18,0.297233,-0.572848,0.395483,0.653521,-10.046693,-1.282606,-0.442074,0.345229,0.077819,0.00335,38.74547,24.4602,1.597151,4.63583E+18,-0.495047,-0.422755,-0.591333,0.475955,0
-9.575236,1.37375,-0.944391,0.850356,-0.389055,0.181871,40.713057,-0.394214,20.000358,4.63583E+18,0.711529,-0.053466,0.700318,0.02055,-9.154364,-0.514586,-2.072761,0.420639,0.56295,-0.33581,38.032206,-26.880703,-6.344267,4.63583E+18,0.298197,-0.574434,0.39649,0.651076,-9.960295,-1.327169,-0.516265,0.334247,0.063467,-0.011532,38.691307,24.533442,1.369721,4.63583E+18,-0.494289,-0.423544,-0.59082,0.476677,0
-9.371944,1.911256,-0.8543,0.808935,-0.362042,0.142391,40.946973,-0.523138,19.789074,4.63583E+18,0.712733,-0.050603,0.69936,0.018641,-9.072794,-0.586815,-2.999639,0.742723,0.527785,-0.232896,38.266828,-26.770779,-6.15683,4.63583E+18,0.299706,-0.575346,0.398568,0.648303,-9.840829,-1.323615,-0.546726,0.320434,0.043017,-0.026714,38.615454,24.549088,1.407405,4.63583E+18,-0.493574,-0.424227,-0.590318,0.477432,0
-9.161765,2.328306,-0.937535,0.747777,-0.323744,0.095161,41.123182,-0.399721,19.510083,4.63583E+18,0.713806,-0.048062,0.698491,0.016761,-9.555984,-0.479529,-1.943,1.028318,0.417913,-0.173105,38.372226,-26.662689,-5.785282,4.63583E+18,0.301916,-0.575495,0.401416,0.645382,-9.757167,-1.375985,-0.510943,0.302124,0.029216,-0.034947,38.71498,24.558685,1.351486,4.63583E+18,-0.492908,-0.424823,-0.589837,0.478183,0
-9.133136,2.733579,-1.047839,0.663745,-0.292225,0.064515,40.966266,-0.108308,19.352511,4.63583E+18,0.714765,-0.045862,0.697697,0.015028,-9.950876,-0.46652,-0.752189,1.094996,0.336826,-0.175032,38.265791,-26.691519,-5.37199,4.63583E+18,0.304419,-0.575332,0.404329,0.642526,-9.722312,-1.516418,-0.538896,0.287935,0.014106,-0.032958,38.861475,24.618884,1.177039,4.63583E+18,-0.492308,-0.425365,-0.58935,0.47892,0
-9.147338,2.992584,-1.027646,0.586223,-0.263213,0.039796,40.922756,0.000454,19.466134,4.63583E+18,0.715621,-0.043966,0.696974,0.013441,-10.439252,-0.708129,0.058652,0.972649,0.262893,-0.26303,38.311238,-26.667048,-5.111357,4.63583E+18,0.306983,-0.575263,0.4066,0.639929,-9.72669,-1.636715,-0.606916,0.280157,-0.003594,-0.024487,38.710441,24.634541,1.212066,4.63583E+18,-0.491782,-0.425875,-0.588825,0.479652,0
-9.165763,3.048085,-0.974596,0.530719,-0.234877,0.010217,41.079682,-0.124071,19.597558,4.63583E+18,0.716381,-0.042323,0.696322,0.011922,-10.25668,-1.104876,0.051333,0.63216,0.309487,-0.394867,38.469928,-26.581599,-4.978852,4.63583E+18,0.308999,-0.575969,0.407702,0.63762,-9.767683,-1.688994,-0.670556,0.287183,-0.02343,-0.009837,38.545699,24.509796,1.319309,4.63583E+18,-0.49132,-0.426396,-0.58822,0.480405,0
-9.143574,2.948431,-0.982353,0.461525,-0.216679,-0.012738,41.149161,-0.108327,19.418215,4.63583E+18,0.717074,-0.040954,0.695713,0.010532,-9.218018,-0.786323,-0.722217,0.212688,0.464764,-0.480376,38.573668,-26.503998,-4.637823,4.63583E+18,0.309969,-0.577766,0.407679,0.635534,-9.739721,-1.677624,-0.616398,0.280226,-0.036174,0.002833,38.639188,24.351014,1.189177,4.63583E+18,-0.490926,-0.426907,-0.587579,0.481137,0
-9.070336,2.834585,-1.054299,0.376102,-0.20606,-0.037847,41.13895,0.038382,19.350494,4.63583E+18,0.717719,-0.039913,0.695126,0.009312,-8.37243,0.110908,-1.485928,-0.166311,0.616955,-0.524314,38.694006,-26.265916,-4.224569,4.63583E+18,0.309881,-0.580525,0.40674,0.633662,-9.710094,-1.605193,-0.521338,0.238226,-0.051057,0.012903,38.78829,24.384369,0.993847,4.63583E+18,-0.490664,-0.427327,-0.586972,0.481772,0
-9.013054,2.712276,-0.938212,0.285486,-0.176564,-0.060452,41.152915,0.121837,19.421978,4.63583E+18,0.718262,-0.03921,0.694617,0.008282,-7.95834,1.58618,-1.266046,-0.498765,0.693306,-0.586036,38.840478,-25.881417,-3.971756,4.63583E+18,0.309017,-0.584011,0.404866,0.632079,-9.676077,-1.644579,-0.519709,0.191385,-0.066239,0.03512,38.694707,24.527434,1.028999,4.63583E+18,-0.490565,-0.427675,-0.586389,0.482273,0
-9.053414,2.667195,-0.894635,0.194203,-0.138357,-0.083949,41.222406,0.211021,19.388088,4.63583E+18,0.71868,-0.038849,0.694215,0.00744,-6.907634,0.812646,-1.99418,-0.821485,0.882598,-0.557496,38.94772,-25.678272,-3.843587,4.63583E+18,0.306966,-0.588347,0.402445,0.630601,-9.706675,-1.833056,-0.544124,0.131171,-0.081193,0.057394,38.536012,24.618912,0.973015,4.63583E+18,-0.490656,-0.427924,-0.585857,0.482608,0
-9.183442,2.705805,-1.05755,0.092088,-0.13502,-0.108491,41.226137,0.365967,19.246326,4.63583E+18,0.719072,-0.038865,0.693815,0.006819,-6.337391,1.488276,-1.495518,-0.517639,0.729572,-0.298648,39.033165,-25.749762,-3.745936,4.63583E+18,0.30523,-0.591445,0.401252,0.629305,-9.755504,-1.937556,-0.482114,0.049437,-0.097827,0.08884,38.617384,24.576923,0.731315,4.63583E+18,-0.490995,-0.428049,-0.585398,0.482708,0
-9.356323,2.744675,-1.173641,-0.027293,-0.165078,-0.141533,41.297646,0.415313,19.377913,4.63583E+18,0.719531,-0.039333,0.693315,0.006449,-7.354779,2.734382,1.265704,0.050221,0.27556,-0.0072,39.118615,-25.861374,-3.711051,4.63583E+18,0.304885,-0.592138,0.401685,0.628543,-9.900345,-1.876372,-0.319858,-0.040435,-0.119117,0.124698,38.83107,24.561295,0.594595,4.63583E+18,-0.491619,-0.428034,-0.585012,0.482554,0
-9.525502,2.706573,-1.223245,-0.158402,-0.200003,-0.191019,41.297646,0.33808,19.152705,4.63583E+18,0.720071,-0.040337,0.692699,0.006315,-6.255713,3.425843,2.92534,0.631512,-0.041023,0.414613,38.984372,-25.789901,-3.656127,4.63583E+18,0.305397,-0.590555,0.404277,0.628122,-9.879219,-1.913133,-0.290372,-0.148028,-0.133986,0.154293,38.890182,24.618903,0.794577,4.63583E+18,-0.49253,-0.427841,-0.584759,0.482103,0
-9.625133,2.561565,-1.112863,-0.275783,-0.226899,-0.242455,41.283718,0.244418,18.838013,4.63583E+18,0.720667,-0.04184,0.691988,0.006371,-7.848619,5.172884,4.5547,0.93163,-0.426482,0.620816,38.845715,-25.788124,-3.562836,4.63583E+18,0.306753,-0.587223,0.407664,0.628396,-9.940392,-1.77515,-0.15856,-0.299669,-0.161926,0.187106,38.959995,24.519324,0.998537,4.63583E+18,-0.493844,-0.42736,-0.584693,0.481264,0
-9.774822,2.511535,-0.985728,-0.408383,-0.256299,-0.292882,41.212193,0.208989,18.862165,4.63583E+18,0.721324,-0.043886,0.691174,0.006662,-12.563316,3.182256,8.24034,0.320835,-0.526402,0.500262,38.819542,-26.030442,-3.520096,4.63583E+18,0.307094,-0.584604,0.409023,0.629787,-9.88444,-1.435848,0.021928,-0.453612,-0.181367,0.227163,39.035839,24.305649,0.893628,4.63583E+18,-0.495559,-0.426619,-0.584823,0.48,0
-10.152663,2.215698,-0.203193,-0.488413,-0.339027,-0.32842,41.224128,0.367666,18.883954,4.63583E+18,0.7222,-0.046272,0.690098,0.007093,-11.785065,-2.569116,4.34188,-0.120659,-0.400603,0.505801,38.678361,-26.360028,-3.696129,4.63583E+18,0.306128,-0.582866,0.409393,0.631625,-9.796391,-1.681376,0.070636,-0.562436,-0.185629,0.272176,39.051483,24.131328,0.710539,4.63583E+18,-0.497564,-0.425752,-0.585078,0.478383,0
-10.621316,1.691978,0.014395,-0.487855,-0.509966,-0.330552,41.325202,0.514421,18.580782,4.63583E+18,0.723562,-0.048657,0.688501,0.007548,-10.374523,-0.361726,1.277413,-0.057052,-0.381313,0.643432,38.395883,-26.587664,-3.984742,4.63583E+18,0.304918,-0.580858,0.410286,0.633478,-9.816528,-2.086857,-0.22434,-0.619327,-0.169059,0.329029,39.061082,24.155011,0.815399,4.63583E+18,-0.499738,-0.424935,-0.585374,0.476475,0
-10.878786,1.352398,-0.758393,-0.64517,-0.596397,-0.291098,41.541523,0.585955,18.319604,4.63583E+18,0.725129,-0.051399,0.686638,0.008592,-9.985011,3.431329,-0.498658,-0.183162,-0.142051,0.719384,38.337321,-26.805628,-4.144383,4.63583E+18,0.302791,-0.579506,0.41133,0.635058,-9.855755,-2.566462,-0.26679,-0.632499,-0.12922,0.405638,39.0061,24.055475,0.931307,4.63583E+18,-0.501987,-0.424352,-0.585639,0.474302,0
-10.960605,0.975699,0.359101,-0.921187,-0.310872,-0.239385,41.616752,0.55811,18.25576,4.63583E+18,0.725807,-0.054837,0.685628,0.01052,-10.279218,3.659867,-1.03439,-0.162045,-0.023334,0.751966,38.36787,-26.994873,-4.174932,4.63583E+18,0.300422,-0.57838,0.412654,0.636349,-9.844385,-2.836593,0.041193,-0.601497,-0.065882,0.502773,39.057634,23.717024,0.961776,4.63583E+18,-0.504212,-0.424191,-0.585797,0.471883,0
-11.461564,0.736129,1.734673,-0.895607,-0.151558,-0.199525,41.700201,0.415052,18.300051,4.63583E+18,0.726023,-0.05809,0.6851,0.012459,-11.795024,2.232985,0.057861,-0.088125,-0.087096,0.705016,38.10907,-27.114345,-4.174932,4.63583E+18,0.298462,-0.577067,0.413978,0.637602,-9.896757,-2.794562,0.458016,-0.513036,0.020117,0.610126,39.267864,23.518352,1.175548,4.63583E+18,-0.506277,-0.424643,-0.585765,0.469298,0
-12.146366,0.83379,0.415673,-0.894578,-0.439918,-0.120108,41.775435,0.401145,17.993161,4.63583E+18,0.727046,-0.061097,0.683707,0.014706,-11.73892,2.041736,0.96401,-0.206202,-0.054299,0.666072,37.816045,-27.306084,-4.174932,4.63583E+18,0.296263,-0.57605,0.414931,0.638926,-9.902814,-2.982219,0.645305,-0.352789,0.132734,0.721586,39.454408,23.487043,1.53046,4.63583E+18,-0.507996,-0.42592,-0.585454,0.466664,0
-12.06488,0.847982,-0.419009,-1.053716,-0.607675,-0.049308,41.86089,0.275939,17.694206,4.63583E+18,0.728487,-0.064372,0.6818,0.017663,-10.183635,3.086967,1.036024,-0.511528,0.09909,0.640296,37.740925,-27.55024,-4.112201,4.63583E+18,0.293131,-0.575858,0.415194,0.640372,-9.871413,-2.770931,0.844151,-0.186626,0.246257,0.831219,39.500548,23.304704,1.688152,4.63583E+18,-0.50935,-0.428032,-0.584858,0.463997,0
-11.568438,0.454843,0.50895,-1.090335,-0.516037,-0.008102,41.93243,-0.051616,17.804053,4.63583E+18,0.729636,-0.067647,0.680163,0.020824,-9.10715,3.30058,0.508771,-0.807361,0.212897,0.568389,37.690412,-27.747321,-4.132153,4.63583E+18,0.290089,-0.575922,0.415355,0.641593,-9.834791,-2.333155,1.092675,-0.030756,0.351695,0.930933,39.570335,23.005586,1.565083,4.63583E+18,-0.510354,-0.430914,-0.583997,0.461302,0
-11.080394,0.191926,0.805153,-1.070382,-0.542785,0.014853,41.944348,-0.305475,17.802701,4.63583E+18,0.730847,-0.070791,0.678436,0.024006,-9.035052,2.813291,0.072566,-0.894196,0.212512,0.502215,37.557922,-27.863344,-4.350882,4.63583E+18,0.286204,-0.576719,0.414391,0.643244,-9.874938,-2.137998,0.974773,0.108769,0.426748,1.002097,39.905269,22.707414,1.669861,4.63583E+18,-0.511052,-0.434403,-0.582889,0.458651,0
-10.50531,0.00119,0.496236,-1.088417,-0.614341,0.041701,42.043391,-0.271938,17.260771,4.63583E+18,0.732233,-0.073906,0.67648,0.027341,-9.272248,2.416398,-0.522668,-0.902879,0.168111,0.452317,37.352194,-28.050706,-4.761441,4.63583E+18,0.282503,-0.577482,0.413223,0.644945,-10.108691,-1.891186,0.841404,0.173054,0.462975,1.042676,40.12579,22.337681,1.929731,4.63583E+18,-0.511612,-0.438186,-0.581649,0.455994,0
-9.813161,-0.311638,0.527201,-1.093436,-0.575714,0.079503,42.251509,-0.480557,16.945861,4.63583E+18,0.733485,-0.076931,0.674635,0.030793,-9.264643,1.923092,-0.965938,-0.869211,0.133843,0.418274,37.222169,-28.294844,-4.986664,4.63583E+18,0.279028,-0.578162,0.412015,0.646618,-10.168767,-1.073074,0.424485,0.136475,0.456323,1.077696,40.306287,21.947043,2.143333,4.63583E+18,-0.512309,-0.441953,-0.580387,0.453176,0
-9.200818,-0.746529,0.460211,-1.083658,-0.542272,0.14215,42.297265,-0.859576,16.912419,4.63583E+18,0.73462,-0.079753,0.672896,0.034398,-9.326335,1.763909,-0.670098,-0.747585,0.10127,0.402927,37.148925,-28.382214,-5.079954,4.63583E+18,0.27594,-0.578631,0.411054,0.648134,-10.255115,-0.722812,0.048753,0.006376,0.42687,1.061732,40.537352,21.623602,2.185125,4.63583E+18,-0.513275,-0.445338,-0.579324,0.45012,0
-8.558482,-1.275658,0.346697,-1.039389,-0.53493,0.207499,42.162388,-1.060368,16.639922,4.63583E+18,0.735721,-0.082254,0.671192,0.038076,-9.473721,2.123723,0.065696,-0.640717,0.089342,0.391256,37.067842,-28.280307,-5.240325,4.63583E+18,0.273158,-0.578957,0.410336,0.649475,-10.336197,-0.482142,0.138682,-0.090275,0.364377,1.036022,40.781494,21.260861,2.329034,4.63583E+18,-0.514512,-0.448326,-0.578343,0.446991,0
-7.825785,-1.771843,0.220775,-1.017562,-0.488783,0.265777,42.191811,-1.002676,16.378684,4.63583E+18,0.736675,-0.084531,0.669637,0.041855,-9.412056,2.416918,0.52643,-0.594219,0.112354,0.365412,37.092122,-28.223516,-5.435613,4.63583E+18,0.270516,-0.579332,0.409703,0.650645,-11.59909,-0.897362,1.708547,-0.04996,0.255264,1.028244,40.843357,20.872838,2.444988,4.63583E+18,-0.515911,-0.45117,-0.577055,0.444171,0
-7.203899,-2.277286,0.440838,-0.965995,-0.376551,0.308214,42.410197,-1.155577,16.30085,4.63583E+18,0.73731,-0.086549,0.668436,0.04558,-9.217643,2.666189,0.473676,-0.565076,0.140059,0.326813,37.122715,-28.380255,-5.442843,4.63583E+18,0.267999,-0.57981,0.409083,0.65165,-11.977212,-1.150128,1.471779,-0.007321,0.233849,0.910886,40.980271,20.549388,2.542638,4.63583E+18,-0.517056,-0.453776,-0.575854,0.441739,0
-6.881317,-2.589338,0.462683,-0.839367,-0.244396,0.335171,42.455979,-1.640204,16.293532,4.63583E+18,0.737604,-0.088126,0.667663,0.048987,-9.307932,2.89648,0.210375,-0.540653,0.154645,0.275553,37.020826,-28.522527,-5.40788,4.63583E+18,0.265654,-0.580383,0.40842,0.652515,-10.08836,-0.886751,0.785584,0.118347,0.202258,0.836279,41.208726,20.301766,2.640294,4.63583E+18,-0.517894,-0.456409,-0.574486,0.439821,0
-6.81538,-2.79757,-0.185185,-0.755101,-0.127204,0.345705,42.309192,-1.977599,16.150394,4.63583E+18,0.737592,-0.089437,0.667263,0.052148,-9.60345,3.021255,-0.086047,-0.506264,0.147115,0.224431,36.862142,-28.498261,-5.40788,4.63583E+18,0.263542,-0.580982,0.407715,0.65328,-9.522642,-0.095846,1.049876,0.324353,0.158922,0.757463,41.462466,19.954716,2.661214,4.63583E+18,-0.518293,-0.459213,-0.572789,0.438644,0
-6.968529,-3.269369,-0.629239,-0.64901,-0.025822,0.34807,42.251487,-1.977599,16.182104,4.63583E+18,0.737329,-0.090436,0.667191,0.054984,-9.779766,3.130192,-0.375503,-0.479695,0.131399,0.180487,36.750481,-28.522503,-5.470553,4.63583E+18,0.261639,-0.581579,0.406957,0.653985,-8.982044,1.008835,1.217251,0.495923,0.083241,0.59397,41.574926,19.748966,2.584483,4.63583E+18,-0.51824,-0.461853,-0.570922,0.438369,0
-7.445583,-3.744397,-0.982896,-0.541138,0.051794,0.338341,42.325047,-2.031076,16.363538,4.63583E+18,0.736888,-0.091148,0.667373,0.05746,-9.814753,3.173925,-0.664105,-0.458794,0.116445,0.137458,36.78254,-28.654959,-5.623049,4.63583E+18,0.259929,-0.582184,0.406133,0.654642,-7.457055,-0.171698,1.491905,0.631346,-0.019604,0.327781,41.523487,19.65741,2.41969,4.63583E+18,-0.517679,-0.46396,-0.569093,0.439184,0
-8.152606,-4.025157,-1.356349,-0.431526,0.088281,0.312301,42.347155,-2.346802,16.425878,4.63583E+18,0.736388,-0.091604,0.66768,0.059537,-9.900922,3.040754,-0.800401,-0.426083,0.091895,0.095722,36.762692,-28.664812,-5.751319,4.63583E+18,0.258452,-0.582754,0.405268,0.655254,-5.843202,-2.709668,1.044695,0.76058,-0.109016,-0.025203,41.505173,19.517043,2.159877,4.63583E+18,-0.51643,-0.465341,-0.567511,0.441236,0
-9.051478,-4.309826,-1.469526,-0.314716,0.089265,0.260032,42.422363,-2.539481,16.272469,4.63583E+18,0.73594,-0.091847,0.667997,0.061128,-9.996032,2.903734,-0.794397,-0.378721,0.052393,0.056505,36.677245,-28.583737,-5.786309,4.63583E+18,0.257262,-0.58323,0.404394,0.655839,-4.997293,-3.554916,0.299207,0.942685,-0.184167,-0.33291,41.438045,19.483015,1.95583,4.63583E+18,-0.514433,-0.466242,-0.566021,0.44452,0
-9.947926,-4.630825,-1.299996,-0.204759,0.067706,0.198569,42.468262,-2.489968,16.304108,4.63583E+18,0.735609,-0.091918,0.66825,0.062233,-9.967453,2.939229,-0.679456,-0.318847,0.017128,0.021481,36.748443,-28.607942,-5.848966,4.63583E+18,0.256373,-0.583603,0.40356,0.656369,-5.107845,-3.040707,-0.671144,1.091383,-0.270218,-0.544554,41.410132,19.732313,1.686441,4.63583E+18,-0.511946,-0.466793,-0.564469,0.448765,0
-10.57975,-5.013872,-0.936366,-0.088046,0.00177,0.145512,42.30958,-2.579018,16.453952,4.63583E+18,0.735518,-0.091761,0.668311,0.062875,-9.928995,3.088249,-0.458114,-0.268466,0.007779,-0.016427,36.813152,-28.740379,-5.876137,4.63583E+18,0.255726,-0.583959,0.402761,0.656795,-5.684107,-2.545364,-0.258327,1.041625,-0.406922,-0.722095,41.378749,20.222283,1.316766,4.63583E+18,-0.50953,-0.466551,-0.563049,0.453525,0
-10.922012,-5.274893,-0.787277,0.003079,-0.139593,0.098562,42.174601,-2.736095,16.321028,4.63583E+18,0.735869,-0.091419,0.667944,0.063174,-9.81499,3.094695,-0.193947,-0.225744,0.015397,-0.057698,36.707899,-28.695466,-5.879592,4.63583E+18,0.255282,-0.584359,0.401986,0.657086,-7.26097,0.489499,-2.769792,1.059507,-0.361834,-0.688989,41.294195,20.519686,0.935753,4.63583E+18,-0.507022,-0.466496,-0.561608,0.458155,0
-10.753166,-5.372286,-0.293136,0.074983,-0.233345,0.077975,42.20392,-2.793861,16.001929,4.63583E+18,0.736512,-0.090889,0.6673,0.063245,-9.620603,3.040568,0.215546,-0.176853,0.030189,-0.095244,36.646626,-28.583757,-5.883968,4.63583E+18,0.255474,-0.584542,0.401659,0.657049,-10.94225,10.669692,-5.535887,1.129841,-0.408684,-0.303999,41.215711,20.511954,0.710719,4.63583E+18,-0.505206,-0.467389,-0.559171,0.462215,0
-10.214119,-5.01424,0.537001,0.18611,-0.241401,0.081606,42.422353,-2.722251,16.007508,4.63583E+18,0.737218,-0.090005,0.666661,0.063022,-9.59317,2.800362,0.484599,-0.129995,0.039058,-0.135288,36.748417,-28.498305,-5.946609,4.63583E+18,0.255436,-0.585035,0.400982,0.657039,-13.221654,21.927883,-9.149624,0.759423,-0.293047,-0.01528,41.190399,20.55375,0.594714,4.63583E+18,-0.504389,-0.468388,-0.557117,0.46457,0
-9.716167,-3.900464,0.874055,0.308561,-0.239499,0.109571,42.480136,-2.749918,16.075524,4.63583E+18,0.737955,-0.088668,0.66607,0.062543,-9.689905,2.391536,0.576276,-0.060851,0.039904,-0.169793,36.860133,-28.522475,-6.036439,4.63583E+18,0.25566,-0.585513,0.400411,0.656874,-11.557343,7.923384,-10.905861,0.197438,-0.132224,-0.336917,41.178193,20.751598,0.497064,4.63583E+18,-0.503669,-0.467768,-0.557113,0.465979,0
-9.588958,-2.674961,0.704647,0.350203,-0.215993,0.16549,42.422351,-2.865491,15.986122,4.63583E+18,0.738625,-0.087053,0.66558,0.062112,-9.744961,2.296596,0.613823,0.016298,0.038836,-0.199701,36.835962,-28.443495,-6.012268,4.63583E+18,0.256155,-0.585956,0.399976,0.656551,-10.136207,-14.702197,-2.415912,-0.128654,-0.224075,-0.561459,40.993453,20.926022,0.408993,4.63583E+18,-0.50336,-0.465762,-0.557984,0.467278,0
-10.065185,-2.001475,1.119672,0.288934,-0.13922,0.208839,42.493969,-2.708428,15.909837,4.63583E+18,0.739047,-0.085527,0.665324,0.061956,-9.902452,2.323786,0.450356,0.094099,0.032974,-0.231659,36.750522,-28.280446,-6.044254,4.63583E+18,0.256937,-0.586352,0.39967,0.656078,-11.596775,-8.001001,2.362287,0.027631,-0.31804,-0.390315,40.809439,21.017622,0.313956,4.63583E+18,-0.503296,-0.464296,-0.558018,0.468763,0
-10.854717,-1.554108,1.936308,0.328707,-0.145378,0.197859,42.480146,-2.678269,15.977875,4.63583E+18,0.739501,-0.083906,0.665054,0.061657,-10.142219,2.460313,0.197452,0.173524,0.035388,-0.259977,36.876431,-28.325283,-5.954036,4.63583E+18,0.257986,-0.586717,0.399513,0.655436,-12.559223,2.827813,0.552437,0.155047,-0.243772,-0.278151,40.71523,21.148349,0.292978,4.63583E+18,-0.50303,-0.463501,-0.557741,0.470163,0
-11.525042,-0.356191,1.135491,0.372391,-0.36766,0.142269,42.420366,-2.932645,15.847011,4.63583E+18,0.740597,-0.082248,0.664087,0.061144,-10.190665,2.562623,0.055072,0.24503,0.053522,-0.285612,37.065778,-28.382214,-5.758725,4.63583E+18,0.259456,-0.586969,0.399694,0.654519,-11.536112,0.070399,-1.348745,0.199264,-0.12673,-0.316431,40.622814,21.246928,0.149227,4.63583E+18,-0.50233,-0.462938,-0.557694,0.471518,0
-11.585059,0.794854,0.137995,0.348907,-0.48802,0.057223,42.533068,-3.125463,15.490693,4.63583E+18,0.742036,-0.080866,0.662711,0.060474,-10.027894,2.387932,0.016589,0.323957,0.056474,-0.305766,37.06793,-28.170903,-5.633866,4.63583E+18,0.260961,-0.587302,0.399857,0.653521,-10.777755,-2.148645,0.327952,0.206991,-0.084703,-0.372216,40.592239,21.265297,-0.177644,4.63583E+18,-0.501407,-0.462343,-0.557827,0.472926,0
-11.129438,1.260941,0.637763,0.360604,-0.343045,-0.067136,42.812969,-3.01078,15.248652,4.63583E+18,0.743106,-0.079828,0.66174,0.059339,-9.847287,2.110597,0.066994,0.403248,0.030123,-0.315323,37.139008,-27.997826,-5.665811,4.63583E+18,0.262729,-0.587491,0.400183,0.652443,-10.4175,0.271293,1.808439,0.244952,-0.038188,-0.410296,40.589615,21.198218,-0.333016,4.63583E+18,-0.500226,-0.461829,-0.558053,0.474411,0
-10.684933,1.309277,1.120247,0.406835,-0.267371,-0.200606,42.870799,-2.706839,15.318319,4.63583E+18,0.744012,-0.079032,0.660968,0.057636,-9.579003,1.912468,0.074178,0.462653,0.002023,-0.316555,37.30554,-28.123706,-5.69303,4.63583E+18,0.264692,-0.587537,0.400634,0.65133,-9.786595,1.547128,1.239079,0.319001,-0.009098,-0.419322,40.589615,21.428952,-0.277366,4.63583E+18,-0.498814,-0.461504,-0.558208,0.476028,0
-10.398308,1.084059,0.886,0.427465,-0.327644,-0.311154,42.773542,-2.579318,15.262765,4.63583E+18,0.745112,-0.078463,0.659973,0.055554,-9.20247,1.785089,-0.150272,0.458753,-0.013942,-0.313433,37.366863,-28.211309,-5.508646,4.63583E+18,0.266661,-0.587536,0.401062,0.650263,-9.248365,-0.286625,0.4383,0.498281,-0.008465,-0.396306,40.465051,21.736784,-0.112627,4.63583E+18,-0.497099,-0.461604,-0.557961,0.47801,0
-10.110471,0.762726,0.767911,0.426262,-0.298035,-0.413692,42.612876,-2.619836,15.01155,4.63583E+18,0.74615,-0.078185,0.659032,0.053147,-8.963984,1.769136,-0.205957,0.386912,-0.005833,-0.313953,37.359035,-28.054794,-5.345274,4.63583E+18,0.268442,-0.587635,0.401302,0.649292,-9.047534,-1.462454,0.28077,0.644059,-0.018835,-0.378975,40.35427,22.041948,-0.293609,4.63583E+18,-0.495158,-0.462021,-0.557365,0.480312,0
-10.021505,0.424866,0.963998,0.44897,-0.218321,-0.481565,42.495167,-2.351665,14.957236,4.63583E+18,0.746984,-0.078041,0.658316,0.05044,-9.005302,1.61796,0.063841,0.338494,0.003122,-0.31168,37.503324,-27.857614,-5.372819,4.63583E+18,0.270082,-0.587806,0.401425,0.648381,-9.069175,-0.763943,0.376578,0.690308,-0.026393,-0.358383,40.256613,22.232157,-0.583953,4.63583E+18,-0.493182,-0.462562,-0.556615,0.482688,0
-10.11285,0.107505,1.017546,0.478875,-0.287814,-0.508438,42.693227,-2.024067,15.065118,4.63583E+18,0.748018,-0.077862,0.657375,0.04759,-9.073541,1.565047,0.23444,0.285557,0.017965,-0.302917,37.743079,-27.639771,-5.40788,4.63583E+18,0.271542,-0.588061,0.401442,0.647529,-9.130212,-0.582403,0.09626,0.643389,-0.025257,-0.351042,40.178117,22.199238,-0.790704,4.63583E+18,-0.491303,-0.463022,-0.555942,0.484933,0
-9.864361,-0.21777,1.006129,0.477048,-0.409032,-0.504303,43.056696,-1.718484,14.84735,4.63583E+18,0.749374,-0.077652,0.656051,0.044796,-9.082308,1.626084,0.15464,0.190796,0.038643,-0.292235,37.822918,-27.395623,-5.227921,4.63583E+18,0.272707,-0.588459,0.401251,0.646796,-9.430733,-1.15378,-0.217703,0.584714,-0.029597,-0.336941,40.162357,22.065896,-0.897161,4.63583E+18,-0.489572,-0.463382,-0.555347,0.487018,0
-9.3394,-0.564321,1.191225,0.457373,-0.407198,-0.476425,43.176002,-1.474316,14.657538,4.63583E+18,0.750705,-0.077428,0.65473,0.042142,-9.144902,1.522811,0.215023,0.129769,0.039084,-0.282238,37.818535,-27.409677,-5.064515,4.63583E+18,0.273693,-0.588909,0.400921,0.646173,-9.806525,-1.06671,-0.386142,0.516369,-0.034329,-0.321527,40.095301,22.149314,-1.068824,4.63583E+18,-0.488012,-0.463625,-0.554848,0.488918,0
-8.879508,-0.765129,1.343208,0.453067,-0.337845,-0.433978,43.116153,-1.281383,14.559889,4.63583E+18,0.75183,-0.077112,0.653633,0.03961,-9.250377,1.515268,0.265124,0.116127,0.019504,-0.269203,37.818535,-27.466658,-4.966863,4.63583E+18,0.274644,-0.5893,0.400563,0.645636,-10.117899,-0.943531,-0.376735,0.41379,-0.031896,-0.309088,40.057746,22.487389,-1.264142,4.63583E+18,-0.486666,-0.46369,-0.554535,0.490549,0
-8.792872,-0.719059,1.260122,0.458442,-0.320513,-0.37406,43.177586,-1.331002,14.477981,4.63583E+18,0.752894,-0.076619,0.652604,0.037245,-9.3133,1.558162,0.209424,0.103041,0.014788,-0.253566,37.865467,-27.31022,-4.877038,4.63583E+18,0.275841,-0.589472,0.400488,0.645015,-10.075615,-1.310888,-0.212972,0.309418,-0.015053,-0.292311,39.927975,22.696004,-1.229567,4.63583E+18,-0.485516,-0.463616,-0.554435,0.49187,0
-8.916098,-0.568249,1.127822,0.480702,-0.342871,-0.300608,43.177586,-1.21645,14.444534,4.63583E+18,0.754009,-0.075853,0.651527,0.035057,-9.256022,1.640808,0.034416,0.07422,0.037634,-0.230006,38.001345,-27.277291,-4.838513,4.63583E+18,0.276551,-0.589893,0.400133,0.644546,-9.97007,-1.550148,-0.084703,0.232858,0.001051,-0.28421,39.836327,22.730185,-1.055288,4.63583E+18,-0.484492,-0.463437,-0.554508,0.492965,0
-9.166547,-0.462318,1.029356,0.468441,-0.373401,-0.219015,43.175618,-0.886856,14.221275,4.63583E+18,0.755185,-0.074898,0.650374,0.033167,-9.380972,1.622,-0.22104,0.061953,0.034066,-0.20086,38.172271,-27.409722,-4.959375,4.63583E+18,0.27716,-0.590269,0.399813,0.644139,-9.910727,-1.280509,-0.013154,0.165949,0.012652,-0.2663,39.705629,22.787644,-0.936601,4.63583E+18,-0.483606,-0.463187,-0.554705,0.493846,0
-9.3607,-0.376877,1.108808,0.428816,-0.386018,-0.148282,43.190933,-0.559261,13.945612,4.63583E+18,0.756368,-0.073874,0.649193,0.031612,-9.71556,1.516526,-0.192172,0.067431,0.005092,-0.170271,38.170977,-27.310132,-5.09206,4.63583E+18,0.277747,-0.59051,0.399549,0.643829,-9.68955,-1.196326,-0.038301,0.073759,0.018305,-0.248291,39.721935,23.042809,-1.068759,4.63583E+18,-0.482921,-0.462805,-0.555069,0.494467,0
-9.421729,-0.261971,1.408202,0.402741,-0.375509,-0.089811,43.310324,-0.265478,13.843195,4.63583E+18,0.757502,-0.072776,0.648056,0.030307,-9.984428,1.492749,-0.106421,0.084194,-0.028324,-0.129706,38.081142,-27.167723,-5.064496,4.63583E+18,0.278323,-0.590574,0.39939,0.64362,-9.507153,-1.588943,-0.039254,0.009606,0.026768,-0.221982,39.72552,23.233103,-1.26409,4.63583E+18,-0.482394,-0.462371,-0.55553,0.494869,0
-9.48276,0.006564,1.34171,0.360647,-0.366584,-0.046462,43.252362,-0.122074,13.811787,4.63583E+18,0.75859,-0.071694,0.646951,0.02925,-10.019769,1.149328,-0.246358,0.097339,-0.051546,-0.076929,38.105261,-27.191842,-4.96684,4.63583E+18,0.278828,-0.590472,0.39937,0.643507,-9.472945,-1.87878,-0.189844,-0.025598,0.040571,-0.191466,39.665433,23.142818,-1.15297,4.63583E+18,-0.481966,-0.461965,-0.556032,0.495101,0
-9.553615,0.263353,1.19479,0.306649,-0.363476,-0.018099,43.347633,-0.13778,13.587016,4.63583E+18,0.759646,-0.070706,0.645856,0.028428,-9.95874,0.811331,-0.31395,0.117523,-0.072058,-0.020324,38.182877,-27.112962,-4.939616,4.63583E+18,0.279264,-0.590198,0.39952,0.643477,-9.635704,-1.823455,-0.318107,-0.057176,0.049658,-0.163009,39.783683,23.05117,-1.043855,4.63583E+18,-0.481636,-0.46158,-0.556563,0.495186,0
-9.67177,0.460652,1.115224,0.258824,-0.371507,0.001854,43.498062,-0.219733,13.253733,4.63583E+18,0.760705,-0.069815,0.644733,0.027799,-9.913353,0.904578,-0.297361,0.140117,-0.104758,0.033547,38.154403,-26.94989,-5.006593,4.63583E+18,0.279667,-0.589719,0.399824,0.643552,-9.900659,-1.593446,-0.389674,-0.059063,0.048758,-0.130212,39.810976,23.09281,-1.025422,4.63583E+18,-0.481378,-0.461265,-0.557032,0.495201,0
-9.741939,0.672078,1.107619,0.202525,-0.373584,0.019323,43.653244,-0.219733,13.185528,4.63583E+18,0.761749,-0.069055,0.6436,0.027378,-9.767207,1.196591,-0.238214,0.139874,-0.129517,0.079036,37.920314,-26.994613,-5.041657,4.63583E+18,0.279987,-0.589099,0.40021,0.643741,-9.865495,-1.442387,-0.402844,-0.045951,0.045553,-0.098542,39.568979,23.166061,-1.015847,4.63583E+18,-0.481169,-0.461044,-0.557407,0.49519,0
-9.674585,0.896153,1.271968,0.151849,-0.359317,0.03235,43.71471,-0.219733,13.25724,4.63583E+18,0.762736,-0.068422,0.642508,0.027129,-9.606627,1.392243,-0.223171,0.117173,-0.13497,0.113163,37.75939,-27.215884,-5.033835,4.63583E+18,0.28017,-0.588433,0.400612,0.64402,-9.772159,-1.444777,-0.402844,-0.051102,0.038161,-0.071758,39.378713,23.239295,-1.013214,4.63583E+18,-0.481041,-0.460858,-0.557726,0.495127,0
-9.643848,1.051799,1.232517,0.093096,-0.346746,0.04038,43.71471,-0.23151,13.243501,4.63583E+18,0.76367,-0.067955,0.64145,0.02706,-9.613163,1.510887,-0.208469,0.104761,-0.139379,0.137597,37.787849,-27.307961,-5.09204,4.63583E+18,0.280263,-0.587728,0.401036,0.644359,-9.772861,-1.519693,-0.326259,-0.073511,0.036317,-0.051148,39.526349,23.197664,-0.946203,4.63583E+18,-0.481003,-0.460672,-0.558048,0.494974,0
-9.655618,1.050275,1.327331,0.037615,-0.325518,0.044862,43.70098,-0.294939,13.140403,4.63583E+18,0.764529,-0.067656,0.640454,0.027147,-9.675142,1.64422,-0.195318,0.110456,-0.157808,0.154167,37.873299,-27.307961,-5.12711,4.63583E+18,0.280357,-0.586939,0.401493,0.644752,-9.730275,-1.528562,-0.199903,-0.105005,0.036317,-0.032761,39.767824,23.067005,-0.851194,4.63583E+18,-0.481064,-0.460466,-0.5584,0.494711,0
-9.738671,0.969184,1.497587,0.000535,-0.313139,0.046235,43.629261,-0.305185,12.947047,4.63583E+18,0.765343,-0.067472,0.639492,0.027334,-9.606627,1.915868,-0.093622,0.101971,-0.159786,0.15847,37.903988,-27.409658,-5.001944,4.63583E+18,0.280421,-0.586147,0.401936,0.645169,-9.640529,-1.439791,-0.228327,-0.082846,0.034642,-0.007905,39.753555,23.092793,-0.906667,4.63583E+18,-0.481137,-0.460358,-0.558654,0.494453,0
-9.853336,0.851037,1.486901,-0.029544,-0.313521,0.054952,43.642988,-0.305185,12.77767,4.63583E+18,0.766148,-0.06736,0.638527,0.027629,-9.472356,2.132499,-0.06791,0.060844,-0.141577,0.156033,37.857056,-27.576164,-4.869216,4.63583E+18,0.280724,-0.585229,0.402612,0.645449,-9.55244,-1.320354,-0.253719,-0.051323,0.038368,0.012937,39.61068,23.166037,-0.994756,4.63583E+18,-0.481184,-0.460369,-0.558811,0.494219,0
-9.863582,0.759273,1.553802,-0.060685,-0.311002,0.06542,43.726462,-0.305185,12.680031,4.63583E+18,0.766935,-0.06732,0.637568,0.02804,-9.447579,2.083448,-0.085452,0.019074,-0.130097,0.145985,37.721244,-27.481135,-5.021844,4.63583E+18,0.280569,-0.584633,0.402835,0.645917,-9.572259,-1.226999,-0.084107,-0.057422,0.038684,0.025464,39.452,23.181858,-0.93666,4.63583E+18,-0.481267,-0.460398,-0.558958,0.493945,0
-9.869458,0.698235,1.661257,-0.090331,-0.31567,0.081231,43.774244,-0.305185,12.551028,4.63583E+18,0.767722,-0.067333,0.636594,0.028581,-9.413809,2.03425,-0.085452,-0.004541,-0.122018,0.134836,37.65984,-27.338663,-5.12711,4.63583E+18,0.280373,-0.584105,0.402976,0.646391,-9.54454,-1.428594,0.011217,-0.063396,0.039291,0.042841,39.484682,23.057476,-0.915555,4.63583E+18,-0.481396,-0.460457,-0.559084,0.493621,0
-9.902164,0.639153,1.794488,-0.10948,-0.341572,0.101185,43.716222,-0.318904,12.275664,4.63583E+18,0.768569,-0.06735,0.63554,0.029244,-9.324922,2.093386,-0.101095,-0.016156,-0.108983,0.125223,37.71459,-27.409639,-5.064538,4.63583E+18,0.280153,-0.583642,0.403078,0.646842,-9.486139,-1.66154,-0.119116,-0.038971,0.044545,0.070442,39.627551,23.090143,-0.925124,4.63583E+18,-0.481523,-0.460639,-0.559118,0.493289,0
-9.910453,0.582496,1.814072,-0.138528,-0.379507,0.120027,43.827124,-0.418054,12.121951,4.63583E+18,0.769504,-0.067405,0.634364,0.030055,-9.282013,2.15537,-0.000381,-0.013068,-0.087187,0.11082,37.643625,-27.5214,-5.092013,4.63583E+18,0.279943,-0.583258,0.403178,0.647217,-9.492083,-1.661191,-0.283094,-0.015299,0.054303,0.093652,39.719266,23.175598,-0.927763,4.63583E+18,-0.48163,-0.460943,-0.559078,0.492947,0
-9.894332,0.490717,1.940051,-0.162066,-0.416294,0.140572,44.0047,-0.586987,12.108249,4.63583E+18,0.770524,-0.067477,0.63307,0.031004,-9.363645,2.204197,0.186155,-0.002771,-0.067027,0.091678,37.477116,-27.49737,-5.314787,4.63583E+18,0.279775,-0.582948,0.403283,0.647504,-9.573903,-1.475777,-0.183442,-0.00231,0.062472,0.114176,39.735096,23.251474,-0.85122,4.63583E+18,-0.481734,-0.461338,-0.558988,0.492577,0
-9.86554,0.419883,2.08851,-0.179712,-0.46116,0.150397,43.861198,-0.747654,12.007124,4.63583E+18,0.771654,-0.067573,0.631631,0.032044,-9.521386,2.299946,0.381474,0.018174,-0.0602,0.066593,37.525169,-27.521396,-5.294969,4.63583E+18,0.279714,-0.582674,0.403392,0.647709,-9.595019,-1.313455,-0.069948,0.001674,0.0666,0.130285,39.744666,23.085527,-0.68659,4.63583E+18,-0.481854,-0.461786,-0.558867,0.492177,0
-9.88949,0.286078,2.258934,-0.189698,-0.508415,0.153854,43.900342,-0.89114,11.837731,4.63583E+18,0.7729,-0.067686,0.630037,0.033135,-9.614087,2.586209,0.537682,0.042139,-0.059816,0.037455,37.641327,-27.716307,-5.037114,4.63583E+18,0.280023,-0.582276,0.403705,0.647738,-9.508911,-1.281777,-0.096667,-0.000375,0.070642,0.141053,39.6899,22.968397,-0.713965,4.63583E+18,-0.481991,-0.462263,-0.558737,0.491742,0
-9.986681,0.088806,2.463473,-0.173162,-0.572511,0.147788,44.105347,-0.89114,11.708763,4.63583E+18,0.774316,-0.067752,0.628232,0.03418,-9.608186,2.917711,0.421769,0.017366,-0.03382,0.004128,37.617317,-27.808464,-4.994338,4.63583E+18,0.280186,-0.582116,0.403781,0.647764,-9.485152,-1.214812,-0.176832,0.014836,0.071566,0.151502,39.607095,23.007317,-0.808976,4.63583E+18,-0.482117,-0.462797,-0.558558,0.49132,0
-10.145361,-0.10892,2.536238,-0.151884,-0.662616,0.143002,44.064277,-0.893096,11.402125,4.63583E+18,0.775969,-0.067748,0.626135,0.03518,-9.548108,3.050891,0.149776,-0.059218,0.028661,-0.028384,37.531866,-27.644277,-5.217092,4.63583E+18,0.280044,-0.582332,0.403554,0.647773,-9.532983,-1.349383,-0.300546,0.030945,0.074914,0.164695,39.712969,23.090125,-0.753575,4.63583E+18,-0.482231,-0.463401,-0.558327,0.490902,0
-10.302099,-0.253451,2.678339,-0.120182,-0.774645,0.135012,43.860724,-0.917036,11.023702,4.63583E+18,0.777917,-0.067646,0.623672,0.036102,-9.545224,2.962443,0.064463,-0.108275,0.084953,-0.066879,37.555859,-27.497393,-5.322428,4.63583E+18,0.279793,-0.582821,0.403166,0.647682,-9.622718,-1.554268,-0.453959,0.045899,0.074164,0.185277,39.871665,22.993821,-0.588953,4.63583E+18,-0.48236,-0.46408,-0.558023,0.490478,0
-10.448576,-0.381858,2.861435,-0.090448,-0.904351,0.124673,44.000416,-1.002481,10.674621,4.63583E+18,0.780202,-0.067453,0.620782,0.036949,-9.589659,2.655266,0.065429,-0.094929,0.106261,-0.10755,37.688197,-27.521366,-5.259904,4.63583E+18,0.279647,-0.583421,0.40274,0.64747,-9.691673,-1.694819,-0.555251,0.071732,0.082908,0.20938,39.858176,22.770827,-0.549333,4.63583E+18,-0.482467,-0.464885,-0.557637,0.490049,0
-10.56379,-0.461926,3.050423,-0.06537,-1.043177,0.115101,44.447683,-1.087938,10.43432,4.63583E+18,0.782842,-0.067181,0.617431,0.03774,-9.615042,2.483463,-0.064011,-0.025487,0.104164,-0.139549,37.745293,-27.497401,-5.287293,4.63583E+18,0.279761,-0.583987,0.402421,0.647109,-9.848355,-1.625597,-0.573748,0.096387,0.09131,0.230599,39.720624,22.66059,-0.539769,4.63583E+18,-0.48255,-0.465806,-0.557176,0.489617,0
-10.481773,-0.443863,3.318931,-0.054904,-1.181881,0.098783,44.60342,-1.147987,9.958327,4.63583E+18,0.785827,-0.066894,0.613612,0.038487,-9.650692,2.708147,-0.087394,0.088462,0.091217,-0.157746,37.69059,-27.365068,-5.384944,4.63583E+18,0.280222,-0.584416,0.40235,0.646567,-9.93582,-1.589605,-0.583313,0.175122,0.107156,0.259263,39.743657,22.644733,-0.69016,4.63583E+18,-0.482501,-0.466983,-0.55653,0.489279,0
-10.205897,-0.373556,3.777453,-0.021791,-1.287626,0.075455,44.382706,-1.061076,9.464675,4.63583E+18,0.789075,-0.066539,0.60943,0.039103,-9.683892,2.734929,-0.029781,0.207745,0.077247,-0.165093,37.714539,-27.409543,-5.295063,4.63583E+18,0.281016,-0.584679,0.402565,0.645849,-9.901216,-1.845177,-0.605082,0.291704,0.141212,0.289399,39.9986,22.529971,-0.88546,4.63583E+18,-0.482206,-0.468532,-0.555655,0.489084,0
-9.806042,-0.198269,3.88926,-0.01555,-1.365128,0.051831,44.351401,-0.943373,8.88073,4.63583E+18,0.792501,-0.066209,0.604968,0.039645,-9.669239,2.51716,-0.199722,0.25298,0.106133,-0.170733,37.745293,-27.466658,-5.099759,4.63583E+18,0.281887,-0.584976,0.402922,0.644978,-9.86887,-1.945252,-0.552991,0.420395,0.172134,0.327674,40.083823,22.249601,-0.774752,4.63583E+18,-0.481664,-0.470489,-0.554502,0.489046,0
-9.314803,-0.058137,3.995723,-0.032469,-1.409224,0.023801,44.629764,-1.039079,8.291384,4.63583E+18,0.796012,-0.065996,0.600331,0.040148,-9.624806,2.687088,-0.35206,0.204017,0.165989,-0.170306,37.737478,-27.255719,-4.974762,4.63583E+18,0.282536,-0.58549,0.403218,0.644042,-9.720134,-1.934058,-0.537126,0.602589,0.209341,0.380816,40.031734,22.123472,-0.502928,4.63583E+18,-0.480784,-0.473008,-0.552945,0.489247,0
-8.973459,0.10495,3.918744,-0.060774,-1.454781,0.009739,44.664006,-1.112824,7.637593,4.63583E+18,0.799604,-0.065901,0.595513,0.040687,-9.67754,2.644616,-0.37843,0.108867,0.208203,-0.155095,37.93621,-27.137058,-4.818997,4.63583E+18,0.282841,-0.586202,0.403345,0.643181,-9.537041,-1.967018,-0.55625,0.753929,0.251369,0.447462,40.130613,22.174542,-0.812386,4.63583E+18,-0.479639,-0.476063,-0.551025,0.489573,0
-8.81527,0.221175,3.425364,-0.154214,-1.592906,0.016705,44.5321,-1.13673,7.089702,4.63583E+18,0.803479,-0.066075,0.590196,0.041516,-9.412403,1.812572,-0.026864,0.018929,0.259303,-0.15219,38.105165,-27.191746,-4.623679,4.63583E+18,0.282833,-0.587151,0.403297,0.642348,-9.535607,-1.929791,-0.599787,0.715415,0.275688,0.532787,40.401399,22.068757,-1.068543,4.63583E+18,-0.478682,-0.479279,-0.549055,0.489585,0
-8.562398,0.308575,3.580579,-0.250175,-1.747585,0.018759,44.644333,-1.196835,6.611673,4.63583E+18,0.807669,-0.066535,0.584317,0.04263,-8.866046,0.857038,0.530238,-0.051693,0.306598,-0.174703,37.979696,-27.167828,-4.561173,4.63583E+18,0.282632,-0.588347,0.40306,0.64149,-9.766109,-1.907001,-0.524315,0.578465,0.302444,0.648447,40.544035,21.73795,-0.890954,4.63583E+18,-0.478165,-0.482534,-0.547179,0.488993,0
-8.09815,0.410123,3.882871,-0.351712,-1.846351,0.013751,44.934421,-1.109957,6.076649,4.63583E+18,0.812026,-0.067327,0.578053,0.043998,-8.537883,0.150967,1.318276,-0.104843,0.311559,-0.19611,37.837102,-27.137058,-4.620246,4.63583E+18,0.282349,-0.589654,0.402634,0.640682,-9.922565,-2.076445,-0.118081,0.459659,0.379801,0.782984,40.632126,21.474282,-0.830103,4.63583E+18,-0.477978,-0.48601,-0.54542,0.487698,0
-7.413567,0.534154,4.008438,-0.483963,-1.856961,0.036902,45.069222,-1.005833,5.283631,4.63583E+18,0.816316,-0.068504,0.5717,0.045764,-8.378205,-0.401311,2.350998,-0.160727,0.293572,-0.218283,37.96255,-27.191735,-4.588532,4.63583E+18,0.282017,-0.591013,0.401981,0.639985,-10.140216,-2.018938,0.408393,0.281066,0.469747,0.891484,40.774921,21.366638,-0.906576,4.63583E+18,-0.478159,-0.48955,-0.543973,0.48559,0
-6.625028,0.664517,3.899256,-0.599257,-1.835851,0.081369,45.154137,-1.200593,4.444846,4.63583E+18,0.820463,-0.069968,0.565372,0.047947,-8.145815,-0.617196,3.230896,-0.253726,0.276013,-0.248017,38.152008,-27.058496,-4.553361,4.63583E+18,0.281564,-0.592483,0.400986,0.63945,-10.613819,-1.387531,0.821276,0.065043,0.541074,0.960947,40.818909,21.22647,-0.774804,4.63583E+18,-0.478751,-0.492952,-0.542954,0.482698,0
-6.013568,0.723741,3.499236,-0.714853,-1.825771,0.131144,45.27726,-1.40437,3.717147,4.63583E+18,0.824489,-0.071706,0.559034,0.050566,-7.79477,-0.455163,3.152091,-0.451593,0.285275,-0.288944,38.263839,-26.919297,-4.740793,4.63583E+18,0.280714,-0.594276,0.399371,0.639171,-10.92149,-0.217035,0.998939,-0.175286,0.609804,0.98837,40.831115,20.943516,-0.503026,4.63583E+18,-0.479725,-0.496063,-0.542486,0.479056,0
-5.511704,0.566853,3.281845,-0.808098,-1.799439,0.188182,45.275313,-1.344761,3.127895,4.63583E+18,0.828359,-0.073633,0.552746,0.053588,-7.333885,1.004698,1.845357,-0.999634,0.405795,-0.360151,38.396137,-26.885102,-4.846339,4.63583E+18,0.278493,-0.597139,0.396255,0.639412,-10.993571,0.701398,0.690905,-0.398351,0.603123,1.000672,40.910225,20.51147,-0.286544,4.63583E+18,-0.481188,-0.49873,-0.542411,0.474887,0
-4.959414,0.505509,3.312438,-0.896303,-1.722526,0.250032,45.263107,-1.407549,2.427373,4.63583E+18,0.831956,-0.075733,0.546686,0.056999,-7.216003,3.292666,0.135405,-1.49877,0.609659,-0.411439,38.50017,-26.72454,-4.541821,4.63583E+18,0.275278,-0.600907,0.392336,0.639691,-10.740792,0.085581,-0.912074,-0.499781,0.658149,0.977063,41.199061,20.057115,0.109515,4.63583E+18,-0.482677,-0.501235,-0.542681,0.470408,0
-4.566635,-0.383012,3.467623,-0.829226,-1.626185,0.392283,45.26452,-1.739101,1.605915,4.63583E+18,0.835268,-0.077295,0.540986,0.060716,-8.024206,4.907909,-2.482788,-1.615136,0.764109,-0.470812,38.573413,-26.480391,-4.315593,4.63583E+18,0.271309,-0.605507,0.387783,0.639827,-8.901109,-0.029147,-5.268351,-0.625238,0.798004,0.846943,41.473942,19.653261,0.503812,4.63583E+18,-0.483843,-0.503453,-0.543734,0.465601,0
-4.457122,-0.824628,3.09111,-0.751011,-1.646701,0.567286,45.351395,-2.053682,1.001697,4.63583E+18,0.838557,-0.078179,0.535259,0.06487,-9.802735,5.256554,-3.504077,-1.387779,0.765459,-0.633717,38.701316,-26.228435,-4.651783,4.63583E+18,0.268327,-0.610085,0.383404,0.639374,-9.50986,-1.165852,-7.411235,-0.6826,0.812019,0.822894,41.606037,19.329564,0.882197,4.63583E+18,-0.485036,-0.505512,-0.54496,0.460669,0
-4.52311,-1.123036,2.83387,-0.614988,-1.722795,0.693007,45.482838,-2.238187,0.57856,4.63583E+18,0.841973,-0.078283,0.529309,0.069179,-11.68351,4.049423,-1.967098,-0.864804,0.710259,-0.809361,38.961469,-25.92528,-5.038091,4.63583E+18,0.267118,-0.614248,0.379798,0.638045,-10.005869,-2.053098,-5.161016,-0.605574,0.837389,0.892569,41.82792,19.081721,1.184169,4.63583E+18,-0.486127,-0.507917,-0.545926,0.455703,0
-4.455365,-1.895303,3.065666,-0.351319,-1.785445,0.755879,45.445343,-2.519825,-0.092298,4.63583E+18,0.845539,-0.077299,0.523201,0.073144,-12.247014,2.628653,-0.612275,-0.306795,0.705138,-0.932138,39.224215,-25.595684,-4.897325,4.63583E+18,0.267664,-0.617952,0.377344,0.635691,-8.845453,-0.461029,-3.280474,-0.356411,0.973051,0.820002,42.017367,18.849802,1.541351,4.63583E+18,-0.48623,-0.510903,-0.54683,0.45115,0
-4.225392,-2.373922,2.694325,-0.06029,-1.833657,0.723584,45.288066,-2.936779,-0.826612,4.63583E+18,0.849257,-0.07534,0.516966,0.076371,-11.848338,1.924131,-0.301781,0.083903,0.71587,-1.02247,39.448343,-25.156814,-4.526714,4.63583E+18,0.269432,-0.621374,0.375695,0.632577,-6.272834,-2.603041,-3.565672,0.273073,1.207302,0.655925,42.073613,18.550986,1.919771,4.63583E+18,-0.484134,-0.515215,-0.547357,0.447849,0
-4.04065,-3.112888,1.52438,0.153295,-1.909133,0.628147,45.202615,-3.311549,-1.588744,4.63583E+18,0.853177,-0.072801,0.510468,0.078819,-11.22438,0.942718,-0.144678,0.368732,0.723942,-1.085591,39.621235,-24.710968,-4.215145,4.63583E+18,0.272083,-0.624579,0.374632,0.628907,-3.454519,-6.456905,-4.174967,1.23136,1.499141,0.531281,42.088473,18.424682,2.2982,4.63583E+18,-0.479059,-0.521692,-0.546923,0.446335,0
-4.013455,-3.042957,0.47746,0.26806,-1.997608,0.453273,45.128829,-3.368405,-2.431521,4.63583E+18,0.857316,-0.070192,0.503602,0.080422,-10.635428,0.101437,0.251172,0.595089,0.758142,-1.120173,39.869191,-24.295917,-3.809491,4.63583E+18,0.27535,-0.627648,0.374097,0.624733,-1.105844,-7.209817,-2.873744,1.931831,1.569016,0.372805,42.157991,18.466076,2.676559,4.63583E+18,-0.471963,-0.52929,-0.545622,0.446542,0
-3.854209,-2.665652,-0.007224,0.371013,-2.016612,0.153589,45.103023,-3.236904,-3.208895,4.63583E+18,0.861562,-0.067832,0.496579,0.080738,-10.039263,0.186732,0.645806,0.709638,0.821234,-1.135862,40.182182,-23.990139,-3.395844,4.63583E+18,0.278849,-0.63075,0.373876,0.620173,0.76255,-5.554011,-3.156338,2.538658,1.82762,0.289427,42.195683,18.424693,3.055004,4.63583E+18,-0.46272,-0.538298,-0.543808,0.447658,0
-3.808968,-2.612945,-0.695473,0.457368,-1.893928,-0.212775,45.005376,-3.260757,-3.965678,4.63583E+18,0.865643,-0.065956,0.489887,0.079519,-9.471363,0.424253,0.886131,0.709532,0.89894,-1.133568,40.39029,-23.738206,-3.017443,4.63583E+18,0.282208,-0.634021,0.373736,0.615384,-2.224685,-3.067923,-7.232867,2.757301,1.743693,0.523235,42.200993,18.284577,3.290149,4.63583E+18,-0.45353,-0.548004,-0.540802,0.448926,0
-4.031206,-2.537758,-1.184486,0.344475,-1.839377,-0.544155,44.921303,-3.322915,-4.710903,4.63583E+18,0.869633,-0.065179,0.48323,0.077316,-8.840615,0.354629,0.702457,0.667071,0.977384,-1.106884,40.482147,-23.333589,-2.521974,4.63583E+18,0.285252,-0.637473,0.373632,0.610458,-17.317446,18.444521,5.049689,1.25783,0.351542,0.800699,42.392028,17.953964,3.256207,4.63583E+18,-0.451367,-0.552835,-0.537275,0.449418,0
-4.12249,-2.339647,0.564098,0.098879,-1.786158,-0.788344,44.909095,-3.193893,-5.380978,4.63583E+18,0.873472,-0.065795,0.47659,0.074702,-8.274096,0.324189,0.194807,0.608172,1.031754,-1.069887,40.761659,-22.946768,-2.132139,4.63583E+18,0.287948,-0.641047,0.373525,0.605495,-27.738527,32.759562,24.056794,-0.939243,-0.550859,1.249087,42.569309,17.508683,3.015279,4.63583E+18,-0.457104,-0.552824,-0.535108,0.446207,0
-3.818135,-1.421808,3.511243,0.290525,-1.631574,-0.910016,44.885231,-2.732778,-5.992759,4.63583E+18,0.877037,-0.066,0.470508,0.071218,-8.506981,0.146773,-0.456886,0.561068,1.044737,-1.012711,41.156653,-22.609406,-1.846997,4.63583E+18,0.290341,-0.644593,0.373451,0.600614,-17.919191,5.190033,14.632927,-1.269434,-0.025636,0.639791,42.613386,17.102147,2.963742,4.63583E+18,-0.46128,-0.551778,-0.535937,0.442192,0
-3.742724,0.036981,2.112397,0.459524,-1.688983,-0.94707,44.784108,-2.415161,-6.676856,4.63583E+18,0.880716,-0.065639,0.464225,0.067279,-8.607887,-0.07259,-1.488114,0.573898,1.011499,-0.928653,41.336649,-22.283214,-1.324413,4.63583E+18,0.292598,-0.647884,0.37358,0.595879,-4.486117,-16.669638,-8.081012,0.076969,0.860708,0.426707,42.577844,16.83567,3.338849,4.63583E+18,-0.459976,-0.554463,-0.536464,0.439544,0
-4.068523,0.727094,-0.341271,0.180786,-1.68999,-0.897254,44.641973,-2.045108,-7.362395,4.63583E+18,0.884248,-0.066199,0.457843,0.064057,-8.267746,-0.3059,-2.724456,0.609709,0.957884,-0.82412,41.358681,-22.223251,-0.719819,4.63583E+18,0.294765,-0.650811,0.374001,0.591339,-5.400695,-13.569575,-12.502393,0.470759,0.964258,0.77892,42.700898,16.718338,3.805344,4.63583E+18,-0.458166,-0.558867,-0.535643,0.436851,0
-3.9078,0.597766,1.851942,0.161331,-1.252183,-0.836697,44.701562,-1.462543,-8.011316,4.63583E+18,0.886877,-0.06683,0.453063,0.060971,-9.100594,-0.551025,-3.454688,0.67216,0.830013,-0.730793,41.506862,-22.199503,-0.208551,4.63583E+18,0.297407,-0.652961,0.375044,0.586969,-12.079814,-1.974704,-4.351764,0.055951,0.848658,1.046808,42.862265,16.64243,4.049614,4.63583E+18,-0.458052,-0.562848,-0.534716,0.432977,0
-4.102361,0.379464,2.919842,0.363514,-1.202044,-0.731097,44.664026,-1.28464,-8.408315,4.63583E+18,0.889407,-0.066524,0.448531,0.057878,-10.0382,0.160698,-2.989483,0.698658,0.705603,-0.710259,41.465842,-21.435553,0.181746,4.63583E+18,0.299909,-0.654944,0.375661,0.58308,-11.298861,4.090978,1.62329,-0.102058,1.004015,1.133053,42.973205,16.33047,4.242262,4.63583E+18,-0.458103,-0.566981,-0.534149,0.428206,0
-4.805176,0.199859,1.20217,0.444576,-1.567733,-0.59048,44.518453,-1.375666,-8.811546,4.63583E+18,0.89257,-0.065564,0.442682,0.055253,-10.059234,1.733481,-1.739871,0.653824,0.68679,-0.76889,41.013136,-20.334804,0.468972,4.63583E+18,0.302453,-0.657011,0.375976,0.579223,-8.076302,1.152749,2.339223,0.056382,1.163712,1.082995,43.137702,15.88521,4.657191,4.63583E+18,-0.457315,-0.571565,-0.5337,0.423487,0
-5.124111,-0.214474,1.528879,0.413387,-1.423825,-0.464975,44.508194,-1.048047,-9.37655,4.63583E+18,0.895388,-0.064519,0.437375,0.05311,-9.590305,2.305849,-0.679258,0.605939,0.720315,-0.84674,40.578785,-19.845517,0.678517,4.63583E+18,0.304994,-0.659325,0.375995,0.575237,-7.981644,-0.52824,0.699487,0.184644,1.164115,1.047633,43.330345,15.411824,5.209614,4.63583E+18,-0.456138,-0.57629,-0.533086,0.419102,0
-5.301232,-0.863205,3.139099,0.396224,-1.021687,-0.325838,44.455621,-0.808534,-9.74967,4.63583E+18,0.897409,-0.063371,0.433588,0.051408,-9.738399,1.529775,-0.41301,0.643996,0.739958,-0.895579,40.658081,-19.632242,0.994185,4.63583E+18,0.307716,-0.661694,0.375984,0.571058,-8.794199,-0.294845,-1.201684,0.22727,1.183303,1.047524,43.258339,14.945295,5.411012,4.63583E+18,-0.454797,-0.581104,-0.532412,0.414747,0
-5.737227,-0.979185,3.166244,0.412463,-1.01222,-0.224299,44.125993,-0.952177,-10.046048,4.63583E+18,0.899376,-0.06198,0.429857,0.050053,-9.58592,0.736574,-0.564233,0.717966,0.736608,-0.899056,40.959877,-19.068379,1.493993,4.63583E+18,0.310646,-0.663946,0.376124,0.56675,-9.048809,0.275093,-2.565969,0.282137,1.203514,1.053933,43.121409,14.596008,5.594575,4.63583E+18,-0.453268,-0.586045,-0.531642,0.410434,0
-6.368938,-0.613007,1.832328,0.311733,-1.151872,-0.153842,43.847045,-0.915191,-10.441952,4.63583E+18,0.901531,-0.060809,0.42559,0.049176,-9.55123,0.462543,-1.125995,0.789141,0.736161,-0.896769,40.956548,-18.643461,1.930738,4.63583E+18,0.313758,-0.666078,0.376426,0.562316,-9.74792,0.307377,-2.116112,0.401965,1.23875,1.107121,43.292614,14.345422,6.155344,4.63583E+18,-0.451438,-0.591362,-0.530578,0.40618,0
-7.146587,-0.28184,1.61999,0.085179,-0.93353,-0.119675,43.862075,-0.693,-10.899072,4.63583E+18,0.903216,-0.060473,0.422096,0.048774,-8.973354,0.918435,-1.427241,0.832734,0.749687,-0.928329,40.996155,-18.500677,2.250166,4.63583E+18,0.317033,-0.668211,0.376746,0.557715,-10.137291,-0.167888,-2.852062,0.525917,1.202492,1.15079,43.548952,14.056221,6.661765,4.63583E+18,-0.449433,-0.596916,-0.529101,0.402185,0
-8.094856,-0.117847,2.506408,-0.003515,-0.692624,-0.196839,43.99548,-0.551278,-11.176482,4.63583E+18,0.90446,-0.060654,0.419467,0.048176,-9.124107,1.219712,-1.159835,0.793657,0.767844,-0.954178,41.302953,-18.204753,2.714622,4.63583E+18,0.320219,-0.670454,0.376914,0.55307,-9.610901,-0.445707,-4.621092,0.620722,1.175718,1.172304,43.748029,13.626951,6.98245,4.63583E+18,-0.447263,-0.602618,-0.527334,0.398404,0
-8.882559,0.15793,2.480271,0.001202,-0.702746,-0.326075,43.979926,-0.536266,-11.418446,4.63583E+18,0.90574,-0.06104,0.416764,0.047084,-9.884019,1.084843,-0.806133,0.685379,0.787366,-1.000802,41.381773,-17.852079,3.221574,4.63583E+18,0.323168,-0.672936,0.376715,0.548458,-8.360463,-0.975063,-4.793502,0.659864,1.172593,1.228645,43.807045,13.163113,7.272738,4.63583E+18,-0.445071,-0.608478,-0.525324,0.39459,0
-8.781611,0.48776,2.4596,-0.057029,-0.689183,-0.4458,43.884207,-0.377556,-11.875659,4.63583E+18,0.906995,-0.061857,0.414065,0.045638,-10.019632,1.336191,-0.945261,0.487039,0.824031,-1.083011,41.128216,-17.526892,3.565148,4.63583E+18,0.325679,-0.675872,0.375867,0.543924,-8.047342,-0.624123,-3.683955,0.685499,1.177837,1.291761,43.707385,12.813774,7.642062,4.63583E+18,-0.442879,-0.614496,-0.523092,0.390677,0
-7.923608,0.494902,3.918284,-0.051787,-0.502264,-0.499573,43.787099,-0.23054,-12.106399,4.63583E+18,0.907931,-0.062781,0.412056,0.043931,-9.294255,1.713005,-1.850367,0.265507,0.871325,-1.166005,41.199543,-16.986828,3.779146,4.63583E+18,0.327668,-0.679322,0.374334,0.539472,-8.665047,-0.745988,-3.317305,0.618437,1.131634,1.392128,43.630367,12.496382,8.032698,4.63583E+18,-0.441095,-0.620495,-0.520594,0.386527,0
-7.383849,0.14143,5.305475,0.056694,-0.123935,-0.457636,43.653675,-0.145088,-11.97958,4.63583E+18,0.908231,-0.063292,0.411507,0.042098,-8.57288,1.530523,-2.664693,0.099041,0.932346,-1.201009,41.613821,-16.429002,4.024595,4.63583E+18,0.329157,-0.683163,0.372397,0.535037,-9.76394,0.041076,-3.420073,0.543045,1.11,1.514907,43.884287,12.007195,8.4806,4.63583E+18,-0.439723,-0.626547,-0.517827,0.382019,0
-7.726034,-0.322207,5.077662,0.105502,0.278356,-0.341618,43.678944,-0.034369,-11.729916,4.63583E+18,0.907831,-0.063489,0.412517,0.040513,-8.639258,1.008727,-3.239449,0.076026,0.919554,-1.214418,41.879464,-16.037629,4.43005,4.63583E+18,0.330616,-0.687001,0.370337,0.530634,-10.289481,1.072838,-3.550125,0.525995,1.078444,1.49815,44.102005,11.47012,8.734492,4.63583E+18,-0.438408,-0.63244,-0.515039,0.377561,0
-8.675869,-1.059838,4.771161,0.102276,0.453573,-0.20365,43.83762,0.196153,-11.675551,4.63583E+18,0.907102,-0.063491,0.414224,0.03941,-9.030929,-0.269817,-3.637326,0.170965,0.805569,-1.236191,42.080507,-15.653474,4.84379,4.63583E+18,0.332559,-0.690463,0.368254,0.52636,-9.218965,0.654626,-4.025274,0.527199,1.076964,1.546747,44.027457,10.980721,8.939348,4.63583E+18,-0.437141,-0.638396,-0.512085,0.372997,0
-9.319513,-1.812222,5.28633,0.162039,0.374897,-0.090119,43.984655,0.316011,-11.736876,4.63583E+18,0.906502,-0.063058,0.415673,0.038653,-9.47167,-1.214014,-3.061926,0.254631,0.708724,-1.206595,42.304639,-15.183906,5.097509,4.63583E+18,0.334813,-0.693525,0.366291,0.522258,-8.612917,1.191789,-4.34137,0.468381,1.052945,1.635577,44.014567,10.571431,9.280471,4.63583E+18,-0.43619,-0.644354,-0.508908,0.368183,0
-9.456581,-2.086077,5.725,0.206297,0.376184,0.009348,44.058461,0.218898,-11.541542,4.63583E+18,0.905892,-0.062285,0.417158,0.038194,-9.815253,-0.866264,-2.509808,0.320281,0.653619,-1.215253,42.48539,-14.847076,5.15594,4.63583E+18,0.337349,-0.696365,0.364357,0.518184,-8.437526,1.782987,-4.022412,0.461014,1.010639,1.649783,44.229886,10.008912,9.658972,4.63583E+18,-0.435339,-0.650219,-0.505593,0.363416,0
-9.828536,-1.954056,6.181532,0.151118,0.484398,0.113723,44.082312,0.073807,-11.346247,4.63583E+18,0.90506,-0.061557,0.419068,0.038198,-9.374797,-0.499208,-2.292401,0.349102,0.582757,-1.258549,42.636299,-14.595128,5.338521,4.63583E+18,0.340157,-0.699053,0.362247,0.514194,-8.515902,0.756222,-4.243127,0.419308,0.962433,1.664022,44.37437,9.207598,9.980148,4.63583E+18,-0.434696,-0.65592,-0.50218,0.358641,0
-10.706243,-1.486444,7.33403,0.157547,0.555398,0.203617,44.140601,0.012207,-11.150948,4.63583E+18,0.904086,-0.060658,0.421267,0.03851,-10.129693,-0.424926,-2.245121,0.312562,0.529736,-1.28823,42.938605,-14.292035,5.802893,4.63583E+18,0.342991,-0.701699,0.359884,0.510352,-8.401998,1.29857,-4.868182,0.308406,0.854832,1.711044,44.474689,8.534445,10.123058,4.63583E+18,-0.434622,-0.661315,-0.498577,0.353818,0
-11.747981,-0.560051,7.844911,0.163735,0.631306,0.244875,44.057088,0.00057,-10.940113,4.63583E+18,0.902967,-0.059675,0.423761,0.038948,-9.943458,0.220403,-2.904988,0.259861,0.497897,-1.368989,43.383759,-14.016983,6.130692,4.63583E+18,0.345878,-0.704447,0.357115,0.506549,-9.43105,2.358955,-5.017243,0.168179,0.705884,1.692857,44.448262,8.150538,10.373419,4.63583E+18,-0.43519,-0.666157,-0.494929,0.349126,0
-12.968491,0.185851,7.957747,0.094576,0.700735,0.226167,44.020695,-0.072675,-10.678169,4.63583E+18,0.901702,-0.058996,0.426496,0.039419,-8.920926,-1.077658,-3.715594,0.261554,0.435274,-1.331572,43.813073,-13.765064,6.388312,4.63583E+18,0.348771,-0.70698,0.354355,0.502962,-9.595682,2.626146,-5.141317,0.049871,0.580003,1.69282,44.454036,7.651815,10.742742,4.63583E+18,-0.436321,-0.670563,-0.491198,0.344519,0
-13.945424,0.335419,8.419119,0.109291,0.690833,0.171303,44.181333,-0.173073,-10.564993,4.63583E+18,0.90046,-0.058356,0.429178,0.039661,-9.037886,-2.232265,-3.951832,0.384125,0.27984,-1.27826,44.052305,-13.353014,6.665658,4.63583E+18,0.352573,-0.708594,0.3524,0.499401,-8.374925,2.751329,-5.195027,0.017284,0.471693,1.723544,44.602526,6.930688,10.980673,4.63583E+18,-0.437785,-0.67478,-0.487203,0.340072,0
-14.648193,0.290587,8.970608,0.122796,0.78888,0.124614,44.338657,-0.390066,-10.323133,4.63583E+18,0.899043,-0.057766,0.432215,0.039679,-9.320982,-2.363816,-3.717165,0.521142,0.093137,-1.254835,43.879522,-12.650051,6.755114,4.63583E+18,0.356625,-0.709822,0.349996,0.496462,-8.044679,2.735573,-5.295784,0.027479,0.380151,1.748168,44.785619,6.161693,10.956485,4.63583E+18,-0.439416,-0.678898,-0.482931,0.33584,0
-15.229421,-0.222264,9.661487,0.203611,0.984818,0.106255,44.398906,-0.451674,-9.852337,4.63583E+18,0.897283,-0.056937,0.435989,0.039435,-9.299725,-2.485051,-3.176231,0.549285,-0.062176,-1.225994,43.53328,-11.886632,6.610516,4.63583E+18,0.360839,-0.710676,0.347385,0.494023,-8.216447,3.027616,-5.236544,-0.029977,0.269186,1.752831,44.835127,5.507159,11.023717,4.63583E+18,-0.441415,-0.682727,-0.478496,0.331779,0
-15.708927,-0.862439,9.947097,0.312166,1.172486,0.105223,44.364402,-0.424561,-9.473946,4.63583E+18,0.895188,-0.055733,0.440472,0.038944,-9.262055,-1.819483,-2.778483,0.479557,-0.23585,-1.23054,43.502956,-11.193229,6.523175,4.63583E+18,0.365097,-0.711262,0.344345,0.492176,-9.285477,2.855236,-4.926281,-0.087913,0.160039,1.79792,44.732822,4.941837,11.200382,4.63583E+18,-0.443835,-0.686351,-0.473786,0.327811,0
-16.518076,-1.127716,9.880663,0.356356,1.382187,0.076979,44.560483,-0.29239,-9.03548,4.63583E+18,0.892695,-0.054449,0.445724,0.038217,-9.549067,-1.03014,-2.817985,0.379631,-0.329334,-1.259489,43.696158,-10.638614,6.518754,4.63583E+18,0.36924,-0.711827,0.340861,0.490691,-9.933182,2.687873,-5.027628,-0.114366,0.041546,1.892329,44.789384,4.211267,11.328892,4.63583E+18,-0.446666,-0.689909,-0.468595,0.323935,0
-17.58515,-1.316633,9.56732,0.333726,1.507923,0.023742,44.839728,-0.379188,-8.290253,4.63583E+18,0.889937,-0.053366,0.451411,0.037304,-10.48014,-1.40186,-3.02552,0.346963,-0.381709,-1.244526,43.822465,-10.088007,6.448678,4.63583E+18,0.373318,-0.712292,0.337264,0.489415,-9.481096,3.66304,-5.660293,-0.160307,-0.114448,1.861758,44.880167,3.496802,11.286097,4.63583E+18,-0.449865,-0.693069,-0.463234,0.320455,0
-18.497175,-1.55569,9.525786,0.290952,1.473668,-0.021819,44.826779,-0.53593,-7.63768,4.63583E+18,0.887205,-0.05252,0.456936,0.036308,-11.006841,-2.192782,-3.030613,0.374489,-0.472562,-1.230801,43.934629,-9.455386,6.284323,4.63583E+18,0.377566,-0.712486,0.333612,0.488375,-9.555445,3.752167,-6.223662,-0.217889,-0.290864,1.835974,44.917912,2.915474,11.276974,4.63583E+18,-0.453509,-0.695793,-0.457666,0.317402,0
-19.095155,-1.837517,9.729905,0.323881,1.439249,-0.032615,44.717047,-0.645664,-7.151367,4.63583E+18,0.884513,-0.051566,0.462318,0.035216,-10.141309,-1.472812,-2.741702,0.330907,-0.52731,-1.262908,44.029982,-8.951909,6.143506,4.63583E+18,0.381813,-0.712659,0.329678,0.487492,-9.304612,3.975505,-5.85864,-0.300839,-0.433567,1.806229,44.999566,2.251712,11.21286,4.63583E+18,-0.457598,-0.698072,-0.451996,0.314641,0
-19.490265,-1.682937,9.658595,0.339174,1.582464,-0.050044,44.816035,-0.571814,-6.646272,4.63583E+18,0.881513,-0.050607,0.468207,0.033998,-9.471542,-1.265826,-2.639096,0.256467,-0.564135,-1.320893,44.157707,-8.638078,5.979161,4.63583E+18,0.385995,-0.712929,0.325351,0.486711,-9.388305,3.718967,-5.477239,-0.385553,-0.524278,1.787075,45.15446,1.49867,11.060632,4.63583E+18,-0.462051,-0.699991,-0.446292,0.312002,0
-19.846205,-0.870742,9.522152,0.358294,1.815111,-0.064703,44.961799,-0.561541,-5.985152,4.63583E+18,0.878019,-0.049637,0.474925,0.032638,-9.963455,-2.289914,-2.793529,0.264184,-0.671944,-1.336239,44.308613,-8.280551,5.721585,4.63583E+18,0.390361,-0.712962,0.320808,0.486196,-8.83532,5.0184,-5.131227,-0.514779,-0.52903,1.728715,45.325362,0.662826,10.737093,4.63583E+18,-0.466785,-0.701503,-0.440889,0.309228,0
-20.187271,-0.010184,9.044981,0.383634,1.777173,-0.049511,44.985599,-0.532557,-5.300286,4.63583E+18,0.874551,-0.048537,0.481483,0.031289,-10.851236,-2.260744,-2.643025,0.22887,-0.726928,-1.380334,44.455103,-7.709834,5.490873,4.63583E+18,0.394769,-0.71297,0.31596,0.485799,-9.487575,4.511252,-5.931415,-0.637632,-0.578945,1.563911,45.362709,0.170854,10.513985,4.63583E+18,-0.47173,-0.702368,-0.436003,0.306678,0
-20.300123,0.156678,8.961637,0.378278,1.658219,-0.005326,45.084574,-0.37843,-4.556966,4.63583E+18,0.871267,-0.047349,0.487589,0.030134,-10.531546,-1.829717,-2.849405,0.125805,-0.714856,-1.386026,44.601593,-7.050634,5.350037,4.63583E+18,0.39885,-0.713149,0.310892,0.485472,-12.65488,3.936083,-4.240677,-0.620755,-0.722418,1.537133,45.305481,-0.324694,10.407184,4.63583E+18,-0.476826,-0.702994,-0.430868,0.304613,0
-19.93076,-0.072002,9.269349,0.34687,1.696048,0.030192,45.23229,-0.401602,-3.854718,4.63583E+18,0.867851,-0.046206,0.493811,0.029163,-10.433334,-2.624956,-3.000737,0.112299,-0.7432,-1.309636,44.802529,-6.547164,5.123467,4.63583E+18,0.402757,-0.713164,0.305965,0.485354,-13.629586,6.66866,-0.474908,-0.500346,-0.698294,1.531322,45.299005,-1.049916,10.178658,4.63583E+18,-0.481491,-0.703841,-0.425621,0.302689,0
-19.792238,-0.139289,9.367298,0.361833,1.893018,0.036878,45.254778,-0.536511,-3.018833,4.63583E+18,0.86398,-0.045016,0.500719,0.028146,-11.011788,-3.125095,-3.033075,0.068262,-0.733087,-1.228976,44.987779,-6.233273,4.838274,4.63583E+18,0.406342,-0.713145,0.301193,0.48538,-13.901182,5.045831,-0.86979,-0.364004,-0.768266,1.556058,45.368435,-1.707134,9.833824,4.63583E+18,-0.485886,-0.70488,-0.419966,0.301145,0
-20.349994,0.232067,8.481773,0.380021,2.103979,0.036208,45.265053,-0.596232,-2.36101,4.63583E+18,0.85961,-0.043783,0.508352,0.027047,-11.908897,-3.521967,-2.846168,0.000135,-0.717702,-1.184056,44.92859,-5.774579,4.604182,4.63583E+18,0.4096,-0.713191,0.296433,0.485504,-12.992515,5.972433,-1.070822,-0.226684,-0.7692,1.527886,45.387127,-2.205716,9.467611,4.63583E+18,-0.489818,-0.706108,-0.414197,0.299886,0
-21.270033,0.622578,7.008169,0.331911,2.109837,0.053249,45.253468,-0.558924,-1.748023,4.63583E+18,0.855148,-0.042684,0.515963,0.026107,-12.794123,-4.331168,-1.913138,-0.004931,-0.710014,-1.099306,44.854426,-5.247599,4.279989,4.63583E+18,0.412649,-0.713134,0.291919,0.485741,-11.546947,5.362382,-2.370273,-0.115586,-0.760154,1.443561,45.396665,-2.90809,9.177658,4.63583E+18,-0.493278,-0.707393,-0.408535,0.298949,0
-22.046634,0.537622,6.446069,0.326744,1.987638,0.094291,45.207253,-0.426636,-0.989233,4.63583E+18,0.850879,-0.041498,0.523106,0.025345,-13.125235,-3.978605,-1.10259,-0.062827,-0.687279,-0.964887,44.951138,-4.801559,3.827118,4.63583E+18,0.415215,-0.71304,0.287717,0.486198,-9.616559,5.266328,-3.414184,-0.065394,-0.706052,1.291772,45.40887,-3.562601,8.975891,4.63583E+18,-0.496288,-0.708562,-0.403353,0.298237,0
-22.292077,-0.024577,6.079124,0.3274,1.953219,0.139202,45.318422,-0.51146,-0.177729,4.63583E+18,0.846621,-0.040206,0.530099,0.024744,-12.664993,-4.234744,-0.693279,-0.114021,-0.622063,-0.793062,45.109841,-4.440952,3.587771,4.63583E+18,0.417195,-0.712945,0.28403,0.486811,-8.166549,5.455923,-4.125628,-0.076036,-0.632688,1.072353,45.297117,-4.003974,8.802324,4.63583E+18,-0.498917,-0.709407,-0.39897,0.297735,0
-22.694231,-0.753033,5.344885,0.265686,2.061809,0.160785,45.474504,-0.659847,0.819206,4.63583E+18,0.842048,-0.039092,0.537433,0.024336,-11.838177,-4.641088,-0.760454,-0.174183,-0.525339,-0.599343,45.159614,-4.158053,3.544575,4.63583E+18,0.418482,-0.712912,0.28096,0.487536,-7.695276,5.731715,-4.196308,-0.086185,-0.56042,0.83676,45.255518,-4.270651,8.393037,4.63583E+18,-0.501153,-0.709914,-0.395437,0.297485,0
-23.52176,-1.54842,4.375997,0.224986,2.109193,0.171465,45.461649,-0.805048,1.583129,4.63583E+18,0.837297,-0.038099,0.544889,0.024047,-11.220449,-4.772119,-0.508941,-0.253698,-0.416003,-0.386787,45.155186,-3.963952,3.423478,4.63583E+18,0.418969,-0.712983,0.278547,0.488397,-7.51789,6.370568,-3.555209,-0.091759,-0.457994,0.554004,45.433993,-4.435831,8.145814,4.63583E+18,-0.502879,-0.710061,-0.392956,0.29751,0
-24.174529,-1.741163,3.360877,0.234994,1.938909,0.151171,45.301665,-0.864798,2.269959,4.63583E+18,0.832874,-0.037097,0.55171,0.023689,-11.351055,-4.919694,-0.040722,-0.34869,-0.312985,-0.1507,45.155186,-3.906369,3.170356,4.63583E+18,0.418572,-0.713153,0.276821,0.48947,-7.568943,6.788375,-2.828486,-0.083753,-0.335231,0.24145,45.675461,-4.525113,8.096182,4.63583E+18,-0.50399,-0.70986,-0.391645,0.297838,0
-24.608845,-1.747579,2.909843,0.271704,1.819222,0.149147,45.108282,-0.877653,3.040953,4.63583E+18,0.828679,-0.035959,0.558083,0.023258,-12.09151,-5.388371,0.094313,-0.437026,-0.202865,0.135389,45.155186,-3.953031,2.947403,4.63583E+18,0.417199,-0.713367,0.275956,0.490816,-7.631136,7.318132,-1.777345,-0.087852,-0.235893,-0.096613,45.728931,-4.541154,8.093509,4.63583E+18,-0.50453,-0.709221,-0.391547,0.298574,0
-24.70714,-1.543271,2.437622,0.283846,1.746871,0.152745,45.132054,-1.012573,3.804863,4.63583E+18,0.824607,-0.034761,0.564176,0.022819,-12.500454,-5.868638,-0.077823,-0.492245,-0.103076,0.474355,45.155186,-3.979614,2.880947,4.63583E+18,0.414853,-0.713488,0.276157,0.492514,-8.756993,8.056517,-0.839674,-0.074713,-0.138205,-0.533922,45.662215,-4.483967,7.95054,4.63583E+18,-0.504326,-0.708015,-0.392928,0.299962,0
-24.484899,-1.400024,2.294942,0.281369,1.749269,0.144824,45.192457,-1.085809,4.445371,4.63583E+18,0.820484,-0.033588,0.570244,0.022358,-13.124522,-6.006042,-0.139806,-0.499207,-0.058253,0.855882,45.108538,-4.197299,3.005339,4.63583E+18,0.411645,-0.713264,0.277552,0.49474,-10.509274,8.523249,-0.160914,-0.062992,-0.058051,-0.992482,45.700666,-4.229636,7.900867,4.63583E+18,-0.503378,-0.706175,-0.395812,0.302093,0
-23.992711,-1.103261,2.556642,0.299147,1.897934,0.102542,45.11922,-1.13402,4.952224,4.63583E+18,0.815964,-0.032467,0.576783,0.021688,-14.253329,-6.076013,-0.18427,-0.38639,-0.097529,1.28958,45.043069,-4.795664,3.146236,4.63583E+18,0.407914,-0.712247,0.280394,0.497684,-11.980884,8.587157,0.261514,-0.133439,-0.049163,-1.362918,45.764381,-3.91492,7.964906,4.63583E+18,-0.502143,-0.703571,-0.399883,0.304851,0
-23.92649,-0.679113,1.794529,0.250289,1.837631,0.103722,45.061378,-1.046633,5.668006,4.63583E+18,0.811532,-0.031502,0.583076,0.021146,-15.588331,-6.302474,-0.382978,-0.141067,-0.237496,1.703765,44.779925,-5.431429,3.069529,4.63583E+18,0.404199,-0.710009,0.284724,0.50144,-13.624349,8.362619,0.046383,-0.231362,-0.09213,-1.718137,45.825411,-3.416491,7.831165,4.63583E+18,-0.500795,-0.700085,-0.405013,0.308303,0
-24.096791,-0.660533,1.509778,0.215979,1.5965,0.121479,45.056903,-0.950903,6.545036,4.63583E+18,0.807636,-0.030586,0.588521,0.020778,-16.889977,-6.097966,-0.45277,0.24254,-0.47164,2.080407,44.50256,-6.059563,2.762058,4.63583E+18,0.401083,-0.706143,0.290557,0.506035,-15.583785,8.186681,-0.398742,-0.404074,-0.161978,-2.078459,45.810211,-2.505052,7.550086,4.63583E+18,-0.499573,-0.695495,-0.411243,0.312399,0
-23.901574,-0.076336,2.08103,0.303341,1.533823,0.189723,44.873228,-0.903941,7.009495,4.63583E+18,0.803863,-0.029203,0.593746,0.020432,-18.170659,-5.640762,-0.501651,0.73013,-0.772296,2.45844,44.547108,-7.084094,2.399174,4.63583E+18,0.398927,-0.700298,0.297998,0.511505,-17.238565,8.116428,-0.729211,-0.747498,-0.281776,-2.422816,45.659234,-1.558544,7.397373,4.63583E+18,-0.499055,-0.689378,-0.41863,0.31694,0
-23.5494,1.575704,2.146526,0.337872,1.665538,0.240483,44.582754,-1.087672,7.487436,4.63583E+18,0.799725,-0.027588,0.599393,0.020154,-20.241945,-5.589946,-0.630402,1.245366,-1.134229,2.873192,44.641378,-8.161581,2.107344,4.63583E+18,0.397777,-0.6922,0.307099,0.517999,-18.579136,8.048546,-0.583858,-1.18809,-0.392536,-2.810812,45.54284,-0.630868,7.43997,4.63583E+18,-0.499414,-0.681426,-0.427424,0.321795,0
-23.560634,2.921842,2.168138,0.310053,1.771043,0.32676,44.449746,-1.405026,8.366263,4.63583E+18,0.79527,-0.025858,0.605366,0.02022,-22.235878,-4.952457,-0.434878,1.864954,-1.583083,3.351361,44.312668,-9.103743,1.711074,4.63583E+18,0.397859,-0.681325,0.318096,0.525661,-20.213416,7.689463,0.075347,-1.646678,-0.503882,-3.259946,45.740552,0.420734,7.430139,4.63583E+18,-0.500572,-0.671435,-0.437791,0.32702,0
-24.345874,3.41693,1.413149,0.101224,1.475976,0.424541,44.386795,-1.683946,9.168227,4.63583E+18,0.791488,-0.024547,0.610324,0.021167,-23.411848,-3.169932,-0.036499,2.486439,-2.01086,3.88473,43.892166,-10.330111,1.250566,4.63583E+18,0.398957,-0.667525,0.331142,0.534404,-23.347485,6.887932,1.559014,-2.120154,-0.77134,-3.780813,45.954624,1.516721,7.183901,4.63583E+18,-0.502689,-0.658949,-0.449576,0.333123,0
-24.307285,2.982275,2.179634,-0.217712,1.30591,0.443443,44.300092,-1.718747,9.55695,4.63583E+18,0.788075,-0.024224,0.614672,0.023004,-24.22074,-0.391167,1.096734,3.013725,-2.399908,4.495954,43.592587,-11.943601,0.682387,4.63583E+18,0.400489,-0.650791,0.346242,0.544239,-27.265697,4.793809,2.500382,-2.455026,-1.338058,-4.340548,45.835539,2.84393,6.878744,4.63583E+18,-0.505809,-0.643664,-0.461996,0.341194,0
-21.76041,2.027845,2.909128,-0.502653,1.185097,0.333012,44.141384,-1.599757,9.937333,4.63583E+18,0.784927,-0.025106,0.618565,0.02522,-26.730538,3.394567,4.667588,3.668668,-2.855559,5.436629,43.176365,-13.832529,-0.006816,4.63583E+18,0.402021,-0.63009,0.364358,0.555526,-31.08445,1.164255,2.308731,-2.615622,-1.998466,-4.811624,45.551805,4.540386,6.354457,4.63583E+18,-0.509695,-0.625857,-0.474272,0.351541,0
-18.751353,1.991572,2.940582,-0.649311,1.304322,0.234215,43.996158,-1.796878,10.329852,4.63583E+18,0.781441,-0.026735,0.622801,0.027477,-32.440801,9.989356,8.280501,4.606727,-3.419836,6.817301,42.419448,-15.981017,-0.61047,4.63583E+18,0.403222,-0.603704,0.386909,0.568555,-34.015518,-5.261001,1.323571,-2.514227,-2.597471,-5.436026,45.370465,6.208349,5.616076,4.63583E+18,-0.513246,-0.605738,-0.486439,0.364743,0
-15.581331,3.684172,1.864783,-0.783656,1.388313,0.089841,43.909461,-2.136296,10.730767,4.63583E+18,0.777706,-0.029183,0.627253,0.029603,-41.88181,26.690677,8.54722,4.420161,-3.780595,9.021555,41.174257,-18.802067,-1.139802,4.63583E+18,0.398634,-0.57221,0.413301,0.585533,-34.10314,-13.663181,4.055704,-2.368084,-2.997391,-6.27856,45.090636,8.148801,4.682469,4.63583E+18,-0.515528,-0.58311,-0.499246,0.380746,0
