Accelerometer-X,Accelerometer-Y,Accelerometer-Z,Gyroscope-X,Gyroscope-Y,Gyroscope-Z,Magnetometer-X,Magnetometer-Y,Magnetometer-Z,Barometer-pressure,Orientation-S,Orientation-X,Orientation-Y,Orientation-Z,Accelerometer-X,Accelerometer-Y,Accelerometer-Z,Gyroscope-X,Gyroscope-Y,Gyroscope-Z,Magnetometer-X,Magnetometer-Y,Magnetometer-Z,Barometer-pressure,Orientation-S,Orientation-X,Orientation-Y,Orientation-Z,Accelerometer-X,Accelerometer-Y,Accelerometer-Z,Gyroscope-X,Gyroscope-Y,Gyroscope-Z,Magnetometer-X,Magnetometer-Y,Magnetometer-Z,Barometer-pressure,Orientation-S,Orientation-X,Orientation-Y,Orientation-Z,jump
-9.155553,0.741989,-1.198176,1.675503,-0.060626,0.415419,40.841613,-14.09756,18.36519,4.63583E+18,0.634657,-0.25882,0.679438,0.261889,-10.777883,-2.616594,2.533729,1.922412,-0.835319,2.178884,38.818129,-16.020244,21.494571,4.63583E+18,0.410044,-0.604351,0.611411,0.304632,-9.344097,-0.730666,-1.760449,0.366718,-0.225558,-0.147132,38.495109,21.560419,14.230713,4.63583E+18,0.458763,0.442884,0.614624,-0.464357,0
-9.117083,0.77676,-1.128414,1.699558,-0.088675,0.397656,41.32945,-14.43633,18.63404,4.63583E+18,0.636272,-0.253133,0.681466,0.258236,-11.196949,-3.202487,2.593402,1.847524,-0.948885,2.099016,38.612015,-16.284721,21.669498,4.63583E+18,0.414375,-0.59462,0.617373,0.305894,-9.250093,-1.012495,-1.681237,0.383332,-0.209537,-0.143062,38.327329,21.851252,14.174847,4.63583E+18,0.458342,0.442813,0.613761,-0.46598,0
-9.017586,0.842818,-0.943471,1.713075,-0.097991,0.365363,41.26586,-14.197025,18.694049,4.63583E+18,0.637962,-0.247389,0.683446,0.25437,-11.54689,-3.770788,2.630009,1.731098,-1.052975,2.00514,38.595719,-16.623826,21.649113,4.63583E+18,0.418743,-0.585112,0.622685,0.307507,-9.259709,-1.452186,-1.595266,0.419627,-0.190788,-0.123153,38.227876,21.770199,13.966814,4.63583E+18,0.457842,0.442897,0.612823,-0.467623,0
-8.849362,0.763546,-0.874418,1.71208,-0.077009,0.314679,41.07557,-13.967442,18.751074,4.63583E+18,0.639586,-0.24187,0.685367,0.250402,-11.850702,-4.170887,2.579836,1.630216,-1.193613,1.922895,38.441083,-17.038878,21.35748,4.63583E+18,0.423278,-0.575734,0.627337,0.309539,-9.311132,-1.853451,-1.526968,0.489849,-0.162176,-0.080928,38.319822,21.555678,13.686052,4.63583E+18,0.457217,0.443279,0.611722,-0.469311,0
-8.646351,0.488126,-1.040474,1.717509,-0.03083,0.257394,41.016876,-13.750384,19.017967,4.63583E+18,0.641109,-0.236535,0.687323,0.246205,-12.028365,-4.334986,2.621888,1.511412,-1.316916,1.858215,38.274307,-17.443056,20.989922,4.63583E+18,0.427877,-0.566499,0.631382,0.312021,-9.286459,-1.98669,-1.728508,0.552458,-0.132633,-0.032842,38.425789,21.719033,13.427112,4.63583E+18,0.456492,0.44396,0.610461,-0.471011,0
-8.554214,0.358531,-1.312193,1.735314,0.000087,0.199045,41.116865,-13.344733,19.314937,4.63583E+18,0.642585,-0.231347,0.689284,0.241765,-12.079885,-4.364807,2.693771,1.345886,-1.393331,1.794735,38.503507,-17.761736,20.709211,4.63583E+18,0.432316,-0.557556,0.634847,0.314967,-9.206717,-2.030589,-1.889031,0.593823,-0.1117,0.020614,38.394879,22.009949,13.281654,4.63583E+18,0.455738,0.444897,0.609055,-0.472675,0
-8.537491,0.423233,-1.446823,1.757349,0.009774,0.144337,41.121734,-13.005762,19.40208,4.63583E+18,0.644078,-0.226247,0.691206,0.237085,-12.25892,-4.554682,2.672054,1.160031,-1.47368,1.706438,38.479126,-18.083205,20.40676,4.63583E+18,0.4366,-0.549011,0.637646,0.318396,-9.137882,-2.169545,-1.898636,0.630387,-0.078636,0.082061,38.31255,21.969441,13.259843,4.63583E+18,0.454949,0.446122,0.607521,-0.474252,0
-8.586805,0.648442,-1.441818,1.76834,0.033282,0.098058,41.197781,-12.915433,19.574434,4.63583E+18,0.645528,-0.221253,0.693124,0.232207,-12.50171,-4.88971,2.764293,0.942613,-1.544299,1.583251,38.198319,-18.338204,19.952356,4.63583E+18,0.440692,-0.541037,0.639679,0.322305,-9.281768,-2.086697,-1.97188,0.65966,-0.055476,0.14556,38.258003,21.851252,13.171276,4.63583E+18,0.45417,0.447605,0.605851,-0.475736,0
-8.787616,0.872215,-1.582075,1.757809,0.056024,0.061387,41.314856,-12.807767,19.855214,4.63583E+18,0.646924,-0.216339,0.695041,0.227166,-12.733628,-5.177222,2.802288,0.67904,-1.592239,1.429811,38.237601,-18.591804,19.682443,4.63583E+18,0.444482,-0.533841,0.640865,0.326713,-9.451899,-1.977599,-2.03889,0.662892,-0.044567,0.197284,38.317192,21.891749,13.095429,4.63583E+18,0.453457,0.449241,0.604096,-0.477103,0
-9.12541,0.986116,-1.79547,1.741273,0.05455,0.040386,41.192654,-12.383053,19.943723,4.63583E+18,0.64828,-0.211563,0.696868,0.222147,-12.952044,-5.516356,2.752098,0.429419,-1.657402,1.261975,38.485853,-18.948542,19.478986,4.63583E+18,0.448082,-0.527423,0.641166,0.331594,-9.503587,-1.971373,-2.093939,0.632465,-0.038138,0.238957,38.508624,22.009949,13.086336,4.63583E+18,0.452866,0.45093,0.602333,-0.478298,0
-9.41922,1.074735,-1.898493,1.714881,0.044147,0.02852,41.048497,-12.070811,19.926999,4.63583E+18,0.64961,-0.2069,0.698587,0.217198,-13.051069,-5.814774,2.659903,0.211993,-1.732287,1.094398,38.658123,-19.485696,19.091097,4.63583E+18,0.451732,-0.521467,0.640811,0.336707,-9.549805,-1.940727,-2.129816,0.609073,-0.030431,0.283006,38.560072,22.009949,12.989787,4.63583E+18,0.452385,0.452696,0.600546,-0.479331,0
-9.563394,1.187769,-1.94732,1.67706,0.048664,0.023895,41.016876,-12.058222,20.10703,4.63583E+18,0.650867,-0.202347,0.700245,0.21233,-13.052455,-5.946358,2.31005,0.029835,-1.817246,0.938592,38.744907,-19.710863,18.508032,4.63583E+18,0.455272,-0.51636,0.639452,0.342347,-9.606729,-1.92304,-2.128198,0.600234,-0.026115,0.321665,38.588349,22.031747,12.61137,4.63583E+18,0.451982,0.45455,0.598705,-0.480259,0
-9.671914,1.35598,-2.003839,1.629742,0.073592,0.022826,40.763121,-11.723922,20.446145,4.63583E+18,0.651981,-0.197939,0.701895,0.207567,-12.938569,-5.949091,1.85976,-0.10086,-1.906032,0.803392,38.86965,-19.830138,17.751092,4.63583E+18,0.458926,-0.511696,0.637401,0.348244,-9.515304,-1.955808,-2.345045,0.588234,-0.019248,0.351298,38.694355,22.076722,12.279669,4.63583E+18,0.451616,0.456494,0.596818,-0.481106,0
-9.847783,1.543581,-2.118681,1.571079,0.086124,0.021758,40.260398,-10.842755,20.735436,4.63583E+18,0.652982,-0.193694,0.703496,0.202953,-12.592706,-5.86502,1.135447,-0.186085,-1.986973,0.691825,39.193859,-20.318428,16.995597,4.63583E+18,0.46272,-0.507373,0.634757,0.354327,-9.488754,-1.804983,-2.486463,0.571539,-0.022703,0.379049,38.647905,21.959895,12.137272,4.63583E+18,0.451343,0.458466,0.594901,-0.481863,0
-10.039917,1.726676,-2.226724,1.510755,0.063652,0.018673,39.944879,-9.880731,20.918069,4.63583E+18,0.653976,-0.189597,0.704953,0.198517,-12.223782,-5.676557,0.496599,-0.225488,-2.066599,0.602229,39.348554,-20.752586,16.24832,4.63583E+18,0.466713,-0.503244,0.631629,0.360512,-9.583055,-1.456961,-2.312209,0.530342,-0.028674,0.39844,38.579237,21.740656,12.096564,4.63583E+18,0.451141,0.460461,0.59296,-0.482541,0
-10.19998,1.894426,-2.181495,1.438549,0.025987,0.015745,39.827775,-9.446252,20.903131,4.63583E+18,0.655002,-0.185666,0.706219,0.194307,-11.933508,-5.345605,0.036736,-0.258827,-2.148735,0.514164,39.311819,-20.770164,15.480606,4.63583E+18,0.47099,-0.499169,0.628117,0.366699,-9.641214,-1.096995,-2.123611,0.478007,-0.047333,0.402168,38.756587,21.6533,11.926156,4.63583E+18,0.451146,0.462258,0.591131,-0.483063,0
-10.254219,2.022369,-2.036363,1.354405,-0.003048,0.010246,39.742324,-9.333683,20.862452,4.63583E+18,0.65603,-0.181952,0.70731,0.190345,-11.65549,-4.980825,-0.300966,-0.320892,-2.211403,0.430614,39.577631,-20.938318,14.734582,4.63583E+18,0.475389,-0.495293,0.624159,0.372981,-9.692439,-0.786303,-2.02284,0.427846,-0.060675,0.40131,38.929409,21.698301,11.853389,4.63583E+18,0.451276,0.463928,0.589375,-0.483485,0
-10.223472,2.047678,-2.031405,1.273269,-0.025874,0.009495,39.764489,-8.940772,21.085363,4.63583E+18,0.657045,-0.178438,0.708252,0.186632,-11.294804,-4.424864,-0.726661,-0.392679,-2.257587,0.346715,39.882937,-21.154081,14.06338,4.63583E+18,0.479824,-0.491699,0.619739,0.379375,-9.634278,-0.610133,-1.912977,0.38487,-0.072696,0.391424,38.929409,21.621948,11.878278,4.63583E+18,0.451439,0.465534,0.587646,-0.483894,0
-10.166956,1.946397,-2.032305,1.195294,-0.048977,0.019425,39.69621,-8.566875,21.331766,4.63583E+18,0.658045,-0.175085,0.709059,0.183189,-10.891895,-3.884653,-1.314094,-0.457999,-2.262337,0.278219,39.903239,-21.152667,13.295663,4.63583E+18,0.484224,-0.48832,0.615038,0.385745,-9.573714,-0.523987,-1.82489,0.343196,-0.088779,0.378839,38.991611,21.520952,11.951048,4.63583E+18,0.451775,0.466899,0.586069,-0.484177,0
-10.082874,1.807615,-1.952744,1.130779,-0.078525,0.031964,39.429951,-8.633317,21.291992,4.63583E+18,0.65906,-0.171846,0.709728,0.179987,-10.596158,-3.917161,-1.680509,-0.450315,-2.264108,0.235606,40.007574,-21.263749,12.528021,4.63583E+18,0.488668,-0.484986,0.610202,0.391977,-9.592142,-0.294457,-1.825356,0.295612,-0.113598,0.357143,39.232649,21.374464,11.901287,4.63583E+18,0.452219,0.468069,0.584581,-0.484432,0
-9.954478,1.719443,-1.86277,1.096358,-0.110965,0.033627,39.415422,-8.728293,21.22099,4.63583E+18,0.660131,-0.168669,0.710267,0.176912,-10.373752,-3.978421,-1.776657,-0.399632,-2.280246,0.202733,40.246382,-21.573021,11.684376,4.63583E+18,0.493264,-0.48156,0.605293,0.398008,-9.650531,0.010255,-1.855062,0.231635,-0.137389,0.324011,39.38373,21.243529,11.709084,4.63583E+18,0.452775,0.46899,0.583239,-0.484639,0
-9.784928,1.719884,-1.80037,1.066252,-0.114768,0.026665,39.724666,-8.520795,21.324059,4.63583E+18,0.661184,-0.165589,0.710755,0.173905,-10.112089,-3.73166,-2.057423,-0.359654,-2.295803,0.174233,40.342693,-21.788867,10.927527,4.63583E+18,0.497981,-0.478052,0.600305,0.403874,-9.757049,0.211085,-1.76674,0.144349,-0.163253,0.289602,39.320045,21.179844,11.49802,4.63583E+18,0.453471,0.469637,0.582068,-0.48477,0
-9.670988,1.710399,-1.759228,1.016214,-0.086486,0.024172,39.823275,-8.291115,21.44116,4.63583E+18,0.662108,-0.162671,0.71127,0.171016,-9.709288,-3.364131,-2.340856,-0.302074,-2.297476,0.16616,40.456409,-21.768584,10.149209,4.63583E+18,0.502785,-0.474397,0.595339,0.409544,-9.787007,0.22772,-1.715029,0.070827,-0.180012,0.261307,39.375981,21.161199,11.22992,4.63583E+18,0.454293,0.470043,0.581067,-0.484808,0
-9.666896,1.712195,-1.737976,0.958145,-0.067928,0.021878,39.69626,-8.127914,21.534285,4.63583E+18,0.662928,-0.159932,0.71178,0.168278,-9.319906,-3.00051,-2.627193,-0.270038,-2.284085,0.163772,40.79687,-21.69121,9.197031,4.63583E+18,0.507576,-0.470659,0.590396,0.415065,-9.688668,-0.087708,-1.740344,0.031402,-0.186149,0.236234,39.561538,21.08795,11.109188,4.63583E+18,0.455156,0.470299,0.580183,-0.484809,0
-9.672789,1.805748,-1.702723,0.909878,-0.070535,0.011556,39.737307,-7.961543,21.624257,4.63583E+18,0.663721,-0.157352,0.712232,0.165654,-9.051253,-2.772518,-2.743973,-0.228152,-2.248601,0.177414,41.110313,-21.707273,8.255624,4.63583E+18,0.512294,-0.466818,0.585574,0.420404,-9.521554,-0.48896,-1.91434,0.012798,-0.195024,0.2173,39.587946,21.033356,11.206838,4.63583E+18,0.456037,0.470457,0.579355,-0.484818,0
-9.652899,2.001487,-1.71535,0.863791,-0.079752,-0.003002,39.849911,-8.051833,21.663615,4.63583E+18,0.664512,-0.154934,0.712607,0.163129,-8.877659,-2.700436,-2.727635,-0.174754,-2.212865,0.198062,41.273232,-21.941995,7.421309,4.63583E+18,0.517007,-0.462752,0.580976,0.425478,-9.485152,-0.60127,-2.053951,0.011245,-0.213707,0.204521,39.456991,21.011606,11.282747,4.63583E+18,0.456807,0.470701,0.57839,-0.485009,0
-9.628484,2.210381,-1.710405,0.804297,-0.082643,-0.013251,39.92768,-8.142338,21.660458,4.63583E+18,0.665272,-0.152707,0.712918,0.160753,-8.686396,-2.81722,-2.769736,-0.115396,-2.191613,0.221206,41.266507,-22.092606,6.740559,4.63583E+18,0.521599,-0.458637,0.576416,0.430502,-9.46962,-0.635221,-2.087902,0.019284,-0.23134,0.198656,39.45542,20.951011,11.26389,4.63583E+18,0.457747,0.470723,0.577537,-0.485117,0
-9.650162,2.367288,-1.643054,0.740761,-0.096363,-0.017367,40.054698,-7.888826,21.702026,4.63583E+18,0.666028,-0.150658,0.713139,0.158561,-8.5277,-2.773978,-2.761563,-0.080826,-2.17904,0.241383,41.202779,-22.157885,5.960839,4.63583E+18,0.526187,-0.454326,0.57198,0.435377,-9.424115,-0.732863,-2.166919,0.038347,-0.246489,0.195743,39.715045,20.941486,11.132314,4.63583E+18,0.458679,0.470745,0.57662,-0.485307,0
-9.70667,2.478516,-1.557608,0.674108,-0.12417,-0.017486,40.213384,-7.578187,21.782947,4.63583E+18,0.666819,-0.148775,0.713232,0.156583,-8.367661,-2.54639,-2.785977,-0.08574,-2.157931,0.259551,41.1375,-22.089811,5.008568,4.63583E+18,0.530641,-0.449984,0.567569,0.440228,-9.436532,-0.849148,-2.194438,0.074917,-0.251595,0.196811,39.923998,20.846512,10.964933,4.63583E+18,0.45953,0.470854,0.575595,-0.485612,0
-9.760023,2.537767,-1.441438,0.604682,-0.147752,-0.015074,40.272224,-7.490819,21.753184,4.63583E+18,0.66763,-0.147061,0.713211,0.154831,-8.192748,-2.02323,-2.80233,-0.167747,-2.117387,0.267517,41.243205,-22.267409,4.175644,4.63583E+18,0.534787,-0.445842,0.563067,0.445178,-9.485359,-0.979696,-2.21554,0.107466,-0.263633,0.196793,39.807311,20.687825,10.879487,4.63583E+18,0.46033,0.471019,0.574465,-0.486033,0
-9.770449,2.528305,-1.314837,0.537268,-0.168323,-0.01187,40.218459,-7.341731,21.655524,4.63583E+18,0.668456,-0.145511,0.713086,0.153301,-8.001346,-1.240432,-2.766926,-0.35418,-2.039453,0.259946,41.388595,-22.510065,3.5259,4.63583E+18,0.538378,-0.442242,0.558336,0.450369,-9.527978,-1.004308,-2.178723,0.139576,-0.275311,0.195217,39.646944,20.569475,10.81576,4.63583E+18,0.46113,0.47117,0.573287,-0.486518,0
-9.765923,2.4149,-1.169745,0.479116,-0.197745,-0.004634,40.186771,-7.09762,21.550201,4.63583E+18,0.669325,-0.144082,0.712844,0.15198,-7.953735,-0.687884,-2.840176,-0.638737,-1.933367,0.233838,41.326209,-22.803429,2.952106,4.63583E+18,0.541202,-0.439515,0.553214,0.455941,-9.533778,-1.03122,-2.083752,0.179284,-0.273971,0.202766,39.769634,20.572578,10.787835,4.63583E+18,0.461861,0.47142,0.572013,-0.487082,0
-9.742887,2.217812,-0.949621,0.431084,-0.230582,-0.000396,40.232845,-7.00705,21.448015,4.63583E+18,0.670258,-0.142753,0.712478,0.150833,-8.026825,-0.526259,-2.921449,-0.974704,-1.80735,0.204171,41.261024,-22.784661,2.358364,4.63583E+18,0.543143,-0.437813,0.547648,0.461949,-9.491155,-0.948671,-1.912651,0.19815,-0.273192,0.222788,39.961238,20.541351,10.634538,4.63583E+18,0.462593,0.471754,0.570662,-0.487649,0
-9.621804,2.059512,-0.739343,0.384208,-0.251204,0,40.313764,-6.899553,21.34268,4.63583E+18,0.671221,-0.14154,0.712024,0.149838,-8.215191,-0.53981,-3.073321,-1.282234,-1.679534,0.172756,41.252973,-22.649971,1.569219,4.63583E+18,0.544251,-0.437091,0.541681,0.46832,-9.479148,-0.851219,-1.692739,0.201915,-0.276668,0.243913,40.053084,20.404377,10.378603,4.63583E+18,0.463368,0.472136,0.569254,-0.488188,0
-9.389485,1.952799,-0.517851,0.350251,-0.236873,0.002015,40.291724,-6.736335,21.240496,4.63583E+18,0.672118,-0.140425,0.711587,0.14894,-8.516611,-0.564224,-3.282054,-1.604378,-1.531485,0.111755,41.190462,-22.808664,0.531472,4.63583E+18,0.544513,-0.43749,0.535266,0.474971,-9.491158,-0.911133,-1.504612,0.213716,-0.281212,0.270617,40.184067,20.349741,10.28853,4.63583E+18,0.464183,0.472593,0.567759,-0.488712,0
-9.16699,1.870496,-0.289059,0.339396,-0.187758,0.003204,40.160204,-6.623705,21.20426,4.63583E+18,0.67286,-0.139367,0.711279,0.148049,-8.583145,-0.584615,-3.630243,-1.988925,-1.333559,0.048636,41.212193,-22.949919,-0.400355,4.63583E+18,0.543708,-0.439253,0.528374,0.481932,-9.469844,-1.316869,-1.55403,0.234807,-0.284381,0.296777,40.24781,20.331136,10.400315,4.63583E+18,0.465017,0.473145,0.566162,-0.489238,0
-9.017738,1.804929,-0.230559,0.34129,-0.138691,0.001189,40.155064,-6.645742,21.327104,4.63583E+18,0.673458,-0.138339,0.711107,0.147117,-8.610095,-0.63406,-4.208294,-2.407396,-1.126199,-0.025521,41.204151,-22.949919,-1.276451,4.63583E+18,0.54177,-0.442495,0.520917,0.489213,-9.488632,-1.577474,-1.684812,0.256727,-0.283618,0.322426,40.266407,20.217607,10.209684,4.63583E+18,0.465854,0.473802,0.564467,-0.489765,0
-8.887986,1.866737,-0.297893,0.349594,-0.102683,-0.006046,40.286582,-6.67745,21.338155,4.63583E+18,0.673956,-0.137331,0.711036,0.14612,-8.765941,-1.17664,-4.61125,-2.734012,-0.937598,-0.112032,41.148323,-22.931173,-2.197731,4.63583E+18,0.538926,-0.446985,0.512989,0.496594,-9.610888,-1.488928,-1.75533,0.274752,-0.292738,0.356145,40.358237,20.025963,9.767521,4.63583E+18,0.46672,0.474578,0.562627,-0.490306,0
-8.807449,2.016374,-0.337278,0.354901,-0.068623,-0.013644,40.291724,-6.631383,21.179074,4.63583E+18,0.67436,-0.136351,0.711058,0.145066,-8.981814,-1.561836,-4.932503,-2.962141,-0.771422,-0.198435,41.241806,-22.750896,-2.858426,4.63583E+18,0.535397,-0.452447,0.504722,0.503882,-9.707604,-1.40986,-1.864824,0.268088,-0.303592,0.400689,40.467541,19.952715,9.485152,4.63583E+18,0.467714,0.475421,0.560688,-0.490763,0
-8.766294,2.144367,-0.334129,0.353006,-0.041434,-0.026101,40.306088,-6.604205,21.1066,4.63583E+18,0.674688,-0.135429,0.711146,0.143966,-9.059232,-1.102128,-5.357398,-3.169003,-0.621241,-0.281778,41.365692,-22.503914,-3.444225,4.63583E+18,0.531246,-0.458782,0.49611,0.511049,-9.619065,-1.373056,-1.864266,0.267882,-0.296387,0.440287,40.467541,19.898067,9.485152,4.63583E+18,0.468769,0.476368,0.558681,-0.491126,0
-8.7911,2.231195,-0.298887,0.34403,-0.031769,-0.046825,40.387009,-6.596527,21.283202,4.63583E+18,0.674994,-0.1346,0.711243,0.142829,-9.040647,-0.585249,-5.550194,-3.308273,-0.493747,-0.349408,41.206995,-22.334351,-4.147913,4.63583E+18,0.526609,-0.46575,0.48726,0.518013,-9.539995,-1.309108,-1.732725,0.275295,-0.290791,0.495014,40.507806,19.898067,9.435596,4.63583E+18,0.469809,0.477574,0.556465,-0.491477,0
-8.836779,2.281403,-0.242381,0.319517,-0.034335,-0.070995,40.265157,-6.591998,21.325948,4.63583E+18,0.675306,-0.133909,0.711303,0.141699,-8.786825,-0.117574,-5.626106,-3.46532,-0.323285,-0.426453,41.073729,-22.138223,-5.014546,4.63583E+18,0.521381,-0.473489,0.478194,0.524691,-9.534165,-1.281777,-1.559084,0.264805,-0.288129,0.545187,40.644825,19.860896,9.240272,4.63583E+18,0.471079,0.478747,0.554284,-0.491585,0
-8.858045,2.356414,-0.119922,0.290831,-0.035645,-0.093547,40.128497,-6.545931,21.174544,4.63583E+18,0.675618,-0.133365,0.711329,0.14059,-8.628474,0.461858,-5.678294,-3.496342,-0.227731,-0.494123,41.16436,-21.64575,-5.859863,4.63583E+18,0.515937,-0.481538,0.46903,0.530981,-9.567508,-1.269394,-1.43685,0.241069,-0.290041,0.593579,40.739727,19.692759,9.072845,4.63583E+18,0.472475,0.479999,0.552027,-0.491563,0
-8.839544,2.377297,0.06947,0.28361,-0.040623,-0.117595,40.201119,-6.465015,21.221753,4.63583E+18,0.675954,-0.132909,0.711321,0.139437,-8.597817,0.078101,-5.026928,-3.717735,-0.015902,-0.608297,41.389596,-21.246592,-6.531198,4.63583E+18,0.50977,-0.490641,0.459493,0.53691,-9.530528,-1.301071,-1.271952,0.224264,-0.2972,0.656348,40.941784,19.40197,8.984292,4.63583E+18,0.474029,0.481363,0.549643,-0.491405,0
-8.833629,2.322178,0.238605,0.265045,-0.067974,-0.144573,40.260017,-6.279775,21.343446,4.63583E+18,0.676376,-0.132569,0.71121,0.138279,-10.851961,-5.305304,-2.75323,-2.951495,-0.426109,-0.609655,41.541794,-21.075688,-7.223982,4.63583E+18,0.505853,-0.497102,0.450701,0.542098,-9.467103,-1.523179,-1.163147,0.21226,-0.294267,0.720958,41.265164,19.018611,8.886641,4.63583E+18,0.475763,0.482811,0.547189,-0.491046,0
-8.845836,2.057026,0.331359,0.190685,-0.058739,-0.173688,40.152547,-6.035627,21.306077,4.63583E+18,0.676744,-0.132531,0.711066,0.137253,-9.638523,2.965441,-8.855614,-2.346442,-0.608684,-0.223402,41.524428,-20.906122,-8.069322,4.63583E+18,0.502595,-0.501083,0.443631,0.547271,-9.605351,-1.487909,-1.232773,0.206439,-0.284547,0.780728,41.51463,18.909267,8.788982,4.63583E+18,0.477602,0.484401,0.544638,-0.490531,0
-8.911771,1.678625,0.44612,0.137023,-0.009268,-0.207624,40.242619,-5.945005,21.265297,4.63583E+18,0.676955,-0.132772,0.71101,0.136264,-3.682319,14.806325,-9.878696,-2.343874,-0.207179,0.459839,41.356407,-20.782143,-8.697951,4.63583E+18,0.496991,-0.504661,0.438788,0.552976,-9.866852,-1.168467,-1.140608,0.200404,-0.251148,0.829848,41.516506,18.850454,8.644891,4.63583E+18,0.47947,0.486153,0.54206,-0.489832,0
-9.078499,1.43836,0.423755,0.076072,0.019137,-0.237224,40.433034,-5.945005,21.257622,4.63583E+18,0.677065,-0.133289,0.710983,0.135355,-2.765939,12.848615,-6.140273,-1.577153,-0.33849,0.739984,41.130944,-20.93283,-8.980052,4.63583E+18,0.492556,-0.505797,0.435994,0.558093,-9.934077,-1.018368,-0.908501,0.158446,-0.218097,0.878485,41.377598,18.578284,8.413651,4.63583E+18,0.481423,0.488011,0.539509,-0.488883,0
-9.393473,1.103142,0.309356,-0.042714,0.018798,-0.248085,40.491959,-5.945005,21.25309,4.63583E+18,0.677114,-0.134173,0.710881,0.134768,-5.715435,7.933564,-9.587088,-1.093195,-0.223233,0.880853,41.057707,-21.008942,-9.271662,4.63583E+18,0.488582,-0.505929,0.434838,0.562352,-9.985488,-0.746735,-0.673996,0.103089,-0.195097,0.932926,41.607273,18.190777,8.371522,4.63583E+18,0.48354,0.48992,0.536998,-0.487648,0
-9.80257,0.709752,0.214845,-0.121924,-0.030309,-0.235449,40.392196,-5.891288,21.199372,4.63583E+18,0.677257,-0.135215,0.710602,0.134479,-9.528624,3.970781,-10.042702,-0.829177,0.227126,1.01449,40.965826,-21.036906,-9.511121,4.63583E+18,0.48402,-0.506319,0.435485,0.565436,-9.927376,-0.564971,-0.579936,0.019099,-0.16737,0.975578,41.966802,17.852569,8.388907,4.63583E+18,0.485787,0.491868,0.534558,-0.486132,0
-10.20679,0.450974,0.244498,-0.154577,-0.124822,-0.203344,40.279547,-5.813513,21.10625,4.63583E+18,0.677642,-0.136202,0.710056,0.13443,-13.978568,-2.574413,-9.410576,-0.368305,0.316717,0.713522,40.732334,-21.310572,-9.382834,4.63583E+18,0.480966,-0.506527,0.436754,0.566876,-9.940922,-0.569652,-0.595069,-0.097896,-0.154355,1.006612,42.161612,17.589533,8.227456,4.63583E+18,0.488358,0.493602,0.532367,-0.4842,0
-10.704854,0.209615,0.549339,-0.160466,-0.222908,-0.148105,40.347564,-5.678882,21.062304,4.63583E+18,0.678282,-0.136986,0.709259,0.13461,-16.34683,-4.363627,-9.13071,0.765136,0.047894,0.807925,40.603153,-21.733613,-9.012395,4.63583E+18,0.480561,-0.503648,0.440352,0.567001,-10.255357,-0.279957,-0.570493,-0.21907,-0.148102,1.048508,42.271795,17.121617,8.228766,4.63583E+18,0.491238,0.495186,0.530337,-0.481891,0
-11.327732,0.017797,0.968893,-0.132575,-0.3259,-0.057442,40.506247,-5.569371,20.988718,4.63583E+18,0.67919,-0.137365,0.708237,0.135023,-15.124775,1.33356,-6.264072,1.811754,-0.178344,1.159619,40.598051,-22.223235,-8.729849,4.63583E+18,0.481913,-0.497467,0.446686,0.566355,-10.556962,-0.097659,-0.515641,-0.322595,-0.107926,1.079684,42.473462,16.5062,8.447523,4.63583E+18,0.494247,0.49675,0.52847,-0.479247,0
-11.979231,-0.205405,1.253504,-0.075205,-0.459685,0.073809,40.618905,-5.588193,20.955576,4.63583E+18,0.68045,-0.137119,0.706943,0.135714,-13.921223,8.440079,-0.504834,1.719971,-0.080783,1.216108,40.432956,-22.715704,-8.6322,4.63583E+18,0.48272,-0.491558,0.453082,0.565747,-10.80191,-0.042001,-0.448098,-0.404811,-0.044152,1.096247,42.664875,16.183441,8.425878,4.63583E+18,0.497378,0.49822,0.526926,-0.476173,0
-12.511109,-0.819143,1.269239,-0.011944,-0.557805,0.232887,40.696678,-5.7228,20.837376,4.63583E+18,0.681942,-0.136168,0.705493,0.136725,-13.018026,9.035535,1.786356,1.125668,0.001534,1.116312,40.123547,-23.12301,-8.534541,4.63583E+18,0.482361,-0.487196,0.45801,0.565857,-11.068397,0.236442,-0.307963,-0.48497,0.007628,1.109265,42.708149,15.947484,8.362071,4.63583E+18,0.500554,0.499668,0.525584,-0.4728,0
-12.859912,-1.660014,0.987493,0.047596,-0.58388,0.397497,40.677875,-5.786309,20.711099,4.63583E+18,0.683445,-0.134549,0.704091,0.138043,-12.557997,7.000019,1.23271,0.702454,0.020004,0.958386,39.890042,-23.385776,-8.435553,4.63583E+18,0.481463,-0.484014,0.461642,0.566401,-11.179216,0.4903,-0.173063,-0.566809,0.047323,1.103613,42.860503,15.461982,8.411522,4.63583E+18,0.503788,0.500999,0.524483,-0.469165,0
-12.994944,-2.629589,0.573845,0.102317,-0.5977,0.542131,40.696675,-5.786309,20.49525,4.63583E+18,0.684929,-0.13234,0.702755,0.139618,-11.618375,6.474075,1.367811,0.287608,0.157715,0.790575,39.743569,-23.800784,-8.337656,4.63583E+18,0.47985,-0.482303,0.464225,0.567118,-12.364851,-0.021523,0.373345,-0.601882,0.061425,1.099486,43.013757,14.955963,8.557389,4.63583E+18,0.507043,0.502261,0.523475,-0.46542,0
-12.89038,-3.32968,0.484078,0.176127,-0.623759,0.625979,40.869618,-5.94737,20.156278,4.63583E+18,0.686473,-0.129658,0.701426,0.141229,-10.734875,5.685161,1.829202,-0.02759,0.308586,0.6731,39.59442,-24.170658,-8.327026,4.63583E+18,0.477584,-0.481801,0.466122,0.567901,-13.494598,-0.870578,1.370319,-0.540587,0.067617,1.131816,43.33426,14.55897,8.579019,4.63583E+18,0.510205,0.503722,0.522278,-0.461715,0
-12.488007,-3.354683,0.563263,0.261972,-0.643203,0.65294,41.055534,-6.303411,19.790071,4.63583E+18,0.688094,-0.126638,0.700095,0.142675,-11.0947,3.736642,3.208543,-0.210634,0.353746,0.552059,39.43282,-24.162687,-8.220069,4.63583E+18,0.475145,-0.482,0.467429,0.568703,-13.534783,-1.402542,1.063702,-0.286909,0.100139,1.168962,43.58662,14.100903,8.692368,4.63583E+18,0.512822,0.505853,0.52057,-0.458402,0
-11.671666,-2.438794,0.440244,0.297767,-0.667155,0.660266,41.014836,-6.611096,19.546553,4.63583E+18,0.689789,-0.123478,0.69871,0.144047,-11.344675,2.811701,4.132508,-0.381938,0.36477,0.472189,39.348703,-24.123959,-8.044941,4.63583E+18,0.472526,-0.482716,0.468188,0.569653,-14.030941,-2.454379,-0.026662,0.026437,0.180052,1.210378,43.567703,13.646494,8.866015,4.63583E+18,0.514516,0.50906,0.51816,-0.455677,0
-10.468135,-1.4547,0.338677,0.256532,-0.676932,0.607898,40.955837,-6.755547,19.483015,4.63583E+18,0.691511,-0.120581,0.697233,0.145392,-12.0384,3.367392,5.491528,-0.574901,0.292926,0.390962,39.292715,-24.368107,-7.94702,4.63583E+18,0.469847,-0.483796,0.468178,0.570959,-13.662343,-2.170167,-0.426257,0.26585,0.302987,1.235986,43.483104,13.237343,8.95112,4.63583E+18,0.515647,0.512854,0.515686,-0.452943,0
-9.32174,-0.807014,0.084251,0.178392,-0.618442,0.465708,41.063179,-6.886989,19.421678,4.63583E+18,0.693101,-0.118356,0.695798,0.146522,-12.980707,3.180816,6.787838,-0.742572,0.251526,0.288423,39.378166,-24.594999,-7.957635,4.63583E+18,0.46715,-0.4853,0.467477,0.572469,-13.414961,-0.680688,-0.229173,0.518649,0.509136,1.199957,43.658067,12.776595,9.006621,4.63583E+18,0.51569,0.51751,0.513215,-0.450397,0
-8.567804,-0.383487,-0.551724,0.095077,-0.538658,0.270408,41.272414,-7.107019,19.155347,4.63583E+18,0.694531,-0.116985,0.694439,0.14729,-9.850161,0.380633,3.408849,-0.660936,0.335636,0.234091,39.437109,-24.653944,-8.055274,4.63583E+18,0.464578,-0.486946,0.467018,0.573537,-13.146729,0.33118,-0.33936,0.651827,0.658422,1.169808,43.965043,12.377502,9.214464,4.63583E+18,0.515051,0.522649,0.510861,-0.447863,0
-8.242518,0.265037,-1.057002,-0.037218,-0.508959,0.040367,41.404687,-7.202368,18.835113,4.63583E+18,0.695949,-0.116681,0.69297,0.147759,-9.533552,2.473799,1.955285,-0.631919,0.420522,0.214306,39.278396,-24.521747,-8.131732,4.63583E+18,0.461942,-0.488772,0.466748,0.574333,-12.713418,1.617447,-0.519363,0.583981,0.62335,1.110623,43.964727,12.136466,9.451935,4.63583E+18,0.514457,0.527487,0.508613,-0.445426,0
-8.28628,0.834382,-1.19945,-0.169642,-0.491943,-0.163559,41.431927,-7.049054,18.603505,4.63583E+18,0.697376,-0.117359,0.691366,0.148011,-11.217992,2.888523,2.064217,-0.689521,0.449647,0.183398,39.136936,-24.62443,-8.044679,4.63583E+18,0.459201,-0.490833,0.466327,0.575115,-11.618313,2.344135,-0.594445,0.313318,0.549428,0.966102,43.913121,11.885979,9.533982,4.63583E+18,0.514379,0.531231,0.507067,-0.442821,0
-8.763802,1.065455,-1.423168,-0.260854,-0.474754,-0.284379,41.531578,-6.912227,18.40819,4.63583E+18,0.698779,-0.11866,0.689692,0.148165,-11.878669,1.682432,0.993129,-0.595322,0.421017,0.175796,39.12899,-24.842066,-8.044679,4.63583E+18,0.456722,-0.492654,0.466055,0.575751,-10.644841,2.692135,-0.281842,0.046793,0.416345,0.878611,43.965506,11.599348,9.605068,4.63583E+18,0.515,0.533964,0.505912,-0.440126,0
-9.522629,1.034222,-1.772629,-0.361904,-0.525653,-0.319525,41.690271,-6.992288,18.159221,4.63583E+18,0.700294,-0.120324,0.687786,0.148531,-11.553042,2.055445,-0.597925,-0.418438,0.403437,0.21174,39.080906,-24.832796,-8.034084,4.63583E+18,0.45455,-0.494023,0.466245,0.576144,-9.649647,3.747601,0.325231,-0.053005,0.263667,0.819408,44.096229,11.3458,9.839469,4.63583E+18,0.515998,0.536128,0.504674,-0.437741,0
-10.156459,0.620987,-1.873704,-0.50339,-0.574733,-0.257145,41.741656,-7.00224,17.993447,4.63583E+18,0.701833,-0.12219,0.685673,0.149508,-11.294497,2.767688,-1.56739,-0.30469,0.387028,0.247604,39.2396,-24.765884,-7.936426,4.63583E+18,0.452555,-0.495064,0.466747,0.576414,-8.510665,4.61003,0.89913,0.00782,0.121847,0.762341,44.068272,10.991333,9.893874,4.63583E+18,0.517119,0.537957,0.503227,-0.435835,0
-10.566405,-0.187105,-1.748262,-0.644305,-0.552768,-0.124444,41.691142,-6.916796,17.834504,4.63583E+18,0.703147,-0.124101,0.683595,0.151263,-11.318909,2.476966,-1.206979,-0.245306,0.337283,0.236203,39.381084,-24.851326,-7.838778,4.63583E+18,0.450804,-0.495894,0.467271,0.576648,-7.263058,5.329103,1.500214,0.111606,-0.026634,0.650071,43.999018,10.567625,9.839167,4.63583E+18,0.51811,0.539501,0.501519,-0.434718,0
-10.808611,-1.15006,-1.554373,-0.760938,-0.491839,0.020131,41.656207,-6.892637,17.639186,4.63583E+18,0.704126,-0.125979,0.681689,0.15374,-11.271889,1.957455,-0.36418,-0.16931,0.25946,0.22731,39.354627,-24.918257,-7.741118,4.63583E+18,0.449382,-0.496409,0.467813,0.576875,-6.143019,6.414295,1.972003,0.210869,-0.171812,0.521517,44.200933,10.280996,9.836079,4.63583E+18,0.518944,0.540723,0.499603,-0.43441,0
-10.876797,-1.866155,-1.408141,-0.855413,-0.413149,0.163808,41.705291,-7.150018,17.397896,4.63583E+18,0.704729,-0.127774,0.680018,0.156864,-10.631822,1.890825,-0.134585,-0.148677,0.21111,0.215908,39.146195,-24.851325,-7.664623,4.63583E+18,0.448124,-0.496791,0.468288,0.57714,-4.88744,6.624124,2.090409,0.390133,-0.299205,0.416416,44.465684,10.089201,9.780638,4.63583E+18,0.519447,0.54188,0.497322,-0.434985,0
-10.700578,-2.534959,-1.244642,-0.909084,-0.324345,0.29902,41.836714,-7.460922,17.129333,4.63583E+18,0.704952,-0.1294,0.678633,0.160487,-9.987922,1.891833,-0.02473,-0.166554,0.178695,0.207017,39.214457,-24.944695,-7.762272,4.63583E+18,0.446912,-0.497145,0.46864,0.577489,-3.318861,4.261176,2.158783,0.640417,-0.436531,0.224119,44.495696,10.053014,9.523412,4.63583E+18,0.519316,0.542925,0.494721,-0.4368,0
-10.274236,-3.213771,-1.087632,-0.90237,-0.228189,0.390053,41.99541,-7.610014,16.845447,4.63583E+18,0.704833,-0.13081,0.677572,0.164304,-9.692993,2.013592,0.071923,-0.2348,0.152222,0.193417,39.113466,-25.096785,-7.84936,4.63583E+18,0.445642,-0.497587,0.46875,0.578,-1.873551,-0.22655,2.166672,0.869321,-0.571955,-0.107499,44.416566,10.166397,9.07204,4.63583E+18,0.518314,0.543552,0.492127,-0.440129,0
-9.761563,-3.653875,-0.968682,-0.838551,-0.117464,0.410817,42.10047,-7.741424,16.682724,4.63583E+18,0.70441,-0.132047,0.67688,0.167938,-9.610874,2.187079,0.045182,-0.296659,0.127308,0.165387,38.828791,-25.182551,-7.838791,4.63583E+18,0.444359,-0.498138,0.468605,0.57863,-1.479213,-2.03988,1.36737,1.145547,-0.682609,-0.393583,44.39524,10.401411,8.718329,4.63583E+18,0.516374,0.54397,0.489423,-0.444882,0
-9.371463,-3.932933,-0.874148,-0.756585,-0.000652,0.372513,42.035837,-8.007332,16.781106,4.63583E+18,0.70372,-0.133232,0.676558,0.171163,-9.767903,1.955823,-0.059057,-0.30959,0.097923,0.144489,38.948547,-25.162427,-7.751701,4.63583E+18,0.443156,-0.498682,0.46833,0.579306,-3.141035,-0.268777,1.51501,1.252429,-0.887681,-0.575524,44.361418,10.642486,8.434455,4.63583E+18,0.514207,0.543894,0.486418,-0.450742,0
-9.031081,-4.212275,-0.86529,-0.661999,0.097014,0.281718,41.881683,-8.229706,16.866084,4.63583E+18,0.702864,-0.134463,0.676532,0.173799,-9.996203,1.568163,0.182428,-0.285345,0.055432,0.1289,39.307838,-25.076985,-7.762249,4.63583E+18,0.442124,-0.499108,0.468001,0.579994,-4.219103,-1.185082,1.892698,1.186124,-1.07391,-0.754426,44.303891,10.91452,8.095218,4.63583E+18,0.512271,0.542864,0.4836,-0.457174,0
-8.669418,-4.474607,-0.993822,-0.540695,0.171468,0.15857,41.822563,-8.342442,16.931906,4.63583E+18,0.70195,-0.135739,0.676738,0.175689,-10.056949,1.5124,0.390294,-0.238432,0.01542,0.125349,39.281473,-25.009989,-7.84936,4.63583E+18,0.441275,-0.499357,0.467704,0.580665,-4.737955,-1.261512,1.865846,1.171758,-1.213723,-0.851197,44.358752,11.345246,7.594473,4.63583E+18,0.510436,0.541309,0.480705,-0.464072,0
-8.226625,-4.695767,-1.115655,-0.396858,0.222675,0.026252,41.822563,-8.527453,17.037219,4.63583E+18,0.701067,-0.137004,0.677121,0.176757,-9.787804,1.504145,0.519904,-0.206122,-0.017866,0.117213,39.065007,-25.113871,-7.837508,4.63583E+18,0.440577,-0.499481,0.467406,0.581328,-5.413995,-0.599734,1.231571,1.170678,-1.328597,-0.905676,44.416983,11.894612,6.971311,4.63583E+18,0.508695,0.539385,0.477658,-0.471312,0
-7.73067,-4.849682,-1.101543,-0.2496,0.249589,-0.091854,41.822563,-8.71799,17.024547,4.63583E+18,0.700276,-0.138191,0.677621,0.177049,-9.343323,1.525925,0.797078,-0.220575,-0.035187,0.09409,39.102237,-25.350471,-7.760566,4.63583E+18,0.439938,-0.499634,0.466993,0.582011,-6.355338,-0.250713,0.650789,1.177743,-1.435189,-0.950428,44.498939,12.422285,6.177658,4.63583E+18,0.507024,0.537142,0.474435,-0.47887,0
-7.299125,-4.864538,-1.020647,-0.113054,0.271767,-0.175334,41.723012,-8.784781,16.87018,4.63583E+18,0.699562,-0.139231,0.678237,0.176698,-9.1747,1.493005,0.910644,-0.273667,-0.054528,0.065596,39.320045,-25.406596,-7.954564,4.63583E+18,0.440281,-0.499103,0.4672,0.582042,-6.864919,-0.56962,0.0893,1.224804,-1.480002,-0.972385,44.443816,12.827534,5.338763,4.63583E+18,0.505252,0.534824,0.471035,-0.486631,0
-6.977421,-4.754452,-0.996457,0.009612,0.294323,-0.223592,41.564324,-8.628528,16.912245,4.63583E+18,0.698888,-0.140067,0.67898,0.175847,-9.111405,1.187852,0.798008,-0.310371,-0.074476,0.040539,39.284527,-25.322469,-8.119238,4.63583E+18,0.439588,-0.499489,0.466321,0.582939,-7.411657,-1.193872,-0.200609,1.332306,-1.477243,-0.99248,44.333953,13.062551,4.631261,4.63583E+18,0.50313,0.532674,0.467405,-0.494621,0
-6.842139,-4.53139,-1.069923,0.118399,0.306306,-0.239139,41.604717,-8.37983,17.210216,4.63583E+18,0.698254,-0.140638,0.679827,0.174635,-8.949342,0.898456,1.082352,-0.306098,-0.093177,0.020244,38.98124,-25.257118,-8.140654,4.63583E+18,0.439063,-0.4998,0.465438,0.583773,-8.270857,-0.624496,-1.144812,1.52175,-1.415194,-0.96292,44.22102,13.402208,3.995823,4.63583E+18,0.500464,0.531078,0.463388,-0.502756,0
-6.923459,-4.255212,-1.087907,0.187831,0.296637,-0.230955,41.763388,-8.288827,17.407964,4.63583E+18,0.69768,-0.140977,0.680699,0.173256,-8.961548,0.779198,1.456623,-0.302516,-0.124873,-0.000278,38.923392,-25.266317,-8.247501,4.63583E+18,0.438656,-0.500067,0.464462,0.584627,-10.173903,4.97594,-0.221326,1.765304,-1.343923,-0.830623,44.102037,13.98468,3.187593,4.63583E+18,0.497368,0.530326,0.458694,-0.510861,0
-7.174016,-3.890238,-0.668522,0.202803,0.265354,-0.205954,41.776633,-8.288827,17.383137,4.63583E+18,0.697183,-0.141178,0.681503,0.171925,-8.993467,1.020889,1.461708,-0.306837,-0.153368,-0.023169,39.057501,-25.333371,-8.412215,4.63583E+18,0.438274,-0.500376,0.463309,0.585563,-13.141788,16.859931,-5.523033,2.609669,-0.850883,-0.277157,43.995254,14.349974,2.519286,4.63583E+18,0.492585,0.533369,0.45195,-0.518284,0
-7.540462,-3.237838,0.039745,0.215549,0.242976,-0.178996,41.69573,-8.181645,17.400311,4.63583E+18,0.696736,-0.141249,0.682266,0.170648,-9.220322,1.547122,1.175129,-0.331337,-0.178659,-0.050103,38.89711,-25.24792,-8.442819,4.63583E+18,0.438031,-0.500658,0.462059,0.586491,-13.389552,18.9992,-12.714248,3.199635,-0.473605,0.120928,43.916078,14.404736,1.860126,4.63583E+18,0.486561,0.539104,0.443751,-0.525082,0
-7.99686,-2.566894,0.332702,0.282584,0.219442,-0.151081,41.617938,-7.911241,17.608235,4.63583E+18,0.696374,-0.14103,0.683022,0.169276,-9.696787,2.052707,0.649836,-0.369891,-0.198561,-0.077448,38.840946,-25.171665,-8.637753,4.63583E+18,0.437812,-0.501012,0.460619,0.587484,-9.849195,5.668748,-8.518254,2.317809,-0.43203,-0.343007,43.894743,14.426299,1.271736,4.63583E+18,0.481355,0.542208,0.438547,-0.531022,0
-8.485134,-2.1295,0.18872,0.382876,0.168103,-0.115816,41.590622,-7.841904,17.774177,4.63583E+18,0.69619,-0.140382,0.683719,0.16775,-10.041048,2.248266,0.252814,-0.374898,-0.199445,-0.091596,38.925077,-25.162478,-8.920196,4.63583E+18,0.437617,-0.5014,0.459134,0.58846,-7.196209,-6.484213,-7.675048,1.775194,-0.124887,-0.598317,43.86714,14.52714,1.013434,4.63583E+18,0.476211,0.544393,0.435701,-0.535747,0
-8.958122,-1.917816,0.15124,0.458085,0.121428,-0.0854,41.537043,-7.919701,17.871836,4.63583E+18,0.696159,-0.139396,0.684349,0.166125,-10.115192,2.023713,0.150922,-0.311645,-0.217681,-0.099187,38.981269,-25.069167,-9.084026,4.63583E+18,0.437607,-0.50164,0.457754,0.589338,-7.46125,-7.030383,-7.648762,1.633199,-0.005591,-0.459727,43.76926,14.695184,1.03719,4.63583E+18,0.471453,0.546783,0.433071,-0.539638,0
-9.475542,-1.867733,0.473941,0.501028,0.116589,-0.075838,41.505173,-7.740377,18.015409,4.63583E+18,0.696158,-0.138255,0.684997,0.164407,-10.290444,1.682394,0.407697,-0.221614,-0.246374,-0.1067,38.895809,-24.909145,-8.996857,4.63583E+18,0.437857,-0.501658,0.456526,0.590089,-8.886034,0.987388,-8.165842,1.104266,-0.014279,-0.431069,43.635309,14.930196,0.795693,4.63583E+18,0.467963,0.548146,0.431533,-0.542518,0
-10.131936,-1.806517,0.800032,0.520475,0.142525,-0.096594,41.604648,-7.46438,18.071513,4.63583E+18,0.696104,-0.137133,0.685718,0.162558,-10.380641,1.558618,0.563741,-0.148005,-0.282225,-0.105174,38.819542,-24.756615,-9.017814,4.63583E+18,0.438325,-0.50145,0.455415,0.590776,-10.845097,4.467196,-8.566931,0.488386,-0.053919,-0.467956,43.598586,15.13123,0.512711,4.63583E+18,0.465859,0.548142,0.431387,-0.544445,0
-10.928719,-1.639984,0.944707,0.513078,0.151534,-0.134395,41.610301,-7.426838,17.890953,4.63583E+18,0.696042,-0.136147,0.686434,0.160614,-10.299524,1.515438,0.699346,-0.082304,-0.31129,-0.099832,38.828719,-24.773657,-9.222327,4.63583E+18,0.438971,-0.501039,0.454424,0.591408,-11.397755,0.232303,-7.214413,0.068963,-0.067465,-0.535912,43.562266,15.204468,0.512711,4.63583E+18,0.464581,0.547168,0.432319,-0.545776,0
-11.732744,-1.386552,1.099024,0.476842,0.130124,-0.176992,41.433027,-7.305684,17.962182,4.63583E+18,0.696046,-0.135373,0.687037,0.158661,-10.174006,1.458388,0.851058,-0.005447,-0.313958,-0.094951,38.904995,-24.907452,-9.4939,4.63583E+18,0.43977,-0.500471,0.453626,0.591908,-11.189115,-1.59364,-5.356826,-0.388955,-0.138112,-0.634027,43.59244,15.397692,0.509635,4.63583E+18,0.464247,0.544966,0.434376,-0.54663,0
-12.322697,-1.044583,1.370848,0.407083,0.112539,-0.217437,41.300567,-7.107455,18.304151,4.63583E+18,0.696085,-0.134904,0.687517,0.1568,-10.224145,1.723443,1.046376,0.052728,-0.30511,-0.094799,38.897137,-24.832898,-9.678741,4.63583E+18,0.440673,-0.499817,0.452987,0.592278,-13.467446,-1.142038,-1.898713,-0.624723,-0.190653,-0.633705,43.393277,16.079277,0.500504,4.63583E+18,0.464539,0.542182,0.436863,-0.547168,0
-12.630455,-0.413657,2.0096,0.29297,0.132384,-0.257899,41.472167,-6.990112,18.552506,4.63583E+18,0.696027,-0.134895,0.687955,0.155137,-10.294349,1.870821,1.225979,0.1035,-0.30957,-0.102276,38.822582,-24.747447,-9.765923,4.63583E+18,0.441707,-0.499071,0.452449,0.592548,-18.182201,-2.622163,3.33247,-0.506087,-0.302399,-0.500646,42.815945,17.055035,0.503578,4.63583E+18,0.465065,0.539608,0.438556,-0.547911,0
-12.776762,0.497616,2.747835,0.170571,0.213948,-0.319636,41.644176,-6.95822,18.501533,4.63583E+18,0.695704,-0.13547,0.688514,0.1536,-10.461788,2.120625,1.218499,0.130392,-0.298165,-0.109295,38.7463,-24.689495,-9.765923,4.63583E+18,0.442792,-0.498317,0.451983,0.592728,-14.365865,-2.671945,5.264311,-0.14506,-0.275041,-0.354733,42.053304,17.600278,0.469662,4.63583E+18,0.464573,0.538448,0.438671,-0.549376,0
-12.817774,1.279774,2.574675,0.09833,0.309101,-0.391991,41.568989,-6.805239,18.486723,4.63583E+18,0.695111,-0.136523,0.689258,0.152006,-10.756464,2.272752,0.746386,0.143361,-0.286988,-0.111469,38.764614,-24.840758,-9.776388,4.63583E+18,0.443888,-0.497569,0.451565,0.592856,-11.121398,-2.324207,3.266135,0.42211,-0.025642,-0.269813,41.556893,17.759152,0.341807,4.63583E+18,0.463051,0.538704,0.438276,-0.550722,0
-12.710682,1.434133,1.217892,0.084526,0.247433,-0.444818,41.505173,-6.507538,18.686918,4.63583E+18,0.694717,-0.137727,0.689782,0.150333,-10.649648,2.069151,0.360556,0.17552,-0.253761,-0.104945,38.925051,-24.812852,-9.874047,4.63583E+18,0.444971,-0.49683,0.451299,0.592865,-11.193397,-2.483369,0.840641,0.602136,0.094374,-0.185181,41.492962,18.031039,0.409432,4.63583E+18,0.4611,0.539733,0.437509,-0.55196,0
-12.555092,1.134697,0.056765,0.123996,0.006496,-0.463718,41.558708,-6.338583,18.726009,4.63583E+18,0.695047,-0.13872,0.68962,0.148629,-10.474387,1.887785,0.450369,0.207717,-0.218321,-0.096095,38.981292,-24.671162,-9.961241,4.63583E+18,0.446032,-0.496101,0.451197,0.592756,-10.560208,-0.399393,0.41705,0.590702,0.175438,-0.118509,41.514484,18.264896,0.588848,4.63583E+18,0.459179,0.541042,0.436775,-0.552861,0
-12.28629,0.874108,-0.305317,0.165069,-0.300975,-0.45367,41.537101,-6.257705,18.506028,4.63583E+18,0.696275,-0.139375,0.688595,0.147014,-10.355385,1.624478,0.766866,0.230795,-0.170681,-0.075688,38.897154,-24.680309,-9.950787,4.63583E+18,0.446999,-0.495409,0.451282,0.592542,-9.600741,1.133235,1.319079,0.557029,0.284956,-0.099629,41.741289,17.879329,0.497261,4.63583E+18,0.457173,0.542571,0.436281,-0.553415,0
-11.791543,0.469244,-0.150645,0.195647,-0.523757,-0.414371,41.55105,-6.126372,18.388911,4.63583E+18,0.698131,-0.13969,0.68696,0.145553,-10.173135,1.425653,0.969163,0.238504,-0.108272,-0.054668,38.813457,-24.738323,-9.884487,4.63583E+18,0.447813,-0.494815,0.451545,0.592223,-9.39331,1.679297,1.525351,0.411864,0.305279,-0.118353,42.446617,17.040141,0.390473,4.63583E+18,0.455389,0.543852,0.436176,-0.553712,0
-11.121552,-0.23602,0.628509,0.186483,-0.468677,-0.348388,41.631932,-5.967692,18.323188,4.63583E+18,0.699779,-0.139876,0.685513,0.144278,-10.086846,1.399936,1.084768,0.211936,-0.039427,-0.037654,38.668678,-24.568742,-10.0589,4.63583E+18,0.4484,-0.494408,0.451906,0.591844,-9.200884,1.949602,1.036015,0.311474,0.334629,-0.154963,43.18424,16.400518,0.363489,4.63583E+18,0.453692,0.544941,0.43644,-0.553826,0
-10.577161,-0.988181,1.438252,0.079119,-0.237874,-0.256895,41.610352,-5.854868,18.10321,4.63583E+18,0.700646,-0.140252,0.684725,0.14344,-9.887612,1.389419,0.836704,0.093169,0.052279,-0.032004,38.743226,-24.434845,-10.048458,4.63583E+18,0.448555,-0.494439,0.452156,0.591509,-9.042852,1.530803,0.105292,0.221768,0.337197,-0.199268,43.381803,16.404074,0.500504,4.63583E+18,0.452089,0.545784,0.437015,-0.553853,0
-10.267649,-1.547894,1.386445,0.033135,-0.064461,-0.152072,41.624289,-5.769413,17.993713,4.63583E+18,0.700929,-0.140566,0.684476,0.142939,-9.646534,1.57606,0.499808,-0.155704,0.155386,-0.041275,38.828679,-24.518531,-9.950799,4.63583E+18,0.448026,-0.495206,0.451967,0.591414,-9.177121,0.853846,-0.788536,0.150301,0.292601,-0.231552,43.223121,16.596077,0.454446,4.63583E+18,0.450655,0.546328,0.437743,-0.553911,0
-10.150396,-1.828269,0.895103,0.224808,-0.036888,-0.061319,41.804554,-5.691612,18.047225,4.63583E+18,0.701191,-0.140078,0.684475,0.14214,-9.329149,1.455162,-0.350229,-0.540475,0.276724,-0.045742,38.904995,-24.671162,-9.874021,4.63583E+18,0.446484,-0.496996,0.451044,0.591782,-9.280697,0.451226,-1.51776,0.128971,0.249363,-0.252384,43.082847,16.690815,0.36345,4.63583E+18,0.449299,0.546693,0.438485,-0.554065,0
-10.101568,-1.716333,0.348757,0.523348,-0.121641,0.001129,41.995182,-5.557218,18.010367,4.63583E+18,0.701829,-0.138489,0.684437,0.14072,-9.145978,0.253723,-1.250309,-0.511684,0.268485,-0.040719,38.904995,-24.652927,-9.950821,4.63583E+18,0.445002,-0.498701,0.450185,0.592118,-9.338957,0.235011,-2.078768,0.12175,0.218663,-0.278844,43.040381,16.846437,0.571117,4.63583E+18,0.447954,0.546923,0.439246,-0.554324,0
-9.945738,-1.061069,0.195427,0.72182,-0.144831,0.058415,41.955144,-5.39397,18.022799,4.63583E+18,0.70261,-0.136142,0.684476,0.138915,-10.016947,-0.57031,0.417428,-0.019505,0.115183,-0.091882,38.912818,-24.500257,-9.853151,4.63583E+18,0.444955,-0.499208,0.450148,0.591754,-9.528114,0.35769,-2.279581,0.102489,0.190889,-0.312997,43.10434,16.956083,0.756724,4.63583E+18,0.446623,0.54699,0.440077,-0.554674,0
-9.825368,-0.075178,0.682856,0.695098,-0.056884,0.131334,41.796453,-5.281137,18.238172,4.63583E+18,0.703076,-0.133715,0.684792,0.137348,-10.268205,-0.453805,1.060265,0.245098,0.07615,-0.137863,38.987362,-24.518506,-9.755495,4.63583E+18,0.445645,-0.499215,0.450594,0.590888,-9.665259,0.757174,-2.114507,0.062697,0.160184,-0.336505,43.082867,16.995962,0.683615,4.63583E+18,0.445384,0.546867,0.440994,-0.555062,0
-9.810188,0.554314,0.944535,0.583499,-0.005731,0.207433,41.836466,-5.348538,18.233087,4.63583E+18,0.703286,-0.131426,0.685231,0.136293,-10.214829,-0.586769,1.121453,0.568753,0.05872,-0.149113,39.08192,-24.671162,-9.67868,4.63583E+18,0.447067,-0.498597,0.451781,0.589429,-9.668138,0.884753,-1.843192,0.021587,0.12947,-0.363998,43.040363,17.133185,0.729629,4.63583E+18,0.44423,0.546544,0.442012,-0.555495,0
-9.608401,0.841032,0.527268,0.608953,-0.043598,0.255054,41.895809,-5.40788,18.164616,4.63583E+18,0.703585,-0.128904,0.685594,0.135324,-10.497054,-0.678758,0.861345,0.881141,0.038178,-0.161359,39.242468,-24.652785,-9.73442,4.63583E+18,0.449408,-0.497206,0.45384,0.587238,-9.555141,0.66502,-1.773141,-0.000252,0.097163,-0.386977,43.082867,17.209498,0.891266,4.63583E+18,0.443131,0.546063,0.443072,-0.556002,0
-9.263543,1.256356,0.166145,0.676718,-0.087084,0.273723,41.796465,-5.354388,18.340376,4.63583E+18,0.704028,-0.126104,0.685873,0.134238,-10.437593,-0.480684,0.49696,1.162385,0.019766,-0.14041,39.289462,-24.509446,-9.402065,4.63583E+18,0.4521,-0.495353,0.456414,0.584738,-9.485399,0.500504,-1.696398,0.016597,0.071013,-0.415268,42.979016,17.310282,0.939847,4.63583E+18,0.441976,0.545498,0.444107,-0.556649,0
-9.108214,1.727763,0.311612,0.656854,-0.084229,0.278387,41.836447,-5.276581,18.261999,4.63583E+18,0.704444,-0.12335,0.686145,0.133221,-10.002987,0.048165,0.360972,1.387131,0.031849,-0.105736,39.119874,-24.594897,-8.792746,4.63583E+18,0.455135,-0.493025,0.459617,0.581834,-9.659233,0.500504,-1.302514,0.052125,0.054451,-0.437706,42.798876,17.496608,0.866726,4.63583E+18,0.440717,0.544916,0.445079,-0.55744,0
-9.109798,2.075535,0.431825,0.587678,-0.071827,0.278118,41.941655,-5.256824,17.915533,4.63583E+18,0.704784,-0.120806,0.686409,0.132392,-9.713974,0.628001,0.335748,1.547374,0.022051,-0.080764,38.976926,-24.654117,-8.609249,4.63583E+18,0.45844,-0.490304,0.463224,0.578669,-9.750701,0.414693,-0.823718,0.106632,0.034967,-0.463326,42.594591,17.76499,0.845273,4.63583E+18,0.439309,0.54434,0.445946,-0.558421,0
-9.011967,2.299729,0.366137,0.542328,-0.067424,0.271702,41.816246,-5.307232,17.835102,4.63583E+18,0.705087,-0.118415,0.686654,0.131671,-9.478597,1.276533,0.523697,1.574972,0.029149,-0.099654,38.992253,-24.503288,-8.470041,4.63583E+18,0.461813,-0.487563,0.466854,0.575377,-9.784259,0.042239,-0.711453,0.186207,0.020009,-0.476667,42.570434,17.902234,0.802726,4.63583E+18,0.437716,0.543847,0.446628,-0.559605,0
-8.810512,2.482832,0.398357,0.523247,-0.064888,0.260752,41.732543,-5.433951,17.993874,4.63583E+18,0.705374,-0.116111,0.686886,0.130971,-9.49753,1.180509,0.935883,1.506939,0.043113,-0.157292,39.227221,-24.445367,-7.895892,4.63583E+18,0.46514,-0.485078,0.470211,0.572053,-9.808673,-0.314378,-1.025621,0.262838,0.003459,-0.481739,42.670903,17.996926,0.91269,4.63583E+18,0.435966,0.543444,0.447111,-0.560976,0
-8.667183,2.665929,0.470022,0.503347,-0.056737,0.260366,41.836416,-5.546803,18.128067,4.63583E+18,0.705625,-0.113872,0.687126,0.130321,-10.240022,0.597952,2.016109,1.208858,0.081509,-0.355478,39.378046,-24.614945,-7.469621,4.63583E+18,0.468246,-0.483635,0.472517,0.568833,-9.882097,-0.243785,-1.125963,0.325817,-0.013114,-0.486011,42.573159,18.192366,1.025331,4.63583E+18,0.434092,0.543104,0.447424,-0.562506,0
-8.592448,2.711546,0.503571,0.475841,-0.038974,0.264101,41.949269,-5.4184,18.340275,4.63583E+18,0.705807,-0.111711,0.687402,0.129752,-11.332812,-0.697294,2.776163,0.587542,0.259136,-0.683599,39.462192,-24.712047,-7.449548,4.63583E+18,0.470518,-0.48446,0.473026,0.565825,-10.065074,0.042702,-0.9888,0.356246,-0.039802,-0.488408,42.402251,18.479179,0.881715,4.63583E+18,0.432191,0.542749,0.447621,-0.564154,0
-8.569597,2.613822,0.398146,0.45462,-0.011596,0.262227,41.927796,-5.276602,18.437749,4.63583E+18,0.705897,-0.109632,0.687743,0.129225,-11.136613,-1.222901,2.048632,-0.126362,0.572993,-0.932306,39.560277,-24.287926,-7.343183,4.63583E+18,0.471307,-0.487906,0.471956,0.563094,-10.034136,-0.125736,-1.089922,0.387271,-0.055029,-0.492442,42.252788,18.692748,0.671407,4.63583E+18,0.430235,0.542403,0.447723,-0.565898,0
-8.661256,2.548278,0.215026,0.448622,0.007352,0.256618,41.941637,-5.356118,18.204033,4.63583E+18,0.705931,-0.107597,0.68813,0.128689,-9.898867,-0.322603,0.5118,-0.821229,0.968247,-1.090733,39.883776,-23.814895,-7.07157,4.63583E+18,0.470263,-0.493939,0.469693,0.560594,-9.814884,-0.635005,-1.39777,0.4492,-0.072914,-0.520487,42.167345,18.848363,0.69591,4.63583E+18,0.428104,0.542069,0.447708,-0.567844,0
-8.777185,2.607876,0.123577,0.443944,0.01175,0.245532,41.923229,-5.465911,18.066957,4.63583E+18,0.705952,-0.10561,0.68852,0.128131,-8.590082,0.572878,-1.221184,-1.434258,1.358953,-1.159665,40.333698,-23.552437,-6.888027,4.63583E+18,0.46732,-0.502185,0.466589,0.558316,-9.979737,-0.643356,-1.28745,0.479845,-0.090282,-0.54582,42.121706,19.016278,0.74457,4.63583E+18,0.425871,0.541696,0.447642,-0.569925,0
-8.94357,2.794105,0.117503,0.416421,0.009745,0.230978,41.796529,-5.546789,18.250239,4.63583E+18,0.705972,-0.103743,0.68888,0.12761,-7.964009,0.835718,-1.914482,-1.739818,1.541717,-1.128271,40.556469,-23.128276,-6.781672,4.63583E+18,0.463262,-0.511338,0.463146,0.556253,-10.122912,-0.039377,-0.854342,0.444824,-0.123147,-0.540475,42.133699,19.248232,0.600962,4.63583E+18,0.423788,0.541188,0.447586,-0.572001,0
-9.18928,3.033682,0.175531,0.37289,0.002531,0.216692,41.790568,-5.624604,18.359934,4.63583E+18,0.705999,-0.102041,0.689187,0.127174,-8.131877,1.34063,-0.810915,-1.761221,1.549653,-1.107974,40.719976,-22.636881,-6.51134,4.63583E+18,0.459042,-0.520452,0.459657,0.554188,-10.03747,0.130992,-0.674354,0.383428,-0.16344,-0.530859,41.981185,19.443408,0.295734,4.63583E+18,0.421938,0.540489,0.44758,-0.574032,0
-9.465459,3.20909,0.207526,0.3283,-0.006413,0.202139,41.868379,-5.705479,18.306483,4.63583E+18,0.706039,-0.100508,0.689436,0.126827,-8.413886,0.75354,-0.138315,-1.521792,1.407663,-1.052292,41.02643,-22.212734,-6.338704,4.63583E+18,0.455437,-0.528619,0.456522,0.552021,-9.961206,-0.241509,-0.573748,0.349823,-0.17678,-0.515364,41.908016,19.525795,-0.033702,4.63583E+18,0.420222,0.539723,0.447592,-0.575998,0
-9.700404,3.351,0.123538,0.280499,-0.030324,0.180505,41.895809,-5.691668,18.2134,4.63583E+18,0.706137,-0.099164,0.689579,0.126563,-8.9415,-0.612521,0.820357,-0.951783,1.093553,-0.918646,41.334653,-21.721421,-6.251956,4.63583E+18,0.453345,-0.534688,0.454361,0.549675,-9.912375,-0.723444,-0.570687,0.350072,-0.178381,-0.489186,41.886589,19.638834,-0.170904,4.63583E+18,0.418569,0.538999,0.447539,-0.577918,0
-9.90028,3.421134,0.035072,0.232304,-0.068778,0.152867,41.79656,-5.503913,18.230264,4.63583E+18,0.706339,-0.098021,0.68957,0.126372,-8.843916,-0.658044,1.563629,-0.318627,0.752888,-0.735314,41.549625,-21.341611,-6.14516,4.63583E+18,0.452872,-0.538415,0.453399,0.547216,-9.881907,-0.781051,-0.540129,0.32469,-0.179184,-0.455279,41.77974,19.889086,-0.170904,4.63583E+18,0.417052,0.538288,0.447468,-0.57973,0
-10.057411,3.369217,0.065638,0.175961,-0.111099,0.124031,41.73711,-5.46131,18.201212,4.63583E+18,0.706654,-0.097104,0.689395,0.126275,-8.464566,0.02342,2.645637,0.255566,0.425188,-0.524117,41.622868,-21.25616,-5.950301,4.63583E+18,0.453818,-0.539904,0.453595,0.544798,-9.891027,-0.497473,-0.454677,0.275015,-0.183459,-0.424575,41.648602,20.175917,-0.244315,4.63583E+18,0.415727,0.537534,0.447437,-0.581401,0
-10.145896,3.218122,0.173992,0.122021,-0.15249,0.097862,41.836345,-5.645997,18.111183,4.63583E+18,0.70708,-0.096399,0.689058,0.126273,-8.237084,0.556241,4.013467,0.702558,0.136845,-0.355419,41.696113,-21.162878,-5.658633,4.63583E+18,0.455927,-0.539569,0.454636,0.542497,-9.860523,-0.531036,-0.384519,0.209038,-0.187992,-0.402147,41.618042,20.349741,-0.460823,4.63583E+18,0.414611,0.536694,0.447507,-0.582919,0
-10.145866,3.164778,0.250269,0.080232,-0.197757,0.065278,41.949244,-5.73748,18.018093,4.63583E+18,0.707635,-0.095887,0.688552,0.126312,-7.619428,0.909162,4.561773,0.919012,-0.045381,-0.221157,41.769351,-21.002895,-5.377892,4.63583E+18,0.458558,-0.538149,0.456115,0.540444,-9.866667,-0.552392,-0.292819,0.114234,-0.181043,-0.379442,41.5173,20.309981,-0.427206,4.63583E+18,0.413747,0.535748,0.447766,-0.584202,0
-10.048193,3.151029,0.146451,0.03751,-0.241142,0.028566,41.874411,-5.638264,18.042561,4.63583E+18,0.708316,-0.095584,0.687881,0.126384,-6.875964,1.718047,4.105116,0.964289,-0.087962,-0.067966,41.826948,-20.859371,-5.125806,4.63583E+18,0.461019,-0.536247,0.457952,0.538684,-9.884895,-0.57377,0.000132,0.006359,-0.164753,-0.344459,41.364709,20.267479,-0.399875,4.63583E+18,0.413178,0.534719,0.448237,-0.585186,0
-9.952083,3.091523,-0.155655,-0.014422,-0.28306,-0.011751,41.863767,-5.677973,18.140204,4.63583E+18,0.709117,-0.095527,0.687041,0.126501,-6.48782,2.038402,3.062046,1.030866,-0.113742,0.116095,41.736759,-20.963074,-5.13576,4.63583E+18,0.463257,-0.533799,0.460292,0.537199,-9.790318,-0.656219,0.216677,-0.098838,-0.145796,-0.302,41.23355,20.557361,-0.586032,4.63583E+18,0.412911,0.533633,0.448901,-0.585857,0
-9.970401,3.048798,-0.415063,-0.073973,-0.347153,-0.067164,41.94922,-5.73748,18.11578,4.63583E+18,0.710106,-0.095771,0.685957,0.126651,-6.499721,1.321458,2.671962,1.181304,-0.163499,0.29719,41.529587,-21.227216,-5.278964,4.63583E+18,0.465509,-0.53059,0.463265,0.535874,-9.76288,-0.995097,0.173923,-0.175721,-0.129775,-0.25207,41.242729,20.740377,-0.732444,4.63583E+18,0.412905,0.532546,0.449669,-0.586261,0
-10.097042,3.062531,-0.396747,-0.130579,-0.439405,-0.132848,42.027034,-5.691705,17.835034,4.63583E+18,0.711368,-0.09632,0.684543,0.126805,-7.16396,-0.723995,3.035415,1.406623,-0.257139,0.418928,41.538702,-21.547696,-4.954738,4.63583E+18,0.468153,-0.526483,0.466815,0.53454,-9.765891,-1.700014,-0.01232,-0.212833,-0.10814,-0.193045,41.260975,20.737322,-0.732444,4.63583E+18,0.413085,0.531558,0.450432,-0.586445,0
-10.194704,3.144926,-0.280776,-0.188658,-0.554228,-0.204813,42.153679,-5.717637,17.452032,4.63583E+18,0.712969,-0.097187,0.682724,0.126956,-8.072996,-3.602891,3.514525,1.576542,-0.363013,0.455408,41.615036,-21.7658,-4.422181,4.63583E+18,0.471273,-0.521714,0.470597,0.533156,-9.7049,-1.965348,-0.289951,-0.227521,-0.08251,-0.123083,41.148102,20.767892,-0.711056,4.63583E+18,0.41342,0.530738,0.45112,-0.586423,0
-10.248114,3.376868,-0.206001,-0.283592,-0.675735,-0.282257,42.20557,-5.749687,17.195657,4.63583E+18,0.714912,-0.09849,0.680457,0.127196,-8.073194,-4.048737,2.617983,1.572269,-0.373607,0.53207,41.598125,-21.774907,-4.365349,4.63583E+18,0.474211,-0.516755,0.474492,0.531927,-9.772052,-1.745566,-0.320416,-0.249153,-0.066489,-0.053661,41.163385,20.84716,-0.598122,4.63583E+18,0.413942,0.530049,0.451734,-0.586205,0
-10.342702,3.498945,-0.061069,-0.41562,-0.807096,-0.353279,42.200993,-5.604762,16.936297,4.63583E+18,0.717201,-0.100317,0.677691,0.12765,-7.797929,-1.517128,2.043039,1.450318,-0.400126,0.631039,41.448537,-21.895476,-4.508135,4.63583E+18,0.476696,-0.511757,0.478255,0.531167,-9.845257,-1.422167,-0.265544,-0.283866,-0.049933,0.005884,41.257985,20.691522,-0.427242,4.63583E+18,0.414655,0.529452,0.45233,-0.585781,0
-10.464775,3.419623,0.263913,-0.548338,-0.952894,-0.402818,42.292521,-5.365198,16.638743,4.63583E+18,0.719858,-0.102601,0.674384,0.12839,-7.796906,-0.331686,2.051666,1.320156,-0.405459,0.708323,41.366206,-22.302687,-4.312838,4.63583E+18,0.478722,-0.506829,0.481864,0.530808,-9.78118,-1.464894,-0.44558,-0.31377,-0.034714,0.053143,41.32206,20.563367,-0.402856,4.63583E+18,0.41552,0.528929,0.452919,-0.585185,0
-10.594482,3.361615,0.704915,-0.680792,-1.10351,-0.431662,42.599206,-5.273598,16.223704,4.63583E+18,0.722877,-0.10528,0.670523,0.129477,-8.049399,-0.41659,2.733194,1.201792,-0.322213,0.77625,41.190615,-22.634099,-4.138309,4.63583E+18,0.480162,-0.502165,0.485501,0.530625,-9.796436,-1.513721,-0.589005,-0.317508,-0.030442,0.098535,41.319008,20.487077,-0.570694,4.63583E+18,0.416494,0.528495,0.453424,-0.584493,0
-10.73638,3.120597,1.115372,-0.826448,-1.255442,-0.450087,42.89524,-5.281225,15.621039,4.63583E+18,0.726239,-0.108363,0.666092,0.130977,-8.777945,-0.002528,3.23886,1.007676,-0.244076,0.812157,40.891416,-22.896439,-4.147405,4.63583E+18,0.480941,-0.497974,0.488925,0.530726,-9.942928,-1.428268,-0.628682,-0.2625,-0.027772,0.155414,41.352573,20.422985,-0.613425,4.63583E+18,0.417481,0.52827,0.453674,-0.583799,0
-10.859983,2.566775,1.478531,-0.97745,-1.393499,-0.448091,43.12717,-5.240047,15.071687,4.63583E+18,0.72988,-0.111817,0.661131,0.132958,-9.476356,1.045182,3.283277,0.672819,-0.126558,0.830768,40.752725,-23.311486,-4.202973,4.63583E+18,0.480733,-0.494662,0.491871,0.531289,-9.982608,-1.373337,-0.61037,-0.168508,-0.010949,0.213092,41.499062,20.426037,-0.524924,4.63583E+18,0.418369,0.528357,0.453596,-0.583144,0
-11.023235,1.823683,1.82492,-1.10537,-1.515405,-0.411917,43.313353,-5.220188,14.648983,4.63583E+18,0.733735,-0.115486,0.655705,0.135451,-10.126427,1.438126,3.324334,0.188017,0.010334,0.805386,40.662611,-23.691448,-4.007673,4.63583E+18,0.479294,-0.492669,0.493957,0.532505,-9.949027,-1.39465,-0.65612,-0.032602,0.006406,0.270767,41.514351,20.453494,-0.451674,4.63583E+18,0.419064,0.528832,0.453091,-0.582607,0
-11.142278,1.037946,2.136177,-1.192959,-1.630882,-0.349046,43.464402,-5.224769,14.144035,4.63583E+18,0.737777,-0.119177,0.649863,0.138422,-10.144599,1.639174,2.753388,-0.302232,0.154567,0.756997,40.447539,-23.795096,-3.833125,4.63583E+18,0.476652,-0.492069,0.495138,0.534331,-10.025306,-1.492434,-0.811781,0.0633,0.024566,0.325778,41.398356,20.487088,-0.427274,4.63583E+18,0.419647,0.529621,0.452263,-0.582114,0
-11.063031,0.264308,2.352905,-1.249179,-1.741836,-0.265206,43.610888,-5.232393,13.394932,4.63583E+18,0.741986,-0.122742,0.643638,0.141848,-9.734139,1.728581,1.808278,-0.679367,0.27204,0.727522,40.383388,-24.059179,-3.862947,4.63583E+18,0.473054,-0.492532,0.495644,0.536627,-10.156551,-0.973631,-0.83013,-0.035224,0.032844,0.372508,41.42886,20.346744,-0.329617,4.63583E+18,0.420543,0.530345,0.451583,-0.581335,0
-10.678656,-0.413246,2.523804,-1.303514,-1.842779,-0.159339,43.757371,-5.2446,12.418453,4.63583E+18,0.746313,-0.12612,0.637069,0.145787,-8.945106,1.424859,0.278175,-0.932457,0.376375,0.718825,40.386512,-24.379725,-4.124277,4.63583E+18,0.469415,-0.493103,0.496388,0.538606,-10.180988,-0.610357,-0.708043,-0.173005,0.055525,0.422436,41.532594,20.099509,-0.259404,4.63583E+18,0.421821,0.530975,0.451166,-0.580156,0
-9.99825,-1.051042,2.847171,-1.370932,-1.942243,-0.031711,44.010585,-5.256807,11.604995,4.63583E+18,0.750721,-0.129296,0.630157,0.15034,-10.050069,1.953198,0.542877,-1.117946,0.363841,0.633941,40.302902,-24.597918,-4.201182,4.63583E+18,0.464801,-0.494907,0.495771,0.541514,-10.159595,-0.701866,-0.668359,-0.299316,0.12282,0.493458,41.691292,20.026264,-0.244174,4.63583E+18,0.423422,0.531677,0.451013,-0.578464,0
-9.186482,-1.583681,3.3842,-1.443566,-2.047719,0.098607,44.274611,-5.421486,10.994576,4.63583E+18,0.755207,-0.132278,0.622875,0.155533,-12.499089,3.048722,2.628815,-1.325836,0.309508,0.603456,40.133298,-24.599214,-4.103524,4.63583E+18,0.460038,-0.496931,0.494603,0.544787,-10.22063,-1.034376,-0.564706,-0.409078,0.192508,0.60266,41.856079,19.834143,-0.125181,4.63583E+18,0.425395,0.532554,0.451001,-0.576215,0
-8.539385,-2.116132,3.89543,-1.489515,-2.146923,0.213702,44.254985,-5.677822,10.199814,4.63583E+18,0.759765,-0.135027,0.615244,0.161245,-11.18918,2.252161,-0.603267,-1.363345,0.348381,0.610462,39.96685,-24.636025,-4.056381,4.63583E+18,0.455083,-0.49908,0.493419,0.548048,-10.275568,-1.678316,-0.192394,-0.460381,0.288622,0.734849,41.996514,19.345792,0.036587,4.63583E+18,0.427613,0.533814,0.450984,-0.573414,0
-8.154725,-2.910895,4.247996,-1.500748,-2.214906,0.305573,44.282265,-5.941788,9.08154,4.63583E+18,0.764336,-0.137513,0.607365,0.167295,-10.652071,5.539598,-4.744054,-1.359769,0.477544,0.575794,39.74268,-24.88017,-4.425742,4.63583E+18,0.44993,-0.501569,0.492394,0.550944,-10.342675,-2.191119,0.115919,-0.409139,0.408802,0.829396,41.984339,19.116793,0.109867,4.63583E+18,0.42971,0.535621,0.45084,-0.570265,0
-7.930347,-3.823414,4.479997,-1.452728,-2.275915,0.360476,44.626929,-6.202729,7.962924,4.63583E+18,0.768954,-0.139646,0.599281,0.173412,-11.031808,7.510275,-4.208905,-1.352101,0.560104,0.367757,39.600815,-25.098421,-4.697993,4.63583E+18,0.445084,-0.504638,0.491086,0.55324,-10.446511,-2.386681,0.253288,-0.260983,0.512403,0.892154,41.965924,19.077186,0.228689,4.63583E+18,0.431424,0.538048,0.450381,-0.56704,0
-7.731992,-4.574319,4.606716,-1.359148,-2.280782,0.410934,44.900257,-6.459085,7.217973,4.63583E+18,0.773504,-0.141333,0.591201,0.179438,-12.834975,5.879163,-0.615369,-1.096988,0.488063,0.101507,39.617646,-25.089358,-4.774945,4.63583E+18,0.441521,-0.507597,0.489656,0.554654,-10.388523,-1.947468,0.180253,-0.036715,0.603202,0.926609,42.188621,18.845396,0.677335,4.63583E+18,0.432536,0.541146,0.449469,-0.563959,0
-7.471133,-5.088666,4.600707,-1.3289,-2.127373,0.480613,44.906519,-6.662072,6.595505,4.63583E+18,0.777549,-0.142847,0.58361,0.185503,-12.552427,4.079145,1.747794,-0.758032,0.464328,-0.138935,39.768557,-25.003926,-4.697978,4.63583E+18,0.439271,-0.510358,0.488446,0.554974,-10.364066,-0.983258,-0.426783,0.217824,0.68064,0.919709,42.466471,18.387587,0.979601,4.63583E+18,0.432904,0.544861,0.448104,-0.561181,0
-6.667584,-5.393976,3.830952,-1.43147,-1.911604,0.577521,44.965864,-6.993002,5.64675,4.63583E+18,0.78085,-0.14461,0.576632,0.191983,-11.410091,4.083466,2.049443,-0.550293,0.510181,-0.369737,39.835928,-24.910737,-4.774976,4.63583E+18,0.437897,-0.513308,0.487304,0.554343,-10.397661,-0.301462,-1.620066,0.442089,0.773303,0.837725,42.533641,17.954166,1.062044,4.63583E+18,0.432387,0.54903,0.446557,-0.558745,0
-4.901334,-5.138195,3.297623,-1.502069,-1.490203,0.665134,45.066627,-7.458364,4.828494,4.63583E+18,0.782951,-0.146715,0.570966,0.198645,-10.242011,4.836584,1.841446,-0.490635,0.62814,-0.583499,39.758222,-24.759778,-4.657929,4.63583E+18,0.436898,-0.516848,0.48605,0.552941,-10.001752,-1.821263,-2.36233,0.839184,0.880861,0.810933,42.564118,17.706878,1.132085,4.63583E+18,0.430684,0.554097,0.444326,-0.556832,0
-3.137127,-4.55085,2.751946,-1.169303,-1.07592,0.681228,45.040817,-7.748498,4.3538,4.63583E+18,0.784203,-0.148028,0.566899,0.204302,-10.29492,4.563269,1.915865,-0.423689,0.747975,-0.795236,39.780859,-24.65756,-4.375902,4.63583E+18,0.436281,-0.52096,0.484702,0.550749,-8.38458,-2.573241,-1.977876,1.527849,1.040303,0.914811,42.652606,17.630596,1.41283,4.63583E+18,0.427314,0.560932,0.440519,-0.555609,0
-2.175004,-3.37671,1.32613,-0.695885,-1.138641,0.612671,44.955366,-7.767026,3.853478,4.63583E+18,0.785919,-0.147896,0.562961,0.208645,-10.733491,3.681689,1.747395,-0.362314,0.847513,-0.973681,40.114974,-24.386367,-4.084244,4.63583E+18,0.435993,-0.525534,0.483275,0.547877,-6.617476,-2.014028,-0.835306,2.013711,1.108785,0.952337,42.747217,17.450789,1.647935,4.63583E+18,0.422728,0.568808,0.435583,-0.555001,0
-1.560018,-2.274359,1.088905,-0.266069,-1.287203,0.479063,45.220393,-8.05188,3.233989,4.63583E+18,0.788336,-0.146536,0.558809,0.211628,-10.595184,2.351687,1.170384,-0.323973,0.907143,-1.071246,40.573015,-23.876839,-3.824101,4.63583E+18,0.435878,-0.530354,0.481813,0.544602,-4.041874,-1.409483,-0.390476,2.136764,1.118683,0.904042,42.835702,16.986963,1.724286,4.63583E+18,0.417674,0.576772,0.430445,-0.554616,0
-1.140173,-1.229535,1.408343,0.24991,-1.162513,0.260219,45.856376,-8.857003,2.830849,4.63583E+18,0.790948,-0.144095,0.555371,0.212607,-9.930607,0.918283,0.461075,-0.289521,0.917705,-1.083593,40.861438,-23.317959,-3.737361,4.63583E+18,0.43583,-0.535141,0.480404,0.541192,-0.416394,2.819917,-4.207079,2.034161,1.05117,0.917445,42.988095,16.602196,1.73041,4.63583E+18,0.41297,0.584362,0.425349,-0.554125,0
-1.139679,-0.085084,1.379536,0.546222,-0.861276,-0.038524,46.230801,-9.487781,2.627818,4.63583E+18,0.793287,-0.141634,0.552996,0.211731,-8.594992,-0.606299,-0.257797,-0.27405,0.903527,-1.033836,41.009199,-23.005135,-3.630698,4.63583E+18,0.435718,-0.539748,0.479098,0.537854,-1.879984,12.162142,3.828203,0.340388,0.241744,0.402112,43.244659,16.492203,1.721244,4.63583E+18,0.412612,0.586223,0.424001,-0.553459,0
-1.657979,-0.023843,1.388521,0.703341,-0.567445,-0.316195,46.191444,-9.43817,2.434053,4.63583E+18,0.795275,-0.139549,0.551558,0.209398,-7.321141,-2.439793,-0.937503,-0.197285,0.836165,-0.94956,41.175626,-22.817487,-3.437282,4.63583E+18,0.43571,-0.543881,0.478016,0.534651,-2.82832,19.070446,3.481022,-0.659807,0.285317,0.01062,43.284459,16.452681,1.794207,4.63583E+18,0.413714,0.585768,0.425988,-0.551589,0
-2.553273,-0.099446,1.04288,0.94126,-0.307915,-0.546779,46.223169,-9.009613,2.27987,4.63583E+18,0.79699,-0.137431,0.551044,0.205599,-7.020011,-3.250062,-1.279053,-0.01623,0.721015,-0.845935,41.390831,-22.487861,-3.146178,4.63583E+18,0.436101,-0.547208,0.477351,0.531522,-6.081317,0.295948,-10.77919,0.0524,0.465692,-0.023735,43.241662,16.315261,2.059834,4.63583E+18,0.412676,0.586891,0.42673,-0.550598,0
-4.119541,-0.118981,1.115337,1.199871,-0.245527,-0.769947,46.331652,-8.673419,2.226328,4.63583E+18,0.798878,-0.135015,0.550813,0.200423,-7.436975,-2.161178,-0.763851,0.201497,0.5945,-0.727568,41.462772,-22.158332,-2.788409,4.63583E+18,0.436969,-0.549613,0.477199,0.528455,-9.89722,-7.877414,-8.910997,-0.385196,-0.041601,-0.209614,43.269067,16.299773,2.221648,4.63583E+18,0.413183,0.585766,0.428057,-0.550387,0
-6.483239,0.015393,1.324524,1.31584,-0.497111,-1.015516,46.356082,-8.429109,2.214113,4.63583E+18,0.801578,-0.132561,0.54968,0.194297,-8.489502,-0.560201,-0.043631,0.297,0.511186,-0.644371,41.525098,-21.846736,-2.60401,4.63583E+18,0.438033,-0.551487,0.47729,0.525532,-19.249232,-9.200474,3.944455,-0.743772,-0.130446,0.094287,43.305845,16.437187,2.340566,4.63583E+18,0.415417,0.584357,0.429308,-0.549227,0
-9.188668,0.890086,1.57948,1.188894,-0.775162,-1.302992,46.450758,-7.933034,2.011046,4.63583E+18,0.805032,-0.130957,0.547324,0.187643,-10.392726,-0.054464,0.389304,0.283443,0.444108,-0.616146,41.607358,-21.68674,-2.399664,4.63583E+18,0.439131,-0.553177,0.477287,0.522835,-19.26268,-6.40861,2.173349,-0.288063,0.362981,0.495374,43.25387,16.434475,2.526716,4.63583E+18,0.416574,0.585579,0.42939,-0.546981,0
-11.736731,2.136734,2.003696,0.972877,-0.671762,-1.577743,46.655249,-7.278437,1.754738,4.63583E+18,0.808293,-0.130777,0.544961,0.180492,-12.094322,0.707372,0.091249,0.235219,0.368455,-0.583097,41.766023,-21.508164,-2.127947,4.63583E+18,0.440193,-0.554718,0.477112,0.520464,-14.719782,-0.521617,-0.164883,-0.169767,0.4855,0.657201,43.305569,16.181275,2.71899,4.63583E+18,0.417587,0.587569,0.429016,-0.544361,0
-14.265049,3.658095,2.027892,0.839941,-0.282539,-1.709185,46.787944,-6.726147,1.649515,4.63583E+18,0.810644,-0.131628,0.5437,0.172975,-12.016592,1.43983,-0.652771,0.184452,0.356649,-0.542451,41.923435,-21.228035,-1.954469,4.63583E+18,0.441068,-0.556241,0.476896,0.518291,-11.651771,5.027937,0.041993,-0.216558,0.47901,0.61299,43.436978,15.885162,2.883867,4.63583E+18,0.418621,0.589377,0.428839,-0.541745,0
-16.814741,4.735109,1.261696,0.736729,-0.150488,-1.644917,46.761964,-6.031799,1.673954,4.63583E+18,0.812544,-0.132769,0.542813,0.165827,-10.61845,1.401826,-1.263176,0.208407,0.326958,-0.511304,42.078937,-20.703756,-1.955105,4.63583E+18,0.441988,-0.557589,0.476745,0.516193,-9.641812,2.968371,0.239241,-0.238656,0.501281,0.497352,43.467414,15.6927,3.011968,4.63583E+18,0.419405,0.590985,0.42903,-0.539231,0
-16.975638,4.371548,0.114178,0.61616,-0.509495,-1.218355,46.821529,-5.320756,1.559446,4.63583E+18,0.814856,-0.1331,0.540838,0.160586,-9.877073,0.142768,-1.558137,0.290188,0.226237,-0.487248,42.304412,-20.720439,-1.8472,4.63583E+18,0.443244,-0.558519,0.476637,0.514207,-9.002806,-0.241604,-0.928892,-0.265019,0.448448,0.413368,43.552856,15.59821,3.219349,4.63583E+18,0.420155,0.592272,0.429392,-0.536941,0
-15.298495,2.854597,-0.161688,0.393683,-0.791259,-0.475807,47.074871,-5.07828,1.354978,4.63583E+18,0.817418,-0.131446,0.538369,0.157192,-9.890564,-0.686867,-0.929134,0.358618,0.129251,-0.45706,42.44708,-20.827799,-1.66343,4.63583E+18,0.445193,-0.558669,0.477012,0.512007,-9.167365,0.12478,-2.230062,-0.145268,0.382189,0.424014,43.620086,15.421316,3.478846,4.63583E+18,0.42075,0.593636,0.42934,-0.535008,0
-12.927245,0.013215,0.473165,0.286397,-0.743007,0.24644,47.193821,-5.284329,1.113885,4.63583E+18,0.819077,-0.129412,0.536174,0.157742,-9.948376,-0.373302,-0.307117,0.342315,0.091018,-0.416523,42.385377,-20.523861,-1.576687,4.63583E+18,0.446681,-0.559066,0.476925,0.510357,-9.578745,0.18382,-2.728193,0.022064,0.3283,0.45047,43.650511,15.189368,3.601313,4.63583E+18,0.421083,0.595217,0.428752,-0.533457,0
-11.503879,0.313083,3.670334,0.374668,0.032031,0.769914,47.041203,-5.514713,0.898751,4.63583E+18,0.818699,-0.126416,0.536957,0.159464,-10.278574,-0.082337,-0.226142,0.297292,0.074995,-0.388133,42.612809,-20.447401,-1.489303,4.63583E+18,0.447948,-0.559533,0.476684,0.508958,-10.20818,0.074804,-2.892785,0.075323,0.246302,0.461445,43.77544,14.978668,3.503648,4.63583E+18,0.421453,0.596726,0.427873,-0.532184,0
-14.898224,3.360439,3.732134,0.177938,0.006466,0.567792,46.903889,-5.677985,0.71564,4.63583E+18,0.818391,-0.124559,0.537403,0.160997,-10.481031,0.316609,-0.296154,0.255419,0.078926,-0.383182,42.600832,-20.353816,-1.472637,4.63583E+18,0.449183,-0.559995,0.476464,0.507566,-10.14253,1.152555,-3.121993,0.061168,0.17101,0.44602,43.977069,14.832197,3.409035,4.63583E+18,0.421957,0.598014,0.426929,-0.531097,0
-16.647878,1.768752,1.902889,0.122563,-0.520036,0.224987,46.876431,-5.844287,0.593589,4.63583E+18,0.819458,-0.123303,0.535835,0.161758,-10.40269,0.858329,-0.47473,0.165872,0.098154,-0.392793,41.74947,-19.44464,-1.324192,4.63583E+18,0.450189,-0.560681,0.476067,0.506287,-9.318197,1.797101,-3.116133,0.048888,0.088267,0.394233,43.992659,14.679648,3.323589,4.63583E+18,0.422521,0.599002,0.425995,-0.530284,0
-14.459854,0.709493,3.272931,0.121374,-0.280693,0.182383,46.823027,-5.954157,0.508138,4.63583E+18,0.820016,-0.122308,0.53506,0.162253,-10.075721,1.024405,-0.912222,-0.001126,0.117937,-0.417534,40.928179,-18.510862,-1.278533,4.63583E+18,0.450817,-0.56177,0.475295,0.505246,-9.068862,2.078018,-2.942397,0.030487,-0.015594,0.33229,43.855201,14.533017,3.283654,4.63583E+18,0.423178,0.599617,0.425072,-0.529805,0
-12.817785,1.396215,3.50202,0.092528,-0.059282,0.184122,46.790977,-5.989257,0.415053,4.63583E+18,0.820063,-0.121557,0.535021,0.162704,-9.783337,0.341977,-1.179679,-0.138097,0.141944,-0.413664,41.048207,-18.678523,-1.343497,4.63583E+18,0.451067,-0.563157,0.474287,0.504424,-9.911247,2.088398,-2.749543,0.006409,-0.124558,0.271636,43.821391,14.477981,3.378263,4.63583E+18,0.423954,0.599841,0.42416,-0.529662,0
-12.387499,1.475596,3.340152,0.094798,-0.007226,0.103362,46.890136,-5.986207,0.431823,4.63583E+18,0.82005,-0.121013,0.535121,0.162848,-9.634812,-0.110409,-1.010717,-0.214863,0.159603,-0.383984,41.435098,-18.853489,-1.236184,4.63583E+18,0.451039,-0.564665,0.473219,0.503768,-10.382891,1.596442,-2.880642,0.02127,-0.206875,0.23823,43.925043,14.477981,3.442488,4.63583E+18,0.424763,0.59985,0.423154,-0.529809,0
-12.144886,1.347412,3.48066,0.118691,0.046192,0.00549,46.949673,-6.03502,0.410489,4.63583E+18,0.819996,-0.120642,0.53537,0.162578,-9.786385,-0.440048,-0.772321,-0.219672,0.163315,-0.336945,41.572603,-18.4219,-1.160982,4.63583E+18,0.450892,-0.566094,0.472256,0.503198,-9.995708,1.485977,-3.036537,0.076843,-0.257612,0.211026,44.083747,14.402142,3.393951,4.63583E+18,0.425462,0.599795,0.422001,-0.530228,0
-12.132615,1.23754,3.361628,0.149537,0.041261,-0.059142,46.751347,-6.013684,0.439453,4.63583E+18,0.820012,-0.120307,0.53559,0.16202,-9.975309,-0.526313,-0.676639,-0.160497,0.164373,-0.280109,41.63492,-17.881403,-1.16168,4.63583E+18,0.450762,-0.567301,0.471553,0.502615,-9.494644,1.717579,-3.021609,0.108155,-0.31419,0.161129,44.181782,14.133378,3.201688,4.63583E+18,0.426071,0.599583,0.420803,-0.530932,0
-12.419427,1.02853,3.442447,0.166495,-0.002659,-0.071301,46.327199,-5.623156,0.521851,4.63583E+18,0.820142,-0.119911,0.535665,0.161404,-10.124938,-0.350062,-0.471786,-0.056571,0.181809,-0.224158,41.701768,-17.686435,-1.053789,4.63583E+18,0.450725,-0.568238,0.471231,0.501891,-9.35988,1.977766,-2.835566,0.099912,-0.380696,0.098099,44.038749,14.032285,3.042841,4.63583E+18,0.426676,0.599096,0.419662,-0.531897,0
-12.706322,0.706594,3.462346,0.1669,-0.096237,-0.041268,45.838925,-4.950289,0.587466,4.63583E+18,0.820461,-0.119384,0.535435,0.160937,-10.403147,-0.610594,-0.031283,0.097636,0.181707,-0.189877,41.731877,-18.050557,-0.877654,4.63583E+18,0.450982,-0.568816,0.471311,0.500928,-9.421084,1.783116,-2.579378,0.081717,-0.435724,0.045996,43.800163,14.10856,2.933142,4.63583E+18,0.427307,0.598363,0.418592,-0.533059,0
-12.717094,0.45935,3.45316,0.15582,-0.204657,0.011067,45.350628,-4.576291,0.61037,4.63583E+18,0.82098,-0.118705,0.534853,0.160728,-10.687578,-1.43479,0.835349,0.354089,0.158571,-0.137816,41.879202,-18.640705,-0.876945,4.63583E+18,0.451782,-0.568762,0.472006,0.499613,-9.42707,1.364507,-2.231544,0.082499,-0.482197,0.00913,43.836552,14.172795,2.722717,4.63583E+18,0.427932,0.59746,0.417528,-0.534402,0
-12.427265,0.17712,3.69567,0.169292,-0.296917,0.069811,44.969126,-4.722631,0.511237,4.63583E+18,0.821671,-0.117787,0.533992,0.160735,-11.132018,-2.189812,1.686746,0.666771,0.112801,-0.093426,41.725614,-18.571724,-0.946501,4.63583E+18,0.453319,-0.567932,0.473368,0.497873,-9.56405,1.27838,-1.843738,0.084144,-0.524684,-0.024786,43.983093,14.194053,2.429634,4.63583E+18,0.42855,0.596405,0.416466,-0.535912,0
-11.876569,-0.096029,4.031352,0.206534,-0.378356,0.111207,44.895744,-4.899708,0.329688,4.63583E+18,0.822531,-0.116594,0.532896,0.16084,-10.932578,-1.850144,2.363546,0.898085,0.164269,-0.014285,41.688556,-18.024932,-0.751331,4.63583E+18,0.455132,-0.56661,0.475489,0.495699,-9.854349,1.546996,-1.471577,0.056134,-0.558338,-0.060852,44.090103,14.276466,2.188285,4.63583E+18,0.429213,0.595159,0.415495,-0.537519,0
-11.153312,-0.04587,4.264885,0.258868,-0.416705,0.127507,45.12148,-4.725929,0.187735,4.63583E+18,0.823489,-0.11516,0.53171,0.160902,-11.111842,-1.25243,2.703149,1.077418,0.255659,0.084197,42.29231,-18.490978,-0.357462,4.63583E+18,0.456976,-0.564932,0.478379,0.493132,-9.894133,1.663572,-1.016843,0.01765,-0.580801,-0.090204,44.080933,14.331491,2.099805,4.63583E+18,0.429942,0.593739,0.41464,-0.539164,0
-10.491006,0.204353,4.455614,0.314278,-0.407909,0.132982,45.393118,-4.602191,0.138865,4.63583E+18,0.824445,-0.113529,0.530591,0.160856,-11.237914,-1.001007,3.362178,1.232839,0.362969,0.177011,42.898604,-19.223346,-0.047725,4.63583E+18,0.458769,-0.562979,0.481999,0.490167,-9.912214,1.413419,-0.674574,0.007188,-0.581615,-0.127872,44.041473,14.313279,1.956615,4.63583E+18,0.430611,0.59223,0.413898,-0.540857,0
-10.030095,0.602505,4.628053,0.351674,-0.385479,0.13392,45.888835,-5.059606,0.096164,4.63583E+18,0.825365,-0.111782,0.529572,0.160719,-11.236296,-1.009939,4.230179,1.346573,0.478645,0.20389,42.225199,-18.525354,0.209183,4.63583E+18,0.460526,-0.560972,0.48612,0.486738,-10.007101,1.263038,-0.613406,0.026929,-0.577065,-0.15804,43.90099,14.255212,1.700128,4.63583E+18,0.431153,0.590711,0.413191,-0.542624,0
-9.682184,1.025199,4.634284,0.377443,-0.375055,0.132185,46.543402,-5.898713,-0.018228,4.63583E+18,0.826272,-0.109957,0.528602,0.160513,-11.737373,-0.9155,5.207339,1.436322,0.54112,0.217311,41.763004,-18.275612,0.580503,4.63583E+18,0.462321,-0.558871,0.490555,0.482988,-9.927856,1.583456,-0.628648,0.052593,-0.574416,-0.196468,43.833749,14.30674,1.538268,4.63583E+18,0.431537,0.589175,0.412524,-0.544494,0
-9.39071,1.377708,4.556458,0.390671,-0.397861,0.132716,46.737622,-6.398048,-0.248553,4.63583E+18,0.82723,-0.108069,0.52756,0.160289,-13.022691,0.676784,7.022223,1.320743,0.524919,0.171519,42.298653,-19.235581,0.982766,4.63583E+18,0.463954,-0.557032,0.494602,0.479406,-9.805722,1.715822,-0.610586,0.056631,-0.567168,-0.244549,43.839747,14.508391,1.370837,4.63583E+18,0.431787,0.587575,0.411975,-0.546436,0
-9.000193,1.562488,4.513702,0.402415,-0.442984,0.131518,46.652169,-6.494339,-0.529323,4.63583E+18,0.828288,-0.106112,0.526367,0.160055,-13.769011,1.860552,8.725472,0.837865,0.593396,0.047979,42.219643,-19.217811,1.271916,4.63583E+18,0.464559,-0.556504,0.497517,0.476409,-9.826447,1.23072,-0.470168,0.047529,-0.582374,-0.273977,43.903817,14.584667,1.013654,4.63583E+18,0.432015,0.58587,0.411489,-0.548449,0
-8.543934,1.370506,4.565509,0.425373,-0.464108,0.130981,46.719161,-6.440984,-0.756739,4.63583E+18,0.829397,-0.104063,0.525112,0.159777,-14.042037,2.64571,9.655306,0.208394,0.770932,-0.044272,41.541794,-18.410037,1.521879,4.63583E+18,0.463513,-0.557729,0.499305,0.474119,-10.071185,0.629885,-0.511857,0.067178,-0.5987,-0.27399,43.937632,14.667078,0.772254,4.63583E+18,0.43222,0.584158,0.410926,-0.550532,0
-8.252339,0.905236,4.411661,0.461812,-0.451708,0.127381,46.374847,-6.058311,-0.959664,4.63583E+18,0.830492,-0.101903,0.523919,0.1594,-13.798476,2.667517,9.799539,-0.402811,0.915625,-0.134243,41.558341,-18.428608,1.736289,4.63583E+18,0.460916,-0.560599,0.499948,0.472585,-10.05268,0.045875,-1.094469,0.125749,-0.603728,-0.269969,43.852182,14.722128,0.708029,4.63583E+18,0.432297,0.582543,0.410206,-0.552715,0
-8.041788,0.48703,4.121731,0.493465,-0.429945,0.107636,45.674539,-5.588244,-1.106215,4.63583E+18,0.831559,-0.09969,0.522809,0.158875,-14.157281,2.188432,10.284735,-0.905744,0.914201,-0.254197,41.681416,-18.443354,2.113406,4.63583E+18,0.457373,-0.564669,0.499306,0.47186,-10.010704,0.130379,-1.687337,0.140709,-0.630962,-0.265214,43.803116,14.761545,0.611003,4.63583E+18,0.432392,0.580895,0.409388,-0.554977,0
-7.776331,0.133016,3.810478,0.525769,-0.413917,0.085199,45.856574,-5.790465,-1.132255,4.63583E+18,0.832614,-0.097425,0.521764,0.158193,-14.11559,2.122052,11.110258,-1.415443,0.898956,-0.374807,41.53518,-18.01482,2.442752,4.63583E+18,0.452881,-0.569909,0.497328,0.471983,-9.629195,0.476423,-1.840287,0.146358,-0.665368,-0.234521,43.885363,14.95963,0.226463,4.63583E+18,0.432598,0.579225,0.408417,-0.557272,0
-7.506235,-0.091437,3.5571,0.573418,-0.407767,0.047972,46.177496,-6.166057,-1.237377,4.63583E+18,0.833692,-0.095078,0.520751,0.157276,-12.901677,2.034265,11.437067,-1.960995,1.028632,-0.46649,41.713684,-18.098992,2.453688,4.63583E+18,0.446975,-0.576582,0.494267,0.472722,-9.357016,0.278073,-1.885668,0.14574,-0.71054,-0.202182,43.992449,15.198217,-0.118542,4.63583E+18,0.432954,0.577498,0.407285,-0.559612,0
-7.234674,-0.05507,3.601002,0.627887,-0.3863,-0.004755,45.694598,-5.851011,-1.496649,4.63583E+18,0.834773,-0.09267,0.519823,0.156047,-11.169567,0.347124,11.379141,-2.227142,1.127368,-0.483079,41.905761,-18.113817,2.472737,4.63583E+18,0.440214,-0.583922,0.490776,0.473694,-9.311388,0.058431,-1.98417,0.181791,-0.729022,-0.175788,43.965089,15.158819,-0.353845,4.63583E+18,0.433312,0.575833,0.405967,-0.562004,0
-6.98437,0.289508,3.529674,0.694363,-0.329854,-0.045634,45.5395,-5.557486,-1.733275,4.63583E+18,0.835775,-0.090155,0.519114,0.154508,-10.873949,-1.220909,10.955426,-2.307962,0.915144,-0.577357,41.674806,-17.650946,2.63553,4.63583E+18,0.433828,-0.591118,0.48645,0.475121,-9.268181,-0.070662,-1.615658,0.210409,-0.72712,-0.135967,43.867617,15.057698,-0.496938,4.63583E+18,0.433686,0.574285,0.404487,-0.564362,0
-6.752436,0.837177,3.198703,0.748065,-0.285356,-0.074345,45.829349,-5.682319,-1.860024,4.63583E+18,0.836711,-0.087542,0.518578,0.152735,-10.926699,-1.500073,10.611197,-2.290457,0.616413,-0.652624,41.681629,-17.457545,2.595413,4.63583E+18,0.428192,-0.597779,0.481379,0.47706,-9.490496,0.173576,-1.053313,0.214713,-0.73834,-0.103977,43.733065,15.170326,-0.801944,4.63583E+18,0.43414,0.572766,0.402895,-0.56669,0
-6.611918,1.381989,2.975674,0.769725,-0.259183,-0.093049,45.40019,-5.568423,-1.838823,4.63583E+18,0.837601,-0.084911,0.518134,0.150838,-9.615763,-1.171911,8.668466,-2.301217,0.428672,-0.615654,41.85126,-17.649681,2.304498,4.63583E+18,0.42279,-0.603949,0.475993,0.479505,-9.720758,0.232667,-0.833496,0.205373,-0.739736,-0.053744,43.711681,15.326531,-1.180362,4.63583E+18,0.434732,0.571305,0.401199,-0.56891,0
-6.549319,1.765198,2.929777,0.758675,-0.241281,-0.108268,44.909761,-5.345472,-1.867637,4.63583E+18,0.838448,-0.082361,0.517734,0.148904,-8.417089,-1.218802,5.340636,-2.057475,0.260778,-0.526119,41.992198,-17.385746,1.945115,4.63583E+18,0.418117,-0.609122,0.470979,0.482003,-9.563797,-0.13069,-0.659481,0.189385,-0.717298,-0.016626,43.702503,15.253291,-1.534542,4.63583E+18,0.435408,0.569925,0.399488,-0.570977,0
-6.462409,2.017043,3.036412,0.709185,-0.234728,-0.128288,45.270386,-5.384824,-1.904355,4.63583E+18,0.839268,-0.080031,0.517314,0.147003,-10.360787,-1.843034,5.719899,-1.339041,-0.237678,-0.42913,41.982527,-17.090364,1.729482,4.63583E+18,0.416028,-0.611817,0.466758,0.484497,-9.833109,-0.293341,-0.449371,0.158422,-0.694095,0.02897,43.681299,15.177013,-1.815329,4.63583E+18,0.436223,0.568615,0.397782,-0.572849,0
-6.367787,2.191057,3.062604,0.647368,-0.207271,-0.132725,45.698129,-5.292195,-1.858663,4.63583E+18,0.840004,-0.077942,0.516946,0.145209,-12.082669,-3.869786,6.831455,-0.429848,-0.789157,-0.326868,42.002336,-17.089097,1.340154,4.63583E+18,0.417113,-0.611608,0.463665,0.486794,-9.832919,-0.17071,-0.091991,0.128725,-0.656466,0.100014,43.614023,15.094599,-2.117259,4.63583E+18,0.437212,0.567453,0.396044,-0.574449,0
-6.160502,2.269007,2.856888,0.584222,-0.179205,-0.112324,45.58437,-5.101361,-1.892029,4.63583E+18,0.840639,-0.076047,0.516641,0.143612,-11.585143,-4.98257,7.773704,0.560451,-1.348254,-0.161045,42.09539,-17.078157,0.961729,4.63583E+18,0.421454,-0.608206,0.462018,0.488877,-9.872864,-0.30468,0.109563,0.125229,-0.606576,0.165413,43.644189,15.021362,-2.465289,4.63583E+18,0.43828,0.566509,0.394247,-0.575802,0
-5.849297,2.267557,2.624844,0.525733,-0.160646,-0.07749,45.460369,-5.140638,-1.860245,4.63583E+18,0.841191,-0.074293,0.516373,0.142256,-10.12772,-4.367643,8.133653,1.404729,-1.857767,0.014589,42.23888,-17.085753,0.563082,4.63583E+18,0.42853,-0.601906,0.461612,0.490903,-9.763401,-0.566987,0.207627,0.141693,-0.537711,0.239636,43.781701,14.987462,-2.709841,4.63583E+18,0.439371,0.565878,0.392358,-0.57688,0
-5.474032,2.151783,2.459987,0.484583,-0.128499,-0.035708,45.414691,-5.200354,-1.818903,4.63583E+18,0.841632,-0.072612,0.516204,0.141124,-9.293862,-2.352448,8.78542,1.992451,-2.299009,0.178553,42.240956,-17.1438,-0.009447,4.63583E+18,0.437539,-0.593261,0.461974,0.493135,-9.555473,-0.829898,0.128537,0.179184,-0.458397,0.323707,43.812574,15.069885,-2.828681,4.63583E+18,0.440443,0.56564,0.390324,-0.577676,0
-5.116868,1.988493,2.313499,0.447473,-0.083912,0.018079,45.333833,-5.10138,-1.887423,4.63583E+18,0.841931,-0.070971,0.516184,0.140247,-8.701662,-0.491925,9.659496,2.390554,-2.702091,0.367098,42.147936,-17.076893,-0.562017,4.63583E+18,0.447834,-0.582583,0.462796,0.495844,-9.44604,-1.051579,0.048402,0.17441,-0.389438,0.427006,43.720974,15.085646,-2.987575,4.63583E+18,0.44166,0.565723,0.388182,-0.578108,0
-4.832967,1.890708,2.25837,0.412617,-0.024262,0.079889,45.301674,-5.041657,-1.92877,4.63583E+18,0.842052,-0.069354,0.516369,0.139644,-7.728428,0.903947,10.227711,2.719568,-3.08083,0.571595,41.981655,-17.08365,-1.048219,4.63583E+18,0.459118,-0.569961,0.463966,0.49909,-9.19876,-1.628565,0.140866,0.180358,-0.340341,0.541572,43.705208,14.890648,-3.124454,4.63583E+18,0.443055,0.566118,0.385843,-0.578219,0
-4.614683,1.860121,2.174639,0.384571,0.049023,0.129586,45.301674,-5.087329,-1.860263,4.63583E+18,0.841977,-0.067771,0.516808,0.139253,-6.691245,2.392761,10.258372,2.937236,-3.361702,0.79226,41.750981,-17.288681,-1.651034,4.63583E+18,0.470851,-0.555725,0.465426,0.50284,-9.093974,-1.990023,-0.133306,0.234993,-0.280772,0.657959,43.866924,14.546151,-3.366002,4.63583E+18,0.444503,0.566939,0.383205,-0.578058,0
-4.480266,1.855525,2.093644,0.36826,0.127256,0.167911,45.301674,-5.168179,-1.818903,4.63583E+18,0.841703,-0.066208,0.517521,0.13901,-5.797677,3.447114,9.686367,3.053982,-3.5394,1.03474,41.523694,-17.813123,-2.5143,4.63583E+18,0.482513,-0.540207,0.467168,0.507061,-9.235295,-1.958893,-0.385266,0.241342,-0.231083,0.782431,43.974315,14.139761,-3.451446,4.63583E+18,0.446151,0.568085,0.380344,-0.577553,0
-4.405443,1.908798,2.120921,0.362241,0.191645,0.186247,45.408219,-5.405834,-1.750409,4.63583E+18,0.841276,-0.064664,0.51846,0.138825,-5.22477,4.411921,8.892046,3.023927,-3.618664,1.25894,41.238294,-18.512736,-3.426489,4.63583E+18,0.493592,-0.523926,0.469005,0.511764,-9.11277,-1.833479,-0.285577,0.255337,-0.195775,0.890069,43.931195,13.90782,-3.515732,4.63583E+18,0.447962,0.569504,0.377256,-0.576779,0
-4.397679,1.963808,2.072399,0.372354,0.250518,0.182403,45.571513,-5.575616,-1.648153,4.63583E+18,0.840724,-0.063127,0.519607,0.138589,-4.908639,5.106901,7.890207,2.889638,-3.614208,1.476877,41.0173,-18.936621,-4.096625,4.63583E+18,0.503701,-0.507289,0.470848,0.516957,-9.203688,-0.711385,-0.689892,0.229214,-0.177109,0.985444,44.055938,13.657756,-3.539915,4.63583E+18,0.450026,0.571059,0.374032,-0.575732,0
-4.437314,1.931937,2.003598,0.378527,0.298085,0.169724,45.684546,-5.504263,-1.558104,4.63583E+18,0.840074,-0.061622,0.520919,0.138281,-4.957423,5.197469,7.018489,2.655639,-3.585228,1.644306,40.76268,-19.487524,-4.784765,4.63583E+18,0.512695,-0.490673,0.472415,0.522693,-9.508695,0.221103,-0.52906,0.190217,-0.15226,1.061576,44.278898,13.331481,-3.682868,4.63583E+18,0.452319,0.572709,0.37076,-0.574412,0
-4.41765,1.858693,1.974586,0.375461,0.302313,0.169156,45.61779,-5.490164,-1.404159,4.63583E+18,0.83941,-0.060132,0.522242,0.137977,-5.370314,4.646513,6.435462,2.341746,-3.512858,1.770497,40.302176,-20.459927,-5.705815,4.63583E+18,0.520436,-0.474451,0.473533,0.52897,-9.79915,-0.252588,-0.171277,0.16238,-0.127483,1.126986,44.380202,12.943865,-3.915307,4.63583E+18,0.454786,0.574455,0.367436,-0.572854,0
-4.371837,1.823501,1.889297,0.381176,0.295211,0.184623,45.512371,-5.669936,-1.262122,4.63583E+18,0.838751,-0.058583,0.523545,0.137715,-6.198289,3.691777,5.969921,2.069478,-3.393783,1.877902,39.756229,-21.273624,-6.443747,4.63583E+18,0.526985,-0.458704,0.474357,0.535596,-9.978733,-0.675306,-0.115403,0.150135,-0.082655,1.204606,44.349244,12.523161,-3.95243,4.63583E+18,0.457387,0.57639,0.364032,-0.57101,0
-4.365652,1.659115,2.063977,0.396254,0.326101,0.188272,45.484783,-5.815157,-1.22074,4.63583E+18,0.838022,-0.056991,0.524962,0.137425,-7.117526,3.076743,5.395368,1.831919,-3.246664,1.973101,39.12616,-21.977716,-7.04515,4.63583E+18,0.532406,-0.443469,0.475004,0.542448,-10.374598,-1.584094,-0.398521,0.110787,-0.028184,1.314008,44.528414,11.937647,-3.824458,4.63583E+18,0.460248,0.578529,0.360552,-0.568751,0
-4.355034,1.440819,2.395141,0.42466,0.388948,0.181864,45.38588,-5.79409,-0.984892,4.63583E+18,0.837161,-0.05535,0.52661,0.137035,-8.069703,2.858661,4.929358,1.645951,-3.057008,2.073667,38.421521,-22.950136,-7.888721,4.63583E+18,0.536723,-0.428746,0.475697,0.549379,-10.791997,-2.419824,-0.744782,0.010254,0.022328,1.448813,44.892269,11.241825,-3.707771,4.63583E+18,0.463578,0.58078,0.35707,-0.565943,0
-4.300191,1.390052,2.583192,0.490527,0.451455,0.17013,45.227191,-5.708642,-0.606479,4.63583E+18,0.836179,-0.05354,0.528508,0.136444,-9.005492,2.803833,4.526998,1.455941,-2.879444,2.120722,37.647812,-23.755036,-8.714255,4.63583E+18,0.540095,-0.414643,0.476307,0.556327,-10.520686,-1.931947,-0.689916,-0.121216,0.055233,1.57747,45.020905,10.603383,-3.817371,4.63583E+18,0.467463,0.583022,0.353635,-0.562589,0
-4.287806,1.434281,2.548517,0.603534,0.515791,0.145856,45.266289,-5.569938,-0.471489,4.63583E+18,0.835087,-0.051426,0.530683,0.135503,-9.769946,3.045688,3.907885,1.235167,-2.682804,2.087525,36.973838,-24.349737,-9.286683,4.63583E+18,0.542641,-0.401459,0.476676,0.563162,-10.205934,0.486702,-0.622714,-0.215071,0.064653,1.637111,45.063153,10.178774,-3.931056,4.63583E+18,0.47168,0.585166,0.350278,-0.558932,0
-4.357866,1.460288,2.456873,0.709219,0.579493,0.109957,45.379341,-5.558791,-0.468481,4.63583E+18,0.833885,-0.049059,0.533125,0.134188,-10.28014,2.536257,3.20703,0.984283,-2.416186,1.993947,36.579049,-25.028695,-9.858291,4.63583E+18,0.544345,-0.389569,0.476803,0.569722,-9.775228,2.642017,-0.450155,-0.270638,0.042353,1.663886,45.237074,9.795126,-3.833397,4.63583E+18,0.476104,0.587159,0.346923,-0.55517,0
-4.622862,1.518134,2.474913,0.826628,0.611753,0.048475,45.365901,-5.743122,-0.106373,4.63583E+18,0.832657,-0.046438,0.535723,0.13239,-10.793595,1.164144,2.418349,0.778,-2.124408,1.861884,36.015505,-25.75698,-10.479735,4.63583E+18,0.545356,-0.379036,0.476808,0.575823,-8.67001,2.826633,-0.066796,-0.304986,-0.012421,1.667139,45.377937,9.136358,-3.753845,4.63583E+18,0.480675,0.588935,0.343513,-0.551459,0
-5.133582,1.793732,2.601396,0.962802,0.62471,-0.037606,45.345901,-5.880775,0.345653,4.63583E+18,0.831456,-0.043543,0.538413,0.129984,-11.538529,-0.517586,1.226454,0.632608,-1.913049,1.684307,35.247249,-26.342872,-10.791535,4.63583E+18,0.54607,-0.369642,0.476601,0.581399,-7.874486,2.718524,-0.179811,-0.286652,-0.064946,1.662541,45.393159,8.403557,-3.735465,4.63583E+18,0.485241,0.590591,0.339949,-0.547885,0
-5.807805,2.404943,2.59276,1.091941,0.63047,-0.142514,45.502622,-5.855141,0.602386,4.63583E+18,0.830302,-0.040438,0.541161,0.12692,-12.372936,-1.778186,-0.131977,0.553914,-1.766791,1.489151,34.731854,-26.927569,-11.266367,4.63583E+18,0.546785,-0.361129,0.476183,0.586397,-7.660501,2.866008,-0.156675,-0.256871,-0.150248,1.674806,45.453769,7.799077,-3.732449,4.63583E+18,0.489859,0.5921,0.336098,-0.544512,0
-6.634459,3.111514,2.460086,1.207852,0.616636,-0.259319,45.647887,-5.769696,0.968006,4.63583E+18,0.829235,-0.037187,0.543885,0.12319,-12.957978,-3.213069,-1.469037,0.587655,-1.610592,1.327078,34.494528,-27.484972,-11.682485,4.63583E+18,0.547588,-0.353209,0.475916,0.590673,-7.505255,3.093932,0.034468,-0.259057,-0.288664,1.680021,45.645778,7.216585,-3.723258,4.63583E+18,0.494662,0.59327,0.331938,-0.54144,0
-7.586395,3.612589,2.610181,1.299638,0.58981,-0.404897,45.634475,-5.684248,1.3224,4.63583E+18,0.828288,-0.033933,0.546522,0.118747,-12.869328,-4.028576,-3.255102,0.695123,-1.445328,1.187965,34.086356,-27.883659,-11.692528,4.63583E+18,0.548523,-0.3457,0.476051,0.594129,-7.315249,4.390374,-0.330987,-0.255763,-0.469982,1.642188,45.859903,6.548106,-3.789585,4.63583E+18,0.499597,0.593954,0.327473,-0.538872,0
-8.757703,4.147712,2.962595,1.369102,0.604887,-0.588146,45.553627,-5.598796,1.481498,4.63583E+18,0.827373,-0.030864,0.549197,0.113507,-12.583669,-4.470768,-4.705139,0.91759,-1.302996,1.064249,33.542391,-28.156335,-11.819063,4.63583E+18,0.549765,-0.338257,0.476851,0.596618,-7.279219,5.625542,-0.850172,-0.281585,-0.657583,1.572888,45.885059,5.982811,-4.058148,4.63583E+18,0.50467,0.594039,0.322829,-0.536849,0
-10.389014,5.127524,3.51883,1.448079,0.70641,-0.819913,45.475791,-5.308084,1.741799,4.63583E+18,0.826304,-0.028099,0.552201,0.107269,-12.697646,-4.592149,-5.665963,1.198619,-1.174319,0.930892,33.168078,-28.588957,-12.167361,4.63583E+18,0.551444,-0.330734,0.478428,0.598023,-7.551303,5.998642,-1.186983,-0.309841,-0.873381,1.477484,45.765556,5.552998,-4.350819,4.63583E+18,0.509864,0.593423,0.318013,-0.535496,0
-12.680852,6.749572,4.167419,1.514782,0.90806,-1.113638,45.493778,-4.893038,2.161233,4.63583E+18,0.824855,-0.025869,0.555858,0.099834,-12.895032,-4.484466,-6.296342,1.477621,-1.019255,0.777773,32.936159,-29.148518,-12.213926,4.63583E+18,0.553543,-0.323239,0.480813,0.598268,-9.226426,5.364679,-1.157613,-0.2937,-1.090062,1.424315,45.807744,4.949473,-4.765222,4.63583E+18,0.515157,0.592255,0.312815,-0.534784,0
-15.548646,8.614391,4.528522,1.573514,1.119132,-1.437948,45.529011,-4.424747,2.559706,4.63583E+18,0.822986,-0.024274,0.56018,0.091118,-12.551248,-4.335575,-7.11215,1.731894,-0.834668,0.60258,32.677834,-29.463085,-11.912133,4.63583E+18,0.556014,-0.315947,0.48399,0.59731,-10.558942,4.857162,-0.897629,-0.320493,-1.322065,1.430094,45.993713,4.237661,-5.302656,4.63583E+18,0.520799,0.590484,0.307144,-0.534565,0
-18.04531,9.998444,3.682329,1.57626,0.989835,-1.655424,45.480399,-3.825452,2.910697,4.63583E+18,0.821416,-0.023125,0.56398,0.081653,-12.016438,-4.621992,-8.012881,1.996134,-0.654779,0.423914,32.223453,-29.652444,-11.533749,4.63583E+18,0.558872,-0.308827,0.487971,0.595124,-10.660231,5.028456,-1.128083,-0.408902,-1.502577,1.374809,46.144295,3.757799,-5.835823,4.63583E+18,0.526729,0.588006,0.301392,-0.53476,0
-19.042876,10.162062,2.821031,1.532507,0.4616,-1.61513,45.493773,-3.01425,3.252489,4.63583E+18,0.820988,-0.02185,0.565905,0.072471,-11.797342,-5.23264,-8.92679,2.262347,-0.492709,0.21458,32.097338,-29.905334,-11.124047,4.63583E+18,0.562212,-0.301887,0.492678,0.59165,-10.701931,4.595375,-2.30768,-0.565246,-1.697316,1.251799,46.028568,3.44962,-6.559343,4.63583E+18,0.532971,0.584552,0.295837,-0.535464,0
-18.666913,10.169704,3.685821,1.515561,0.126637,-1.404639,45.567016,-2.316146,3.358646,4.63583E+18,0.821218,-0.020034,0.566652,0.064074,-11.401392,-6.340083,-10.13254,2.518223,-0.280772,0.004119,32.248524,-30.218658,-10.451684,4.63583E+18,0.5659,-0.295272,0.498198,0.586831,-10.961627,4.920578,-2.667332,-0.738737,-1.937373,1.092313,45.899837,3.096052,-7.21557,4.63583E+18,0.539528,0.579928,0.290499,-0.536846,0
-18.478552,10.63126,4.754661,1.534727,0.188355,-1.170431,45.746664,-1.84885,3.390433,4.63583E+18,0.821184,-0.017615,0.567594,0.056423,-11.276767,-6.981554,-11.208383,2.813629,-0.098377,-0.220827,32.308865,-30.380816,-9.897867,4.63583E+18,0.570051,-0.288836,0.504533,0.58057,-11.178003,5.591586,-1.618739,-0.847455,-2.182754,0.856366,45.875745,2.632226,-7.886577,4.63583E+18,0.546062,0.574167,0.285392,-0.539166,0
-19.302969,10.594008,4.128133,1.534971,0.117526,-0.909958,45.884395,-1.39286,3.402874,4.63583E+18,0.821207,-0.014562,0.568279,0.049664,-11.072542,-6.621648,-12.265849,2.987761,0.133373,-0.491899,32.190362,-30.475048,-9.459215,4.63583E+18,0.574495,-0.283075,0.511439,0.572935,-11.618303,6.176615,-0.53845,-0.853476,-2.43366,0.498852,45.778093,2.264722,-8.655245,4.63583E+18,0.552043,0.567339,0.28055,-0.542832,0
-20.364154,10.148546,3.467383,1.505246,-0.188059,-0.645389,45.858847,-0.950147,3.386059,4.63583E+18,0.821854,-0.01092,0.567899,0.043897,-10.427286,-6.388025,-13.070282,3.03293,0.494047,-0.805269,32.448667,-30.628374,-8.494831,4.63583E+18,0.578874,-0.278687,0.518862,0.563933,-12.386511,6.229117,-0.220064,-0.77802,-2.717599,0.051113,45.614203,2.284802,-9.590881,4.63583E+18,0.551546,0.562196,0.270261,-0.553798,0
-20.416639,9.585934,3.606411,1.514404,-0.402625,-0.442651,45.727814,-0.641515,3.252279,4.63583E+18,0.822935,-0.006727,0.566768,0.038811,-10.396159,-6.723423,-13.859987,2.979426,0.84863,-1.181343,32.918128,-30.603268,-7.511628,4.63583E+18,0.583201,-0.276023,0.526485,0.553626,-12.856909,6.339325,-0.327095,-0.740051,-3.03916,-0.313935,45.232942,2.550846,-10.811585,4.63583E+18,0.555909,0.553093,0.265705,-0.560762,0
-19.521041,9.084936,3.720269,1.578382,-0.411272,-0.31297,45.667896,-0.655707,3.181523,4.63583E+18,0.823978,-0.002007,0.565596,0.034016,-10.798716,-6.546854,-14.592939,2.688614,1.27247,-1.57702,33.230803,-30.34159,-6.355478,4.63583E+18,0.587063,-0.275859,0.533911,0.542401,-14.002939,6.610985,-1.107617,-0.691233,-3.345457,-0.724201,44.841831,2.718385,-11.984071,4.63583E+18,0.559432,0.542829,0.261219,-0.56933,0
-18.446568,8.824841,3.581889,1.651178,-0.305563,-0.22558,45.766667,-0.613868,3.117752,4.63583E+18,0.824721,0.003153,0.564769,0.029347,-9.828242,-6.107387,-15.173033,2.348667,1.835798,-1.88617,33.626788,-29.917762,-5.131308,4.63583E+18,0.589857,-0.27843,0.541482,0.530418,-15.78343,5.919048,-1.746516,-0.574542,-3.594251,-1.079464,44.518935,3.025551,-13.105781,4.63583E+18,0.561991,0.531735,0.256619,-0.579284,0
-17.659741,8.93963,3.207269,1.702914,-0.196535,-0.156659,45.917747,-0.351829,2.886358,4.63583E+18,0.825157,0.00864,0.564294,0.024792,-8.306451,-5.513703,-16.069557,1.908602,2.464035,-2.127723,34.208717,-29.400964,-3.993857,4.63583E+18,0.59112,-0.283952,0.54922,0.517982,-18.955267,5.516082,-1.839342,-0.458892,-3.720114,-1.333714,44.049221,3.56266,-14.518789,4.63583E+18,0.563668,0.520197,0.25194,-0.590084,0
-17.207258,9.562259,2.928679,1.712667,-0.234669,-0.106527,45.97308,-0.231941,2.657131,4.63583E+18,0.825634,0.014282,0.563657,0.020385,-10.110711,-1.736727,-13.147992,2.0284,1.946343,-2.279668,35.050298,-28.74935,-2.972941,4.63583E+18,0.593897,-0.288343,0.555632,0.505389,-22.703809,2.182856,-2.823975,-0.326514,-3.940922,-1.52697,43.482245,4.117783,-15.925521,4.63583E+18,0.564652,0.508071,0.246765,-0.60178,0
-17.024977,10.377205,3.818392,1.579409,-0.443385,-0.106747,45.919901,-0.17876,2.58797,4.63583E+18,0.826568,0.019482,0.562264,0.016276,-20.442875,17.834768,10.513396,2.198872,-0.20673,-2.086729,35.631539,-28.172163,-2.235188,4.63583E+18,0.60134,-0.287276,0.557201,0.495368,-25.328566,-1.736973,-3.400554,-0.123071,-4.15706,-1.711017,42.786422,4.788304,-17.386693,4.63583E+18,0.564779,0.495524,0.240879,-0.614376,0
-16.787605,10.324451,5.192277,1.298686,-0.676219,-0.13238,45.895227,-0.100911,2.641144,4.63583E+18,0.828038,0.023669,0.560027,0.012717,-16.250928,33.285198,31.584283,0.587306,-0.048859,-1.579208,35.860037,-27.664151,-1.800117,4.63583E+18,0.605378,-0.289363,0.55639,0.490119,-28.939318,-4.517362,-4.407967,0.132873,-4.31146,-1.81823,42.108684,5.582635,-18.961713,4.63583E+18,0.564053,0.482895,0.234108,-0.627574,0
-16.055591,9.553373,5.532158,0.948782,-0.759975,-0.135419,45.846679,-0.073244,2.559512,4.63583E+18,0.829713,0.026646,0.557466,0.009955,-7.439087,31.304262,28.914834,-1.776067,1.93408,-1.40336,36.19897,-27.089214,-1.635792,4.63583E+18,0.60155,-0.301024,0.555909,0.488352,-30.899962,-8.559165,-6.727904,0.464608,-4.265943,-1.893315,41.432136,6.171863,-20.459948,4.63583E+18,0.562205,0.470908,0.226639,-0.640941,0
-14.653765,8.890059,3.849818,0.723017,-0.656606,-0.063608,45.761228,-0.027682,2.247311,4.63583E+18,0.831151,0.029005,0.555232,0.007976,-2.942022,14.68009,11.15598,-3.892563,3.239228,-1.970719,36.833755,-26.4945,-1.635792,4.63583E+18,0.592999,-0.321859,0.553494,0.488266,-29.271263,-11.804184,-9.339239,0.563374,-3.907676,-1.962385,40.57177,6.699802,-21.904221,4.63583E+18,0.559438,0.459874,0.219799,-0.653631,0
-12.819105,9.010555,1.962259,0.599973,-0.560269,0.139004,45.668194,0.045555,1.864307,4.63583E+18,0.832363,0.031402,0.553296,0.006996,-2.636064,0.691094,-2.702796,-4.664553,3.16889,-2.121258,37.426001,-25.815597,-1.618279,4.63583E+18,0.583544,-0.34462,0.548815,0.489404,-24.554492,-11.297771,-11.365895,0.328566,-3.256784,-2.080481,39.695256,7.273008,-23.117288,4.63583E+18,0.556031,0.449821,0.215273,-0.664942,0
-10.938897,9.880094,2.254185,0.413415,-0.49398,0.389923,45.631275,-0.025455,1.60736,4.63583E+18,0.833431,0.033728,0.551545,0.007325,-4.297402,-10.59463,-3.662518,-4.48542,2.678351,-2.142789,37.661956,-25.062278,-1.466138,4.63583E+18,0.575167,-0.36579,0.54295,0.490496,-19.098647,-8.855077,-11.285748,-0.647392,-2.662508,-2.292724,38.956553,8.013559,-24.002839,4.63583E+18,0.553195,0.438855,0.215172,-0.674598,0
-9.77885,9.956757,4.274459,0.075317,-0.423857,0.503398,45.729981,-0.237308,1.363498,4.63583E+18,0.834374,0.035139,0.550007,0.008834,-10.848272,-31.92687,-8.38313,-2.9693,2.521136,-2.281623,38.082872,-24.230926,-1.467099,4.63583E+18,0.569481,-0.383155,0.539346,0.487842,-16.655655,-6.223115,-9.374566,-1.960231,-2.802284,-2.450925,38.233896,8.968155,-24.756695,4.63583E+18,0.552294,0.424212,0.21867,-0.683519,0
-9.504951,7.681373,6.896121,-0.476098,-0.349267,0.420269,45.744423,-0.435874,1.325682,4.63583E+18,0.835223,0.034439,0.548715,0.011329,-22.246313,-22.444843,-12.57849,0.902635,0.665392,-2.346014,38.833861,-23.423609,-1.311966,4.63583E+18,0.574143,-0.387616,0.538979,0.479182,-15.483719,-3.028792,-16.787432,-2.618985,-2.658593,-2.365819,37.412628,10.081411,-25.459286,4.63583E+18,0.552471,0.40841,0.224142,-0.691186,0
-9.236298,3.802268,8.989934,-0.971922,-0.301443,0.166829,45.769861,-0.546048,1.306503,4.63583E+18,0.836034,0.031432,0.547595,0.014083,-20.855302,31.646824,-16.701704,0.826579,2.066178,-0.931899,39.188535,-22.94937,-0.60416,4.63583E+18,0.572651,-0.391837,0.544037,0.471761,-12.290482,3.247073,-26.212637,-3.045219,-1.844597,-2.024461,36.739885,11.296237,-25.870891,4.63583E+18,0.553424,0.39416,0.232063,-0.696065,0
-8.242643,1.078428,10.906989,-1.230114,-0.18625,-0.185083,45.847727,-0.626887,1.1557,4.63583E+18,0.836618,0.026714,0.546894,0.016214,-12.215434,33.207741,-22.210022,-0.00863,3.719265,-1.035813,39.351249,-22.697733,0.531128,4.63583E+18,0.566149,-0.401466,0.551129,0.463203,-9.59166,8.139398,-27.578646,-2.476345,-1.01424,-1.29843,36.345846,12.359887,-25.785438,4.63583E+18,0.554623,0.384244,0.239006,-0.698302,0
-6.707193,-0.209008,11.249829,-1.118188,0.116262,-0.495551,45.776746,-0.461848,1.078868,4.63583E+18,0.836499,0.021659,0.547276,0.017042,-29.536169,-2.721065,-2.616524,0.007207,2.63118,-2.103363,39.655184,-22.336665,1.647683,4.63583E+18,0.564103,-0.411318,0.553774,0.453805,-6.88737,3.869202,-18.799788,0.255093,-0.271981,0.292895,36.115298,12.861814,-25.742008,4.63583E+18,0.55514,0.384409,0.237064,-0.698463,0
-4.682747,-1.044321,9.278937,-0.804332,0.317482,-0.663246,45.716724,-0.18242,1.241229,4.63583E+18,0.835884,0.0173,0.548383,0.016587,-22.484922,-13.269977,5.802316,0.074098,2.507999,-1.57856,39.923196,-21.592094,2.588538,4.63583E+18,0.561365,-0.419497,0.557058,0.445619,-7.751102,7.455857,-17.346673,3.257781,0.805176,1.775989,36.335547,12.244428,-25.827452,4.63583E+18,0.55421,0.396007,0.226571,-0.696201,0
-2.869209,-0.662697,7.397519,-0.477047,0.278368,-0.744681,45.815395,-0.085452,1.517382,4.63583E+18,0.835326,0.013897,0.549372,0.015098,-1.966031,-9.957223,2.95874,0.088293,2.132037,-1.217126,39.983244,-20.898555,3.403422,4.63583E+18,0.558782,-0.426053,0.56005,0.438846,-8.171354,20.82643,-25.82473,3.083593,2.020254,2.08277,37.006954,10.781301,-25.819898,4.63583E+18,0.553128,0.410914,0.218804,-0.690886,0
-2.419386,0.472187,5.830107,-0.344,0.228612,-0.827906,45.875423,0.058739,1.615996,4.63583E+18,0.834867,0.01077,0.550193,0.013012,1.377335,-1.121537,-5.139827,-0.076173,2.050148,-1.003958,40.158146,-20.661889,3.967191,4.63583E+18,0.555653,-0.432303,0.562873,0.433056,-5.261549,14.130264,-31.525379,1.684401,2.860088,2.114937,37.681343,9.626386,-25.415934,4.63583E+18,0.553607,0.424924,0.216882,-0.682584,0
-3.413019,0.634817,4.960521,-0.407909,0.20679,-0.953355,45.769197,0.503102,1.596202,4.63583E+18,0.834453,0.007134,0.550931,0.010634,-4.128241,2.360119,-10.758009,-0.177507,2.054011,-0.803909,40.46554,-20.466101,4.491791,4.63583E+18,0.551922,-0.438288,0.565833,0.427923,-15.364197,-0.379641,-24.031005,2.02353,3.409917,2.700144,38.42487,8.614954,-24.575389,4.63583E+18,0.554467,0.441667,0.214155,-0.672037,0
-5.189053,-0.27973,4.806749,-0.553005,0.231324,-1.128504,45.757633,1.023752,1.63249,4.63583E+18,0.833974,0.00259,0.551739,0.007982,-13.062056,-0.713568,-2.943672,-0.185673,1.858307,-0.612837,40.652899,-20.069727,5.404122,4.63583E+18,0.548256,-0.44346,0.568634,0.423574,-20.06942,-3.34183,-18.268573,2.67085,3.768509,3.093344,39.397614,7.194809,-23.464091,4.63583E+18,0.554657,0.461053,0.209619,-0.660186,0
-7.738626,-1.612596,4.592647,-0.724798,0.444356,-1.310547,45.736857,1.519621,1.766432,4.63583E+18,0.832985,-0.002976,0.553265,0.005094,-15.501331,-5.204177,1.752643,0.072751,1.547026,-0.520108,40.5403,-19.852729,5.927059,4.63583E+18,0.545609,-0.447247,0.571318,0.419376,-21.018377,-3.3716,-14.695335,2.827816,3.936443,3.187389,40.466476,5.463767,-22.381516,4.63583E+18,0.554344,0.481087,0.204741,-0.647564,0
-12.206366,-3.415373,3.982402,-0.726447,0.78779,-1.54146,45.507281,2.118683,2.051106,4.63583E+18,0.831165,-0.009088,0.55595,0.001404,-12.014121,-3.206458,1.57927,-0.091235,1.572773,-0.380337,40.337221,-19.767287,6.14995,4.63583E+18,0.542327,-0.451099,0.574009,0.415819,-22.684948,-3.770065,-11.084833,2.358843,3.924695,2.964737,41.328433,3.981418,-21.15789,4.63583E+18,0.554075,0.499552,0.201433,-0.634723,0
-19.288034,-5.446483,2.290737,-0.536134,0.746192,-1.650373,45.432644,2.831007,2.397545,4.63583E+18,0.829398,-0.014793,0.558454,-0.003103,-9.121597,0.189799,1.335446,-0.288574,1.683715,-0.296712,40.478504,-19.700492,6.743598,4.63583E+18,0.538236,-0.455367,0.576737,0.412695,-22.730957,-4.584644,-8.018475,1.465939,3.934188,2.617298,41.968994,2.936921,-19.90396,4.63583E+18,0.554476,0.515455,0.201136,-0.621616,0
-23.148291,-6.069433,-0.03122,-0.500771,0.065766,-1.190984,45.604504,3.461846,2.504174,4.63583E+18,0.829184,-0.019314,0.558609,-0.006062,-11.141097,-2.502417,0.797111,-0.133314,1.616718,-0.126534,40.442669,-19.796906,7.502706,4.63583E+18,0.534282,-0.458741,0.579876,0.409686,-20.839233,-4.593561,-6.718167,0.52528,4.031771,2.117823,42.682776,2.078335,-18.519668,4.63583E+18,0.555302,0.528816,0.204493,-0.60842,0
-19.067064,-4.995513,0.445212,-0.65926,-0.28531,-0.425393,45.69231,3.780625,2.429626,4.63583E+18,0.829777,-0.02261,0.557604,-0.005979,-12.554345,-2.947715,1.441766,0.190706,1.502506,-0.045761,40.206001,-19.848808,8.144226,4.63583E+18,0.531063,-0.460984,0.583443,0.406277,-17.968745,-5.475603,-6.345444,-0.170175,4.198144,1.417162,43.394854,1.427736,-16.974791,4.63583E+18,0.555547,0.540207,0.211469,-0.595672,0
-13.705607,-3.954706,2.351332,-0.855021,-0.002591,0.127473,45.548186,3.746721,2.514019,4.63583E+18,0.829698,-0.02529,0.557627,-0.003555,-12.093209,-1.936313,2.139421,0.379702,1.537342,0.045589,40.059943,-19.62081,8.55122,4.63583E+18,0.527944,-0.462627,0.587557,0.402526,-15.771128,-7.753762,-5.485831,-0.534671,4.342153,0.785982,43.928983,0.977265,-15.492823,4.63583E+18,0.55473,0.55037,0.221029,-0.583535,0
-12.725686,-3.557713,2.949936,-1.005195,0.327507,0.417246,45.414868,3.481877,2.716892,4.63583E+18,0.828826,-0.027811,0.558815,0.000184,-12.595423,-0.33343,2.431999,0.446887,1.617379,0.095587,40.117051,-19.561421,9.231432,4.63583E+18,0.524651,-0.464113,0.59203,0.398549,-14.620671,-11.147027,-3.987157,-0.585314,4.397238,0.390712,44.474854,0.869721,-13.808251,4.63583E+18,0.552828,0.559998,0.23167,-0.571937,0
-14.557531,-2.804181,2.500478,-1.148341,0.438248,0.598617,45.485711,3.205366,2.863747,4.63583E+18,0.827657,-0.030403,0.56039,0.00487,-14.741403,-1.71926,2.007035,0.70121,1.543761,0.153043,40.006821,-19.70752,10.058405,4.63583E+18,0.521909,-0.464757,0.596845,0.394193,-13.544914,-13.343152,-1.200917,-0.496547,4.321725,0.078335,45.022288,0.91786,-12.147738,4.63583E+18,0.549863,0.56916,0.242576,-0.561128,0
-16.212884,-1.945247,1.548515,-1.3563,0.275038,0.787512,45.545822,2.961225,2.85228,4.63583E+18,0.826806,-0.033266,0.5614,0.010714,-16.764669,-1.048967,2.640391,1.025829,1.453201,0.215311,39.692092,-19.616925,10.52334,4.63583E+18,0.51989,-0.464366,0.602086,0.38932,-12.867753,-12.670577,1.210395,-0.445739,4.150579,-0.277701,45.358337,1.112488,-10.560775,4.63583E+18,0.545944,0.577499,0.253739,-0.551413,0
-16.250689,-1.460102,1.168577,-1.580035,-0.082948,0.97799,45.553404,2.512359,2.835075,4.63583E+18,0.826711,-0.036437,0.561164,0.017786,-17.528091,0.762079,1.505439,1.304681,1.337619,0.321464,39.527573,-19.414913,10.950278,4.63583E+18,0.518498,-0.462891,0.607699,0.38418,-12.65954,-10.360904,3.665417,-0.292214,3.97436,-0.60644,45.61814,1.3997,-9.018769,4.63583E+18,0.540928,0.585265,0.264864,-0.54287,0
-14.861896,-1.444345,2.33371,-1.704096,-0.515788,1.091901,45.558029,2.037185,2.738169,4.63583E+18,0.827544,-0.039734,0.559408,0.025606,-23.805503,-0.33975,5.205553,1.699586,0.908081,0.282491,39.518907,-19.561041,11.893515,4.63583E+18,0.518983,-0.459945,0.612902,0.378759,-12.552911,-8.944562,4.656299,-0.020457,3.80226,-0.880287,45.8314,1.63162,-7.615045,4.63583E+18,0.534673,0.592792,0.275582,-0.535515,0
-12.876176,-1.657787,4.551532,-1.798074,-0.789253,1.074303,45.656602,1.675211,2.506605,4.63583E+18,0.828933,-0.043364,0.55665,0.033627,-30.758047,1.536114,10.917647,2.154033,0.599044,0.194108,39.414886,-19.445709,12.602097,4.63583E+18,0.521227,-0.455719,0.617939,0.372551,-12.406658,-8.94322,5.04269,0.364752,3.683359,-1.136236,46.082004,1.902468,-6.1663,4.63583E+18,0.526893,0.600462,0.285737,-0.529324,0
-10.97854,-2.253569,5.754031,-1.872516,-0.817226,0.939991,45.716724,1.34566,2.298728,4.63583E+18,0.83032,-0.047554,0.553712,0.041359,-30.830828,6.605734,11.309346,2.229269,0.600509,0.195913,39.164893,-19.006927,12.911332,4.63583E+18,0.52356,-0.451286,0.623044,0.366117,-12.391134,-8.127032,5.894989,0.705701,3.60302,-1.41028,46.235421,2.329004,-4.693101,4.63583E+18,0.517612,0.608217,0.295573,-0.524201,0
-9.658702,-4.056922,5.715916,-1.864236,-0.791127,0.763379,45.716724,0.917519,2.067183,4.63583E+18,0.831609,-0.052123,0.550784,0.048453,-29.360316,7.678307,11.741987,2.266069,0.447391,0.058207,39.095522,-19.006927,13.483931,4.63583E+18,0.52652,-0.446856,0.627556,0.359541,-12.981335,-5.759356,6.360481,0.766742,3.341536,-1.654699,46.256844,2.904969,-3.594053,4.63583E+18,0.50783,0.615073,0.305255,-0.520204,0
-8.757485,-6.333011,5.265003,-1.793097,-0.800233,0.613773,45.716724,0.474687,1.806189,4.63583E+18,0.832899,-0.056783,0.547763,0.054863,-23.623396,8.830548,13.357426,2.286422,0.352187,-0.028159,39.167526,-18.957524,14.145393,4.63583E+18,0.529847,-0.442422,0.631672,0.352867,-13.710455,-4.335653,7.265671,1.01936,3.078746,-1.830129,46.251102,3.63968,-2.499828,4.63583E+18,0.497231,0.621518,0.314209,-0.517445,0
-7.727491,-7.840302,4.944804,-1.67542,-0.753138,0.524191,45.762201,0.264338,1.474079,4.63583E+18,0.834074,-0.061246,0.544875,0.060679,-16.470858,12.812702,14.164285,1.667612,0.557926,-0.099812,39.213732,-18.476598,14.678399,4.63583E+18,0.531557,-0.439814,0.635155,0.347259,-13.967771,-4.160356,7.229962,1.407629,2.887051,-1.963703,46.208012,4.473213,-1.262499,4.63583E+18,0.485468,0.628027,0.322199,-0.51584,0
-6.408646,-8.691791,4.469063,-1.430602,-0.66091,0.534378,45.736916,0.178887,1.156288,4.63583E+18,0.835052,-0.064854,0.54234,0.065948,-13.486995,17.055689,12.751502,-0.002974,0.820919,-0.330484,39.136936,-18.103579,14.831995,4.63583E+18,0.529826,-0.441882,0.63636,0.345068,-14.062675,-2.662132,6.741728,1.67591,2.651033,-2.086278,46.196309,5.28099,-0.311975,4.63583E+18,0.472936,0.634251,0.329378,-0.515332,0
-4.992523,-8.429659,3.912996,-1.154245,-0.534006,0.640992,45.659041,-0.156697,0.943722,4.63583E+18,0.835754,-0.067292,0.54033,0.070927,-13.633866,17.139826,15.683508,-1.684328,0.92549,-0.809575,39.135701,-18.07888,14.822115,4.63583E+18,0.525387,-0.449062,0.634466,0.346069,-14.003919,-0.867591,6.684187,1.792919,2.427262,-2.202228,46.077986,6.169902,0.438147,4.63583E+18,0.460038,0.639909,0.336091,-0.515678,0
-3.652357,-6.862805,3.655049,-0.956006,-0.296167,0.80132,45.585802,-0.546433,0.833461,4.63583E+18,0.835902,-0.068747,0.539234,0.075948,-12.950618,12.866041,19.106806,-2.972772,0.795974,-1.456884,39.140781,-17.842143,14.696057,4.63583E+18,0.519742,-0.460525,0.629131,0.349255,-13.466875,0.442314,6.544188,1.776837,2.254745,-2.302787,45.852282,6.959863,1.256528,4.63583E+18,0.447099,0.644871,0.342698,-0.516529,0
-2.441791,-5.110961,2.817683,-0.8211,0.053923,0.95619,45.504981,-0.822971,0.873892,4.63583E+18,0.83523,-0.069493,0.539429,0.081104,-10.676996,12.248303,19.587393,-4.586959,0.811387,-1.973597,39.309324,-17.695928,14.29794,4.63583E+18,0.511545,-0.476711,0.620284,0.35541,-12.319852,1.53723,6.199536,1.708172,2.136965,-2.37605,45.608156,7.850148,1.956306,4.63583E+18,0.43425,0.649196,0.349351,-0.517615,0
-1.418495,-4.042263,1.566219,-0.667797,0.382093,1.063515,45.480154,-1.112588,0.983759,4.63583E+18,0.833804,-0.069573,0.540834,0.086191,-8.667549,10.698957,16.470838,-6.397229,1.021836,-2.66751,39.55703,-17.769165,13.715621,4.63583E+18,0.499908,-0.498549,0.607422,0.364115,-10.585489,2.281882,5.402808,1.559381,2.074718,-2.439503,45.364007,8.851156,2.538756,4.63583E+18,0.421661,0.652878,0.356308,-0.51865,0
-0.478665,-3.206807,0.545593,-0.535074,0.520664,1.113819,45.484783,-1.589036,1.161796,4.63583E+18,0.832061,-0.069125,0.542765,0.091111,-6.415505,11.088148,11.978831,-7.601758,1.089537,-3.240391,39.742749,-17.801716,13.055125,4.63583E+18,0.485956,-0.523932,0.591056,0.374158,-8.657419,2.987685,4.806991,1.405809,2.068797,-2.512771,45.122853,9.834213,3.233516,4.63583E+18,0.409247,0.656023,0.363708,-0.519487,0
0.302139,-2.164242,0.02572,-0.536311,0.528662,1.055825,45.492358,-2.109705,1.434536,4.63583E+18,0.830297,-0.068814,0.544691,0.095828,-4.672408,10.048072,7.339147,-8.298296,1.291753,-3.574062,40.076125,-17.429032,12.372702,4.63583E+18,0.469867,-0.551166,0.572497,0.384303,-7.339301,3.6124,4.993761,1.300765,2.098626,-2.574649,44.831221,10.797719,4.075751,4.63583E+18,0.396852,0.658815,0.371477,-0.520073,0
0.932772,-1.180392,-0.274856,-0.613553,0.512786,0.929482,45.504568,-2.491972,1.679135,4.63583E+18,0.828574,-0.069049,0.54648,0.100285,-4.828579,-2.943713,-3.303391,-6.97704,1.101164,-3.595982,40.560838,-16.696813,11.602516,4.63583E+18,0.456707,-0.574862,0.554899,0.391203,-7.021182,4.536185,5.954895,1.098101,2.087985,-2.640467,44.390959,11.892869,4.822523,4.63583E+18,0.3848,0.661001,0.379767,-0.520369,0
1.765767,-0.008973,-0.70882,-0.708135,0.457249,0.798472,45.410714,-2.718445,1.826048,4.63583E+18,0.826984,-0.069883,0.547986,0.104519,-12.021005,-25.028302,-2.55128,-3.545504,-0.164086,-3.403562,41.129762,-16.176716,10.931117,4.63583E+18,0.454035,-0.589089,0.540523,0.39327,-7.192879,5.866962,6.752613,0.889105,2.02831,-2.684353,44.061371,13.031642,5.277169,4.63583E+18,0.37324,0.66251,0.388456,-0.520456,0
2.378703,0.55353,-1.054853,-0.846723,0.386163,0.629867,45.297477,-2.881766,1.867733,4.63583E+18,0.825571,-0.071547,0.549126,0.108506,-17.88461,-24.155156,5.303691,-0.522725,-1.411689,-2.916577,41.738632,-15.55761,10.278247,4.63583E+18,0.460657,-0.594278,0.52977,0.392393,-7.247943,6.653309,6.798979,0.657574,1.938047,-2.720549,43.69599,14.049098,5.788754,4.63583E+18,0.362311,0.663267,0.397527,-0.520365,0
2.671018,0.388786,-1.132329,-1.029355,0.242922,0.466926,45.318135,-3.146737,1.935984,4.63583E+18,0.824487,-0.074146,0.549629,0.112391,-12.27676,1.344495,10.545991,1.156225,-2.08389,-2.122609,42.118249,-14.624947,9.790003,4.63583E+18,0.47154,-0.593284,0.522343,0.390925,-7.296501,6.953878,6.311496,0.390608,1.819862,-2.764533,43.222886,14.891409,6.447954,4.63583E+18,0.35215,0.663159,0.407043,-0.520121,0
2.682998,-0.080463,-0.880281,-1.226883,0.084596,0.322014,45.358089,-3.476447,1.932074,4.63583E+18,0.823751,-0.077678,0.549437,0.116276,-3.527475,9.591202,12.030665,1.884252,-2.472712,-1.48788,42.508886,-13.572902,9.272209,4.63583E+18,0.483946,-0.588729,0.516807,0.390006,-7.480428,6.558899,5.653651,0.135108,1.730494,-2.77068,42.770942,15.811306,7.059408,4.63583E+18,0.342766,0.662346,0.416922,-0.519601,0
2.477492,-0.201945,-0.421416,-1.329951,-0.022385,0.19734,45.362709,-3.601184,1.904355,4.63583E+18,0.823262,-0.081796,0.548771,0.120001,0.474883,6.238401,10.775449,2.731137,-3.039578,-0.948695,42.884773,-12.876185,8.463895,4.63583E+18,0.498649,-0.580233,0.512697,0.389641,-7.894117,6.067352,4.742739,-0.017161,1.677871,-2.729001,42.340982,16.911301,7.571016,4.63583E+18,0.333923,0.661152,0.426866,-0.518806,0
1.955656,-1.026406,0.025966,-1.2945,-0.066827,0.138288,45.355124,-3.601184,1.843671,4.63583E+18,0.822891,-0.085902,0.547933,0.123454,2.252081,7.528458,10.837155,3.573903,-3.711309,-0.422362,43.120318,-12.608852,7.404226,4.63583E+18,0.515778,-0.567547,0.509638,0.390042,-7.94001,6.125901,3.533263,-0.030484,1.661898,-2.637273,41.84704,17.790981,8.206295,4.63583E+18,0.325286,0.659952,0.436489,-0.517812,0
1.067233,-1.835625,0.23621,-1.214098,-0.14804,0.156054,45.403601,-3.699795,1.692913,4.63583E+18,0.822702,-0.089648,0.546849,0.12681,3.811251,14.571137,11.603832,3.668148,-4.053019,0.181801,43.27287,-12.378307,6.256744,4.63583E+18,0.532619,-0.55254,0.507177,0.392156,-7.507875,6.674648,2.079988,0.093422,1.628243,-2.482107,41.276811,18.595867,8.791716,4.63583E+18,0.316653,0.659022,0.445304,-0.516842,0
0.456077,-1.789646,0.420255,-1.169312,-0.347966,0.218832,45.481464,-3.812972,1.509816,4.63583E+18,0.82293,-0.092989,0.545112,0.130351,5.676994,18.32563,10.737937,3.376002,-4.256295,0.81232,43.361923,-12.40286,5.119193,4.63583E+18,0.547909,-0.536228,0.504978,0.39655,-6.88881,7.855513,0.798959,0.358682,1.570843,-2.295649,40.698691,19.529351,9.42707,4.63583E+18,0.307754,0.658567,0.452896,-0.516199,0
0.347732,-1.819491,0.67958,-1.128815,-0.56964,0.295191,45.46369,-3.898427,1.379794,4.63583E+18,0.823613,-0.095895,0.542652,0.134144,6.49645,18.049426,9.111897,3.018154,-4.317381,1.357863,43.367995,-12.680153,4.060763,4.63583E+18,0.561342,-0.519204,0.503006,0.402873,-6.118865,9.59805,-0.183419,0.354349,1.562217,-2.10791,40.278033,20.425555,9.96764,4.63583E+18,0.299248,0.658357,0.459913,-0.515264,0
0.6089,-1.946897,0.932947,-1.044776,-0.657915,0.36984,45.329784,-4.036955,1.229059,4.63583E+18,0.824464,-0.098291,0.539949,0.138034,5.780411,17.34672,7.525304,2.620755,-4.173957,1.784839,43.319165,-13.25266,2.887454,4.63583E+18,0.57262,-0.502198,0.501379,0.410516,-5.319729,11.674157,-1.11884,0.227277,1.560996,-1.896293,39.801943,20.979284,10.375162,4.63583E+18,0.291513,0.658315,0.466569,-0.513765,0
0.787189,-2.086713,1.245316,-0.893663,-0.607993,0.436496,45.318129,-4.154766,0.924644,4.63583E+18,0.825204,-0.100044,0.537518,0.141789,3.925351,17.300176,6.41807,2.111188,-3.881406,2.105938,43.261772,-13.823885,1.392418,4.63583E+18,0.581414,-0.486011,0.500027,0.419194,-5.216956,12.912144,-1.266976,0.105295,1.451512,-1.738646,39.307967,21.414355,10.615198,4.63583E+18,0.284636,0.658132,0.472876,-0.512087,0
0.646455,-2.221371,1.606914,-0.70957,-0.57824,0.476295,45.449077,-4.240217,0.606875,4.63583E+18,0.825913,-0.10109,0.535304,0.145254,2.262407,16.762675,4.755549,1.45484,-3.477187,2.352259,43.088239,-14.524846,0.121749,4.63583E+18,0.587387,-0.471422,0.498818,0.428858,-4.630306,11.389241,0.959536,-0.145539,1.369701,-1.699883,38.737786,22.060478,11.065155,4.63583E+18,0.278666,0.657495,0.479474,-0.510049,0
0.223322,-2.500983,1.813894,-0.50143,-0.681245,0.523157,45.456129,-4.424224,0.333707,4.63583E+18,0.826896,-0.101252,0.532871,0.148457,0.301708,15.502633,3.737507,0.781374,-3.09071,2.548869,42.570686,-15.600297,-0.631517,4.63583E+18,0.590696,-0.458613,0.497579,0.439508,-2.847507,8.110059,4.539509,-0.504619,1.289305,-1.648262,38.18649,22.724897,11.733522,4.63583E+18,0.273927,0.656319,0.486562,-0.507411,0
-0.28641,-3.065967,2.037472,-0.28166,-0.836558,0.586288,45.423748,-4.721429,0.178873,4.63583E+18,0.828263,-0.100418,0.530055,0.151452,-2.178334,13.523907,2.724374,0.091966,-2.64658,2.684292,42.127675,-16.668173,-1.58107,4.63583E+18,0.59136,-0.44791,0.496297,0.450954,-1.102727,4.700114,6.215888,-0.643489,1.280239,-1.516112,37.887561,23.067563,12.327157,4.63583E+18,0.269846,0.655182,0.493534,-0.504325,0
-0.665616,-3.714631,2.421423,-0.036156,-0.891386,0.636851,45.423748,-5.051029,-0.012714,4.63583E+18,0.829806,-0.098588,0.527216,0.154099,-4.684297,10.30255,1.106781,-0.439972,-2.270271,2.869089,41.744327,-17.588645,-2.599128,4.63583E+18,0.589764,-0.438733,0.495166,0.463144,-0.69615,3.234996,5.590006,-0.618718,1.249232,-1.281886,37.534459,23.33522,12.738606,4.63583E+18,0.266235,0.654443,0.499746,-0.501076,0
-0.705463,-4.091659,2.489415,0.295855,-0.782305,0.697083,45.272126,-5.335142,-0.451016,4.63583E+18,0.831189,-0.095546,0.524981,0.156177,-6.100079,7.927145,-0.994067,-0.964305,-1.888621,3.072656,41.208432,-18.655545,-3.423082,4.63583E+18,0.585888,-0.431057,0.494214,0.476107,-1.341409,4.170322,4.25881,-0.662524,1.142465,-0.952661,37.109295,23.71365,13.235543,4.63583E+18,0.263639,0.654083,0.505006,-0.497634,0
-0.484855,-3.894465,2.050264,0.684676,-0.542288,0.743439,45.073478,-5.591479,-0.886605,4.63583E+18,0.832154,-0.09121,0.523837,0.157466,-6.291699,6.127976,-2.949419,-1.410515,-1.481917,3.169618,40.65792,-19.65521,-4.091976,4.63583E+18,0.580037,-0.424972,0.493421,0.489379,-2.437634,6.244588,3.960362,-0.894524,0.984929,-0.628789,36.824965,23.978909,13.7792,4.63583E+18,0.262668,0.653794,0.50967,-0.493756,0
