Accelerometer-X,Accelerometer-Y,Accelerometer-Z,Gyroscope-X,Gyroscope-Y,Gyroscope-Z,Magnetometer-X,Magnetometer-Y,Magnetometer-Z,Barometer-pressure,Orientation-S,Orientation-X,Orientation-Y,Orientation-Z,Accelerometer-X,Accelerometer-Y,Accelerometer-Z,Gyroscope-X,Gyroscope-Y,Gyroscope-Z,Magnetometer-X,Magnetometer-Y,Magnetometer-Z,Barometer-pressure,Orientation-S,Orientation-X,Orientation-Y,Orientation-Z,Accelerometer-X,Accelerometer-Y,Accelerometer-Z,Gyroscope-X,Gyroscope-Y,Gyroscope-Z,Magnetometer-X,Magnetometer-Y,Magnetometer-Z,Barometer-pressure,Orientation-S,Orientation-X,Orientation-Y,Orientation-Z,jump
-8.59232,1.061999,2.997763,0.42031,0.053663,-0.140703,43.873409,-11.218604,6.324258,4.63583E+18,0.768248,-0.097925,0.607818,0.175396,-9.734178,2.584305,-0.155567,0.043996,-0.173361,-0.358328,36.806815,-29.363287,-3.410884,4.63583E+18,0.41056,-0.487363,0.519755,0.56901,-12.642972,-2.620378,-0.398333,0.329945,-0.443707,-1.057558,42.290422,19.034191,1.478421,4.63583E+18,-0.534704,-0.469182,-0.535144,0.45561,0
-9.02575,0.823063,2.832072,0.418714,0.076759,-0.187854,44.020811,-10.923797,6.28855,4.63583E+18,0.76839,-0.097042,0.608292,0.173611,-9.833474,2.749367,-0.383448,0.038631,-0.164626,-0.365176,36.7866,-29.076829,-3.458217,4.63583E+18,0.411886,-0.487661,0.518879,0.568595,-12.460829,-2.787548,-1.899135,0.276973,-0.313997,-1.021385,41.952653,19.371887,1.284404,4.63583E+18,-0.53299,-0.466852,-0.535894,0.459118,0
-9.590748,0.522255,2.797235,0.439546,0.007542,-0.226911,44.100126,-10.889874,6.46821,4.63583E+18,0.76874,-0.09614,0.608541,0.171677,-9.710045,2.837953,-0.375582,0.062118,-0.157588,-0.375727,36.864863,-28.882717,-3.515732,4.63583E+18,0.413268,-0.487957,0.518049,0.568096,-11.603515,-2.256568,-1.355914,0.20424,-0.218117,-0.992295,41.631237,19.805998,1.051133,4.63583E+18,-0.531248,-0.4646,-0.536928,0.462202,0
-10.164491,0.341782,2.784158,0.459001,-0.159561,-0.225684,44.116684,-10.889004,6.65219,4.63583E+18,0.769518,-0.095053,0.608266,0.169762,-9.579967,2.528071,-0.263701,0.112101,-0.159521,-0.38585,36.915188,-28.952961,-3.515732,4.63583E+18,0.414714,-0.488241,0.517256,0.56752,-10.837318,-0.485097,0.320539,0.067836,-0.182889,-0.980445,41.463101,20.220961,0.964385,4.63583E+18,-0.529704,-0.462132,-0.538271,0.464879,0
-10.624867,0.136867,2.601892,0.448468,-0.384261,-0.197603,44.185579,-10.74162,6.574545,4.63583E+18,0.770836,-0.093769,0.607271,0.168053,-9.538327,1.976565,0.051364,0.18693,-0.179114,-0.381152,36.945293,-28.948253,-3.636151,4.63583E+18,0.416362,-0.48832,0.516631,0.566814,-10.632669,1.256289,2.011807,-0.146139,-0.261249,-0.991005,41.331526,20.443359,1.018658,4.63583E+18,-0.528717,-0.459008,-0.539865,0.467242,0
-11.042483,-0.00262,2.53129,0.407878,-0.561241,-0.14786,44.111448,-10.650956,6.295522,4.63583E+18,0.772545,-0.092364,0.605692,0.166674,-9.474453,1.519752,0.377587,0.246024,-0.201616,-0.35767,37.053645,-28.691923,-3.84884,4.63583E+18,0.418166,-0.48815,0.51619,0.566034,-10.159097,1.55564,1.942071,-0.234159,-0.330534,-0.974975,41.166045,20.766236,0.899224,4.63583E+18,-0.528075,-0.455584,-0.541437,0.469496,0
-11.208128,0.146474,2.504264,0.316561,-0.6212,-0.083703,43.878659,-10.724197,6.104589,4.63583E+18,0.774319,-0.09105,0.603876,0.165753,-9.394028,1.323414,0.288373,0.25437,-0.213058,-0.316035,37.18223,-28.57601,-3.826137,4.63583E+18,0.419851,-0.487902,0.51578,0.565373,-8.57477,-0.275676,-0.268906,-0.172909,-0.28744,-0.958484,41.083335,21.148686,0.660533,4.63583E+18,-0.527241,-0.452407,-0.542943,0.47176,0
-11.139254,0.442088,2.309811,0.190738,-0.56833,-0.030441,44.076576,-10.662294,5.819439,4.63583E+18,0.775869,-0.090043,0.602159,0.1653,-9.285675,1.516166,-0.153952,0.173442,-0.205425,-0.268959,37.267685,-28.62636,-3.67093,4.63583E+18,0.421259,-0.487697,0.5153,0.56494,-7.316265,-2.661353,-1.660221,-0.046751,-0.229768,-0.933914,41.071129,21.330407,0.573748,4.63583E+18,-0.526078,-0.449669,-0.544272,0.47414,0
-10.917798,0.395875,2.13631,0.06059,-0.461831,0.003049,44.240489,-10.430375,5.605832,4.63583E+18,0.777076,-0.089446,0.600706,0.165241,-9.116944,1.962834,-0.497474,-0.016625,-0.167998,-0.237775,37.313016,-28.490945,-3.693637,4.63583E+18,0.422127,-0.487845,0.514502,0.564893,-7.415362,-3.331234,-1.154205,0.042966,-0.208882,-0.869704,40.936833,21.532523,0.682271,4.63583E+18,-0.524818,-0.447308,-0.545341,0.476536,0
-10.527224,0.322639,2.044758,-0.029051,-0.343892,0.040048,44.172507,-10.344917,5.409664,4.63583E+18,0.777926,-0.089127,0.599586,0.165481,-9.054189,2.206706,-0.467801,-0.206459,-0.126823,-0.220305,37.305824,-28.226566,-3.848821,4.63583E+18,0.422523,-0.488345,0.513402,0.565166,-8.245422,-2.060338,-0.027128,0.029908,-0.226447,-0.781528,40.650653,21.837688,0.714811,4.63583E+18,-0.523789,-0.445078,-0.546225,0.478736,0
-10.067668,0.487405,2.061305,-0.104671,-0.266968,0.063552,44.166386,-10.487015,5.316333,4.63583E+18,0.778539,-0.089048,0.598669,0.165958,-9.224217,1.934443,-0.040115,-0.265321,-0.1067,-0.204913,37.335907,-28.125856,-3.946478,4.63583E+18,0.422719,-0.488962,0.512229,0.565549,-8.896463,-0.760971,0.779889,-0.055657,-0.251251,-0.708185,40.368541,22.014013,0.623939,4.63583E+18,-0.523117,-0.442775,-0.547085,0.480622,0
-9.490505,0.511836,2.187713,-0.169517,-0.232939,0.074082,44.325045,-10.804356,5.23089,4.63583E+18,0.779035,-0.089177,0.597822,0.166618,-9.450485,1.404302,0.400438,-0.208063,-0.104354,-0.187575,37.384083,-28.231137,-4.004028,4.63583E+18,0.422986,-0.489446,0.51123,0.565835,-9.232831,-0.735085,1.040336,-0.167092,-0.236659,-0.67602,40.212554,22.134716,0.531712,4.63583E+18,-0.522675,-0.440327,-0.548135,0.482153,0
-8.870556,0.46738,2.242664,-0.19989,-0.231712,0.075762,44.17863,-10.907297,5.145439,4.63583E+18,0.779513,-0.0894,0.596957,0.167359,-9.633579,1.259947,0.627345,-0.13654,-0.114405,-0.163087,37.426362,-28.412287,-4.079211,4.63583E+18,0.423283,-0.489797,0.510364,0.566091,-9.67491,-1.251829,1.143392,-0.27188,-0.198092,-0.654188,40.127111,22.334068,0.488296,4.63583E+18,-0.522376,-0.437774,-0.549434,0.483321,0
-8.327308,0.475214,2.302826,-0.225679,-0.221872,0.078813,44.166386,-10.834089,5.048654,4.63583E+18,0.779955,-0.089707,0.596106,0.168169,-9.731476,1.474076,0.791971,-0.090692,-0.118067,-0.127522,37.506824,-28.390249,-4.147011,4.63583E+18,0.42363,-0.489954,0.509699,0.566294,-10.100855,-1.439124,1.330542,-0.364331,-0.160352,-0.618944,40.000994,22.606665,0.488296,4.63583E+18,-0.522224,-0.435173,-0.550932,0.484128,0
-7.880894,0.578072,2.318531,-0.242388,-0.185412,0.066153,44.313694,-10.827967,4.951006,4.63583E+18,0.780307,-0.090124,0.595356,0.168967,-9.757252,1.599854,0.802153,-0.071506,-0.108582,-0.088237,37.580092,-28.156207,-4.014183,4.63583E+18,0.423908,-0.490012,0.50918,0.566504,-10.242011,-1.489271,1.401153,-0.434601,-0.120476,-0.573491,39.882967,22.87118,0.542523,4.63583E+18,-0.522195,-0.4326,-0.552572,0.484597,0
-7.634064,0.529299,2.319407,-0.249487,-0.158857,0.055242,44.325081,-10.839298,4.683377,4.63583E+18,0.780597,-0.090611,0.594683,0.169736,-9.849885,1.625754,0.664349,-0.067044,-0.096014,-0.052172,37.557972,-28.025218,-3.986672,4.63583E+18,0.424124,-0.489977,0.508803,0.56671,-10.140349,-1.646573,1.209999,-0.467013,-0.080125,-0.524478,39.844963,23.103106,0.687618,4.63583E+18,-0.522225,-0.430147,-0.554271,0.484808,0
-7.50412,0.694868,2.285417,-0.270765,-0.140164,0.048527,44.177792,-10.760864,4.663228,4.63583E+18,0.780837,-0.091196,0.594052,0.170528,-9.910242,1.601339,0.469031,-0.055056,-0.092798,-0.017113,37.434407,-28.196121,-4.257274,4.63583E+18,0.424218,-0.489905,0.508483,0.566989,-9.95047,-1.862211,0.931938,-0.454807,-0.040488,-0.477007,39.804303,23.287596,0.823281,4.63583E+18,-0.522232,-0.427907,-0.555942,0.484869,0
-7.506674,0.911943,2.418727,-0.275351,-0.109122,0.048067,44.166386,-10.754723,4.742528,4.63583E+18,0.780997,-0.09182,0.593517,0.171319,-9.884472,1.637146,0.288777,-0.03532,-0.099397,0.01525,37.456515,-28.156248,-4.480117,4.63583E+18,0.424297,-0.489708,0.50827,0.567292,-9.822921,-2.128036,0.695913,-0.40272,-0.005235,-0.429415,39.724282,23.440862,0.866726,4.63583E+18,-0.522157,-0.425958,-0.557497,0.484881,0
-7.711465,1.120346,2.553886,-0.284503,-0.092937,0.0669,44.166386,-10.675423,4.74868,4.63583E+18,0.781099,-0.092438,0.593035,0.172187,-9.76675,1.784298,0.165214,-0.030845,-0.103859,0.038879,37.544955,-27.889727,-4.444995,4.63583E+18,0.424388,-0.489398,0.50815,0.567598,-9.742905,-2.407442,0.44909,-0.320608,0.02989,-0.37898,39.686268,23.599547,0.968366,4.63583E+18,-0.521953,-0.424374,-0.558869,0.484909,0
-8.033154,1.089975,2.642854,-0.279248,-0.074018,0.087195,44.087085,-10.669271,4.658052,4.63583E+18,0.781141,-0.093002,0.592626,0.173101,-9.655386,1.982451,0.142141,-0.040517,-0.108819,0.059421,37.472547,-27.861476,-4.4348,4.63583E+18,0.424422,-0.489049,0.508041,0.567972,-9.643907,-2.391425,0.180542,-0.239659,0.058263,-0.326051,39.598188,23.75146,1.10404,4.63583E+18,-0.521644,-0.423146,-0.560045,0.484958,0
-8.54395,1.075132,2.75095,-0.267884,-0.081554,0.111452,44.160223,-10.895812,4.662348,4.63583E+18,0.781187,-0.093464,0.592209,0.174068,-9.584322,2.146993,0.155856,-0.052456,-0.116296,0.077462,37.384086,-27.990066,-4.527436,4.63583E+18,0.424404,-0.488665,0.507926,0.568417,-9.534041,-2.106625,-0.047369,-0.193468,0.067293,-0.280351,39.439493,23.816645,1.093293,4.63583E+18,-0.521324,-0.422142,-0.561065,0.484999,0
-9.125499,1.255483,2.860816,-0.256135,-0.112972,0.123135,44.234345,-10.992707,4.583939,4.63583E+18,0.781306,-0.093836,0.591701,0.175056,-9.508902,2.152189,0.109202,-0.056993,-0.124212,0.088334,37.421372,-28.040405,-4.577776,4.63583E+18,0.424368,-0.488248,0.507809,0.568908,-9.519025,-1.951843,-0.154605,-0.175065,0.058994,-0.24261,39.321455,23.816645,1.056611,4.63583E+18,-0.521065,-0.421249,-0.561962,0.485015,0
-9.666146,1.38284,2.834759,-0.26619,-0.179782,0.11895,44.160341,-10.930908,4.396545,4.63583E+18,0.781588,-0.094202,0.590967,0.176082,-9.543169,2.087466,0.093308,-0.054476,-0.138024,0.097508,37.399312,-28.110629,-4.617904,4.63583E+18,0.424344,-0.487773,0.507692,0.569437,-9.63425,-1.85969,-0.258965,-0.185246,0.03278,-0.219335,39.330842,23.897931,1.109461,4.63583E+18,-0.520932,-0.420334,-0.562782,0.485001,0
-10.203212,1.448272,2.764164,-0.296767,-0.252177,0.109645,44.086223,-11.072859,4.393783,4.63583E+18,0.782041,-0.094637,0.589969,0.17718,-9.628802,2.172727,0.086966,-0.05667,-0.156753,0.103859,37.275731,-28.246417,-4.715559,4.63583E+18,0.42434,-0.487244,0.50755,0.570019,-9.738751,-1.699665,-0.390558,-0.221313,0.002867,-0.215408,39.362102,24.051183,1.147496,4.63583E+18,-0.520939,-0.41929,-0.563602,0.484945,0
-10.604428,1.565936,2.702246,-0.338721,-0.285171,0.094086,44.160212,-11.24288,4.304061,4.63583E+18,0.782567,-0.095223,0.588825,0.178344,-9.511951,2.375224,-0.013523,-0.065959,-0.163808,0.106185,37.297768,-28.261659,-4.773095,4.63583E+18,0.424211,-0.486812,0.507279,0.570725,-9.806557,-1.58295,-0.446239,-0.270555,-0.025138,-0.221575,39.275398,24.121828,1.201675,4.63583E+18,-0.521083,-0.418067,-0.56447,0.484836,0
-10.757229,1.518128,2.675185,-0.401266,-0.282377,0.067163,44.15506,-11.175947,4.036519,4.63583E+18,0.78308,-0.096081,0.58763,0.179571,-9.39033,2.44518,-0.060379,-0.070383,-0.166556,0.107254,37.391277,-28.211309,-4.692863,4.63583E+18,0.424146,-0.486317,0.507053,0.571396,-9.873029,-1.462298,-0.404267,-0.337475,-0.053268,-0.231305,39.250814,24.081194,1.190975,4.63583E+18,-0.521389,-0.416618,-0.565429,0.484637,0
-10.642364,1.140021,2.684745,-0.45643,-0.242357,0.036422,44.086232,-11.169774,3.925643,4.63583E+18,0.783491,-0.097223,0.58651,0.180817,-9.457033,2.345346,0.075863,-0.07067,-0.171037,0.103934,37.391277,-28.241393,-4.617888,4.63583E+18,0.4241,-0.485815,0.506815,0.572068,-9.927294,-1.26974,-0.224001,-0.416752,-0.083527,-0.246727,39.371466,24.089219,1.140723,4.63583E+18,-0.521871,-0.414897,-0.566507,0.484336,0
-10.326899,0.703208,2.730925,-0.486134,-0.196658,0.015355,44.001663,-11.32831,3.9299,4.63583E+18,0.783792,-0.098548,0.585506,0.182047,-9.521774,2.234835,0.289916,-0.087129,-0.163122,0.092567,37.391277,-28.284554,-4.750631,4.63583E+18,0.424029,-0.485386,0.506527,0.572739,-9.91518,-1.144827,0.032321,-0.488442,-0.107749,-0.268914,39.306703,24.209849,1.189455,4.63583E+18,-0.522485,-0.412918,-0.567712,0.483954,0
-9.940679,0.410954,2.745782,-0.486162,-0.178472,0.001005,44.289906,-11.419946,3.749599,4.63583E+18,0.784056,-0.099921,0.584553,0.183222,-9.521774,2.14349,0.410689,-0.095886,-0.155015,0.081313,37.326107,-28.319645,-4.898651,4.63583E+18,0.423949,-0.485017,0.506208,0.573393,-9.772901,-1.170473,0.16003,-0.544234,-0.119507,-0.291703,39.069335,24.402391,1.341273,4.63583E+18,-0.523173,-0.410737,-0.56904,0.483506,0
-9.595377,0.27741,2.769311,-0.471146,-0.181275,-0.004954,44.312874,-11.34687,3.644884,4.63583E+18,0.784334,-0.101257,0.583597,0.184341,-9.4917,2.156345,0.459516,-0.091365,-0.143153,0.075591,37.232578,-28.370005,-4.996305,4.63583E+18,0.423865,-0.48468,0.505909,0.574003,-9.60599,-1.25593,0.231843,-0.57619,-0.121652,-0.307735,39.006657,24.547655,1.428266,4.63583E+18,-0.523885,-0.408441,-0.570452,0.483017,0
-9.298895,0.200636,2.725796,-0.448192,-0.17267,-0.007322,44.165699,-11.261429,3.637806,4.63583E+18,0.784599,-0.102531,0.582684,0.185393,-9.44853,2.140021,0.553447,-0.079256,-0.128065,0.069756,37.26766,-28.370005,-5.13405,4.63583E+18,0.423786,-0.484372,0.505651,0.574549,-9.519109,-1.470009,0.395863,-0.56769,-0.113,-0.312967,39.086668,24.54509,1.482428,4.63583E+18,-0.524546,-0.406165,-0.57187,0.482541,0
-8.994565,0.070771,2.688283,-0.418746,-0.136306,-0.009458,44.222111,-11.266548,3.547227,4.63583E+18,0.784788,-0.103741,0.58191,0.18635,-9.478596,2.040182,0.727168,-0.054139,-0.120453,0.060581,37.318031,-28.405082,-5.209095,4.63583E+18,0.423762,-0.484057,0.505448,0.57501,-9.49736,-1.800924,0.488296,-0.518829,-0.094376,-0.311783,39.036724,24.505696,1.580082,4.63583E+18,-0.525078,-0.404034,-0.573225,0.482144,0
-8.825284,0.015758,2.742228,-0.386863,-0.114699,-0.004661,44.453818,-11.335352,3.359029,4.63583E+18,0.784933,-0.104852,0.581231,0.187235,-9.511754,1.984797,0.847321,-0.018152,-0.118564,0.052037,37.222839,-28.525599,-5.071362,4.63583E+18,0.423832,-0.483697,0.505322,0.575373,-9.50413,-1.959954,0.400292,-0.439339,-0.067206,-0.308462,38.837409,24.669496,1.83344,4.63583E+18,-0.525415,-0.402136,-0.57447,0.481881,0
-8.825066,0.182022,2.757987,-0.376609,-0.12313,-0.007244,44.324397,-11.340677,3.344829,4.63583E+18,0.785102,-0.105928,0.580531,0.188091,-9.48734,2.01768,0.834478,0.024821,-0.115496,0.043491,37.05102,-28.556219,-4.996287,4.63583E+18,0.424006,-0.483283,0.505288,0.575622,-9.543411,-1.951854,0.316062,-0.333863,-0.036232,-0.29649,38.74086,24.805443,2.049395,4.63583E+18,-0.525522,-0.400559,-0.57555,0.48179,0
-8.871237,0.319851,2.668304,-0.373016,-0.143717,-0.011439,43.939278,-11.114256,3.435397,4.63583E+18,0.785324,-0.106987,0.579762,0.188932,-9.482964,2.145392,0.785651,0.062668,-0.113279,0.029687,37.065764,-28.420391,-5.174093,4.63583E+18,0.424325,-0.482801,0.505357,0.575731,-9.529996,-1.974817,0.244273,-0.20915,-0.001112,-0.281293,38.7463,24.764835,2.04009,4.63583E+18,-0.525365,-0.399361,-0.576429,0.481905,0
-8.98798,0.578634,2.706493,-0.378726,-0.185878,-0.008778,44.057186,-11.255006,3.272692,4.63583E+18,0.785641,-0.108024,0.578851,0.189815,-9.492351,2.391413,0.731816,0.079919,-0.118619,0.009202,37.159336,-28.405066,-5.346843,4.63583E+18,0.424679,-0.482371,0.505365,0.575823,-9.449984,-2.029086,0.141174,-0.082505,0.038526,-0.274398,38.73953,24.860792,1.995246,4.63583E+18,-0.524914,-0.398536,-0.577128,0.482242,0
-9.042129,0.81321,2.721362,-0.395038,-0.215802,-0.003593,45.042097,-11.957849,2.829282,4.63583E+18,0.786017,-0.109079,0.577829,0.190767,-9.379971,2.745428,0.59064,0.062334,-0.115195,-0.016161,37.094224,-28.490518,-5.306773,4.63583E+18,0.425063,-0.482023,0.505296,0.575891,-9.432207,-2.017012,0.111192,0.02729,0.064901,-0.269893,38.686725,25.133301,1.989807,4.63583E+18,-0.524226,-0.398014,-0.577656,0.482789,0
-9.124923,0.954618,2.801488,-0.41114,-0.248606,0.018586,45.786414,-12.544103,2.546465,4.63583E+18,0.786444,-0.110106,0.576696,0.191845,-9.203754,2.949183,0.319259,0.008077,-0.093475,-0.047712,36.96558,-28.540909,-5.249183,4.63583E+18,0.425417,-0.481847,0.505113,0.575938,-9.482356,-1.969511,0.128839,0.107083,0.077485,-0.267037,38.601283,25.269325,1.88833,4.63583E+18,-0.52338,-0.397698,-0.578046,0.483499,0
-9.266957,1.054931,2.852976,-0.42518,-0.289638,0.051986,45.691662,-12.506604,2.617479,4.63583E+18,0.786933,-0.111066,0.575429,0.193083,-9.227857,2.861855,0.0914,-0.066909,-0.062254,-0.077673,36.950245,-28.540909,-5.289248,4.63583E+18,0.425626,-0.481941,0.504745,0.576027,-9.570453,-1.95995,0.086926,0.161109,0.087575,-0.272956,38.522597,25.228735,1.806696,4.63583E+18,-0.522408,-0.397506,-0.578358,0.484336,0
-9.413428,1.050727,2.9018,-0.441044,-0.357037,0.089133,45.453767,-12.500381,2.534057,4.63583E+18,0.787543,-0.111934,0.573944,0.194513,-9.329271,2.771702,0.042251,-0.147481,-0.03002,-0.112098,37.065734,-28.505859,-5.381893,4.63583E+18,0.425619,-0.482389,0.504114,0.57621,-9.693841,-1.857163,-0.005285,0.189871,0.089493,-0.29074,38.402007,25.236667,1.914925,4.63583E+18,-0.521345,-0.397337,-0.578645,0.485275,0
-9.537282,0.97062,2.860095,-0.468949,-0.411613,0.13642,45.583071,-12.658815,2.357182,4.63583E+18,0.788227,-0.112736,0.572275,0.196188,-9.325835,2.817717,0.130517,-0.21535,0.001394,-0.145786,37.189378,-28.385357,-5.437302,4.63583E+18,0.425512,-0.483084,0.503324,0.576397,-9.78077,-1.600982,-0.021775,0.182927,0.08167,-0.32134,38.283901,25.397834,1.947905,4.63583E+18,-0.52025,-0.397063,-0.578978,0.486277,0
-9.557504,0.896493,2.822586,-0.498776,-0.435311,0.180521,45.59465,-12.592077,2.162776,4.63583E+18,0.788912,-0.11351,0.570521,0.198089,-9.30986,2.701946,0.260404,-0.269798,0.032999,-0.17394,37.20254,-28.254514,-5.404449,4.63583E+18,0.425344,-0.483968,0.502443,0.576549,-9.782256,-1.404023,0,0.154219,0.072764,-0.357062,38.198456,25.629759,1.850252,4.63583E+18,-0.51915,-0.396622,-0.579408,0.4873,0
-9.524451,0.823249,2.865171,-0.526704,-0.432912,0.228275,45.515446,-12.585833,2.057981,4.63583E+18,0.789532,-0.114264,0.568769,0.200211,-9.368698,2.429628,0.424095,-0.292427,0.056527,-0.197384,37.18937,-28.206304,-5.386889,4.63583E+18,0.425136,-0.484996,0.501501,0.576658,-9.72535,-1.395595,-0.033811,0.125727,0.061738,-0.389351,38.113007,25.814353,1.806696,4.63583E+18,-0.518057,-0.396017,-0.579923,0.48834,0
-9.487829,0.874472,2.947947,-0.558436,-0.408838,0.272382,45.441308,-12.823453,1.89243,4.63583E+18,0.790036,-0.115037,0.567086,0.20254,-9.451949,2.277169,0.59499,-0.284405,0.063213,-0.212861,37.232578,-28.134035,-5.524584,4.63583E+18,0.424967,-0.486058,0.500558,0.576708,-9.625056,-1.482364,-0.047513,0.100091,0.05081,-0.417484,38.122226,25.879696,1.908129,4.63583E+18,-0.516973,-0.395267,-0.580512,0.489396,0
-9.428583,0.844991,2.954192,-0.586517,-0.399045,0.311221,45.50384,-13.068466,1.540523,4.63583E+18,0.790464,-0.115818,0.565425,0.205056,-9.504564,2.188922,0.695822,-0.264637,0.058888,-0.221843,37.262601,-27.970354,-5.67985,4.63583E+18,0.424868,-0.487092,0.499635,0.576709,-9.550318,-1.607072,-0.02986,0.071497,0.041673,-0.441229,38.119769,25.927031,2.043904,4.63583E+18,-0.515908,-0.394377,-0.581177,0.490448,0
-9.299664,0.819683,2.988133,-0.613298,-0.37664,0.348684,45.430003,-13.018454,1.332697,4.63583E+18,0.790785,-0.116616,0.563827,0.207747,-9.482353,2.019042,0.655804,-0.233559,0.054038,-0.230142,37.375854,-27.904517,-5.697462,4.63583E+18,0.424861,-0.488076,0.498761,0.576639,-9.493414,-1.767074,-0.004131,0.034015,0.029694,-0.457266,37.945108,26.17475,2.040136,4.63583E+18,-0.514898,-0.393343,-0.581917,0.491461,0
-9.142773,0.817896,3.036064,-0.641979,-0.31157,0.373197,45.423748,-13.092279,1.137401,4.63583E+18,0.79091,-0.117507,0.562425,0.210551,-9.470741,1.822715,0.593161,-0.196613,0.051657,-0.235675,37.511741,-27.984966,-5.674834,4.63583E+18,0.424846,-0.489086,0.497873,0.576561,-9.48778,-1.897404,0.093336,-0.007525,0.010485,-0.461325,37.783418,26.343576,1.893842,4.63583E+18,-0.513993,-0.392169,-0.582706,0.492411,0
-9.006703,0.569025,3.084893,-0.669829,-0.204606,0.387788,45.344561,-13.32479,0.964709,4.63583E+18,0.790749,-0.118548,0.561352,0.213415,-9.490155,1.742859,0.565947,-0.153292,0.04432,-0.239948,37.56218,-27.963169,-5.845325,4.63583E+18,0.424995,-0.489967,0.497109,0.576363,-9.523089,-1.954499,0.178978,-0.049298,-0.009465,-0.453273,37.704727,26.255686,1.813456,4.63583E+18,-0.513218,-0.390883,-0.583523,0.493273,0
-8.996857,0.334399,3.145035,-0.713438,-0.1322,0.391775,45.417482,-13.568938,0.872991,4.63583E+18,0.790385,-0.119787,0.560475,0.216355,-9.507363,1.731247,0.572135,-0.105577,0.02732,-0.244658,37.557178,-27.799483,-6.01825,4.63583E+18,0.425283,-0.490735,0.496416,0.576095,-9.479903,-2.046511,0.154759,-0.081966,-0.020639,-0.435724,37.584168,26.313318,1.866223,4.63583E+18,-0.512558,-0.389546,-0.584352,0.494035,0
-8.951612,0.272149,3.172132,-0.760274,-0.082573,0.391021,45.423748,-13.518974,0.866726,4.63583E+18,0.789874,-0.121225,0.559712,0.219376,-9.536776,1.82567,0.557568,-0.077434,0.004504,-0.249998,37.649987,-27.663593,-5.903233,4.63583E+18,0.425691,-0.491406,0.495741,0.575803,-9.402527,-2.267344,0.15587,-0.098252,-0.022908,-0.410222,37.466036,26.633117,1.958429,4.63583E+18,-0.511981,-0.38823,-0.585167,0.494705,0
-8.902783,0.426915,3.287033,-0.790448,-0.05529,0.376097,45.344571,-13.58146,0.776239,4.63583E+18,0.789287,-0.122821,0.558998,0.222401,-9.488398,2.030975,0.338885,-0.080122,-0.004852,-0.256651,37.859119,-27.613146,-5.697481,4.63583E+18,0.426134,-0.492067,0.495033,0.575519,-9.409082,-2.487281,0.129037,-0.104316,-0.023614,-0.373694,37.380583,26.888569,1.94794,4.63583E+18,-0.511488,-0.386988,-0.585932,0.495281,0
-8.853954,0.405534,3.44304,-0.814339,-0.04351,0.355126,45.191255,-13.892233,0.610714,4.63583E+18,0.788671,-0.124553,0.558282,0.225404,-9.397492,2.270694,0.108704,-0.109307,0.010743,-0.265633,37.952816,-27.51316,-5.754803,4.63583E+18,0.426506,-0.492836,0.494263,0.575247,-9.436323,-2.597347,0.038143,-0.099833,-0.019836,-0.331562,37.254586,26.866087,1.802978,4.63583E+18,-0.511064,-0.385866,-0.586627,0.495772,0
-8.884296,0.436773,3.556481,-0.833877,-0.037778,0.335744,45.111741,-14.153939,0.43983,4.63583E+18,0.788038,-0.126398,0.557549,0.228382,-9.431904,2.479263,0.021625,-0.158064,0.038707,-0.276559,37.917824,-27.334005,-5.885597,4.63583E+18,0.426742,-0.493783,0.4934,0.575001,-9.422807,-2.665138,0,-0.090335,-0.013657,-0.290498,37.095899,26.835797,1.728002,4.63583E+18,-0.510693,-0.384876,-0.587249,0.496187,0
-9.056631,0.710892,3.643728,-0.863,-0.041343,0.31256,45.02719,-14.240651,0.517734,4.63583E+18,0.78741,-0.128388,0.556758,0.231351,-9.510724,2.481366,0.049987,-0.222345,0.064973,-0.287189,37.897358,-27.318537,-5.715171,4.63583E+18,0.426822,-0.494923,0.492412,0.574808,-9.438939,-2.711352,0.027031,-0.08179,-0.01175,-0.250499,37.025055,26.996893,1.780756,4.63583E+18,-0.510386,-0.384006,-0.587792,0.496534,0
-9.115338,0.81161,3.650014,-0.895876,-0.043637,0.296977,44.87388,-14.404371,0.445753,4.63583E+18,0.782025,-0.141398,0.553243,0.249732,-9.612797,2.305481,0.147062,-0.2788,0.083172,-0.295103,37.940609,-27.334015,-5.622122,4.63583E+18,0.42677,-0.496219,0.491305,0.574676,-9.487765,-2.695223,0.069101,-0.076201,-0.014706,-0.212163,36.977755,27.147734,1.764847,4.63583E+18,-0.510155,-0.383236,-0.588256,0.496817,0
-9.164168,0.863134,3.604776,-0.943833,-0.036867,0.294887,45.00923,-14.563966,0.179351,4.63583E+18,0.781276,-0.143677,0.552317,0.252807,-9.641061,2.137352,0.213101,-0.320554,0.095023,-0.303211,37.975598,-27.248558,-5.817454,4.63583E+18,0.426623,-0.497635,0.490099,0.574592,-9.52308,-2.632883,0.065183,-0.077135,-0.020046,-0.179509,36.939602,27.226425,1.721244,4.63583E+18,-0.510006,-0.382532,-0.588658,0.497036,0
-9.246916,0.798877,3.522028,-1.006814,-0.024444,0.299756,45.247065,-14.733952,-0.09008,4.63583E+18,0.780441,-0.14616,0.551359,0.256031,-9.619433,2.005864,0.251358,-0.344675,0.11012,-0.307189,38.12102,-27.128126,-5.892816,4.63583E+18,0.426401,-0.499137,0.48885,0.574517,-9.554251,-2.525857,-0.005221,-0.084955,-0.026569,-0.152443,36.980141,27.29967,1.822589,4.63583E+18,-0.509941,-0.381865,-0.589019,0.497189,0
-9.309752,0.63517,3.346113,-1.053093,-0.010636,0.295202,45.185896,-14.667388,-0.109867,4.63583E+18,0.779537,-0.148816,0.550383,0.259333,-9.609441,1.901006,0.274126,-0.347292,0.115117,-0.306558,38.258003,-26.927264,-5.795168,4.63583E+18,0.426164,-0.50065,0.487606,0.574434,-9.557093,-2.438873,-0.062341,-0.101547,-0.034046,-0.131538,37.060135,27.339132,1.958399,4.63583E+18,-0.509963,-0.381198,-0.589365,0.497268,0
-9.370782,0.498205,3.276088,-1.078163,-0.000709,0.300745,45.032615,-14.819383,-0.279465,4.63583E+18,0.778573,-0.151549,0.549405,0.262699,-9.590023,1.763381,0.317392,-0.330198,0.109726,-0.30481,38.22303,-26.748071,-5.817417,4.63583E+18,0.426011,-0.502079,0.486431,0.574297,-9.51917,-2.336007,-0.107019,-0.123499,-0.039749,-0.116813,37.098297,27.2973,2.056053,4.63583E+18,-0.510064,-0.380509,-0.589721,0.49727,0
-9.443125,0.296086,3.260278,-1.10463,0.006925,0.29825,44.941758,-15.13727,-0.451268,4.63583E+18,0.777561,-0.154378,0.548409,0.266108,-9.582811,1.568058,0.312396,-0.297472,0.103367,-0.298351,38.242498,-26.732566,-6.012739,4.63583E+18,0.425866,-0.503466,0.485287,0.574158,-9.504115,-2.148989,-0.114017,-0.146522,-0.049932,-0.107541,37.057769,27.218602,2.099673,4.63583E+18,-0.510245,-0.379772,-0.590088,0.497212,0
-9.527676,0.145093,3.157619,-1.12243,-0.005384,0.300981,44.867611,-15.308579,-0.452575,4.63583E+18,0.776545,-0.157242,0.547344,0.269568,-9.602793,1.432699,0.320171,-0.26004,0.096229,-0.289176,38.373426,-26.713106,-6.128117,4.63583E+18,0.425799,-0.504742,0.484244,0.573967,-9.48931,-2.023834,-0.063897,-0.17238,-0.066065,-0.10586,36.984539,27.226402,2.153693,4.63583E+18,-0.510509,-0.378951,-0.590472,0.497111,0
-9.466151,0.043841,3.138205,-1.124681,-0.045977,0.304185,44.703935,-15.25246,-0.462979,4.63583E+18,0.775599,-0.160057,0.546135,0.273064,-9.636637,1.39386,0.366785,-0.221199,0.086471,-0.280193,38.446672,-26.512229,-6.088153,4.63583E+18,0.425813,-0.505906,0.483296,0.573732,-9.459444,-2.035767,-0.043373,-0.196603,-0.077246,-0.108587,36.904557,27.211878,2.197333,4.63583E+18,-0.510833,-0.378048,-0.590886,0.496974,0
-9.31379,-0.121629,3.171214,-1.098055,-0.044189,0.299477,44.691303,-15.326172,-0.723865,4.63583E+18,0.774655,-0.162795,0.544947,0.276477,-9.643848,1.354465,0.407839,-0.186634,0.078946,-0.269707,38.489944,-26.333031,-5.995497,4.63583E+18,0.425935,-0.506929,0.482478,0.573426,-9.462033,-2.063051,-0.042078,-0.216786,-0.086018,-0.108838,36.825851,27.261447,2.197333,4.63583E+18,-0.511209,-0.377084,-0.591323,0.4968,0
-9.166399,-0.213406,3.151318,-1.059324,-0.001265,0.286224,44.770429,-15.479444,-0.914205,4.63583E+18,0.773639,-0.165484,0.543922,0.279724,-9.658826,1.278459,0.420044,-0.153283,0.066955,-0.255775,38.589794,-26.282539,-5.979953,4.63583E+18,0.426065,-0.50788,0.4817,0.573142,-9.499949,-2.076553,-0.029871,-0.238966,-0.097881,-0.109064,36.786363,27.420141,2.143324,4.63583E+18,-0.511647,-0.376046,-0.591781,0.49659,0
-9.064917,-0.231063,3.126851,-1.035581,0.055668,0.267352,44.924037,-15.570501,-0.837128,4.63583E+18,0.772518,-0.168203,0.543085,0.282813,-9.660498,1.22074,0.457218,-0.120217,0.054816,-0.239557,38.828959,-26.212635,-6.030457,4.63583E+18,0.426259,-0.508702,0.481021,0.572839,-9.521774,-2.107717,-0.064918,-0.264713,-0.118377,-0.112973,36.780907,27.531574,2.153677,4.63583E+18,-0.512167,-0.374901,-0.592254,0.496356,0
-8.978583,-0.254601,3.113765,-1.020088,0.099471,0.246141,44.935452,-15.429357,-1.011383,4.63583E+18,0.771318,-0.170968,0.542382,0.285761,-9.611668,1.215747,0.475537,-0.093367,0.049572,-0.221981,38.96603,-26.041727,-6.070404,4.63583E+18,0.426476,-0.509429,0.480433,0.572524,-9.515024,-2.178092,-0.144913,-0.29437,-0.134449,-0.11536,36.787657,27.47656,2.29859,4.63583E+18,-0.512766,-0.373654,-0.592757,0.496078,0
-8.938452,-0.301675,3.158207,-0.994229,0.109482,0.231718,44.935452,-15.497259,-1.116061,4.63583E+18,0.770118,-0.173691,0.541723,0.288593,-9.602782,1.20354,0.424489,-0.075743,0.051513,-0.201057,38.866179,-25.945724,-6.168057,4.63583E+18,0.426675,-0.510089,0.479932,0.572209,-9.442071,-2.289244,-0.257357,-0.310467,-0.138972,-0.116541,36.752615,27.405621,2.434441,4.63583E+18,-0.513398,-0.372358,-0.593284,0.495768,0
-8.947149,-0.112577,3.161717,-0.960586,0.068382,0.226754,44.856141,-15.79798,-1.100421,4.63583E+18,0.769028,-0.176266,0.54096,0.291358,-9.661593,1.136422,0.432796,-0.065935,0.052534,-0.181637,38.686939,-25.95294,-6.190832,4.63583E+18,0.426893,-0.510655,0.479539,0.571871,-9.380744,-2.445057,-0.276898,-0.31308,-0.144652,-0.112772,36.760363,27.452863,2.424111,4.63583E+18,-0.514054,-0.371054,-0.593797,0.495452,0
-8.925369,0.072269,3.229689,-0.932356,0.008656,0.2205,44.634756,-15.900094,-1.098666,4.63583E+18,0.767735,-0.179336,0.539812,0.294999,-9.719857,0.989951,0.466108,-0.053461,0.047341,-0.164354,38.666375,-25.883073,-6.060476,4.63583E+18,0.427107,-0.511152,0.479203,0.571549,-9.375286,-2.486438,-0.122666,-0.302815,-0.150244,-0.100684,36.826858,27.578809,2.272459,4.63583E+18,-0.514731,-0.36979,-0.594258,0.495141,0
-8.78767,0.24405,3.17832,-0.895663,-0.014561,0.208144,44.45946,-15.758977,-1.279921,4.63583E+18,0.766876,-0.181637,0.538829,0.29761,-9.751488,0.893367,0.451674,-0.029627,0.034671,-0.144839,38.739617,-25.682232,-5.949996,4.63583E+18,0.42735,-0.511536,0.478942,0.571241,-9.368538,-2.440192,0.097053,-0.282522,-0.150496,-0.086911,36.854149,27.649769,2.137888,4.63583E+18,-0.515405,-0.368602,-0.594654,0.494851,0
-8.697824,0.290341,3.128611,-0.85134,-0.016022,0.200282,44.594424,-15.67958,-1.47524,4.63583E+18,0.766054,-0.18381,0.537884,0.300093,-9.770913,0.978755,0.436701,0.003294,0.015396,-0.120706,38.723028,-25.602772,-6.111936,4.63583E+18,0.427645,-0.511768,0.478777,0.570952,-9.383318,-2.469754,0.296519,-0.261049,-0.144228,-0.071734,36.773188,27.602541,2.207621,4.63583E+18,-0.51606,-0.36751,-0.594994,0.494571,0
-8.702998,0.202361,3.170404,-0.801527,-0.020978,0.200735,44.673814,-15.742268,-1.659209,4.63583E+18,0.765271,-0.185814,0.53698,0.302466,-9.738206,1.237862,0.310252,0.028303,-0.008344,-0.100265,38.671365,-25.796394,-6.330652,4.63583E+18,0.427991,-0.511858,0.478672,0.570699,-9.419941,-2.502518,0.472886,-0.233894,-0.132843,-0.059366,36.707661,27.604798,2.396195,4.63583E+18,-0.51667,-0.36653,-0.595284,0.494313,0
-8.805822,0.127357,3.151271,-0.767182,-0.037221,0.204776,44.611133,-15.758878,-1.76303,4.63583E+18,0.764538,-0.187678,0.536065,0.304785,-9.645543,1.483685,0.053914,0.025644,-0.031358,-0.086427,38.851612,-25.875867,-6.168757,4.63583E+18,0.42825,-0.51195,0.478465,0.570597,-9.46331,-2.381076,0.569573,-0.208822,-0.118845,-0.057905,36.707661,27.725269,2.532077,4.63583E+18,-0.517208,-0.365636,-0.59555,0.494091,0
-9.006303,0.110747,3.126856,-0.746954,-0.054311,0.212022,44.526564,-15.82772,-1.758746,4.63583E+18,0.763841,-0.189437,0.535121,0.307091,-9.565085,1.629104,-0.102648,0.002146,-0.038797,-0.075746,39.039276,-25.712189,-5.945005,4.63583E+18,0.428501,-0.512,0.478258,0.570537,-9.532375,-2.161355,0.619686,-0.187348,-0.105662,-0.062768,36.707661,27.755781,2.521793,4.63583E+18,-0.517671,-0.364803,-0.595807,0.493913,0
-9.236432,0.132515,3.113771,-0.740613,-0.070407,0.216525,44.520401,-15.991542,-1.757866,4.63583E+18,0.763173,-0.191144,0.534133,0.309408,-9.561675,1.652464,-0.104879,-0.021787,-0.03704,-0.067684,38.974438,-25.611132,-6.064707,4.63583E+18,0.42872,-0.512046,0.478052,0.570503,-9.570604,-2.083287,0.660483,-0.166689,-0.089782,-0.071059,36.619973,27.588107,2.376924,4.63583E+18,-0.518044,-0.364027,-0.596068,0.493779,0
-9.366452,0.009717,3.112888,-0.745181,-0.074538,0.208907,44.441132,-16.151118,-2.006995,4.63583E+18,0.762512,-0.192875,0.533114,0.311711,-9.649354,1.583691,-0.072726,-0.044171,-0.04229,-0.060357,38.945407,-25.611132,-6.19809,4.63583E+18,0.428884,-0.512105,0.4778,0.570539,-9.570604,-2.133396,0.671407,-0.149234,-0.073507,-0.07997,36.501752,27.519332,2.247779,4.63583E+18,-0.518332,-0.3633,-0.596342,0.493682,0
-9.38661,-0.011324,3.124212,-0.761421,-0.027209,0.196399,44.355679,-16.173925,-2.298206,4.63583E+18,0.761742,-0.194745,0.53221,0.313969,-9.687692,1.520939,0.028205,-0.06078,-0.042967,-0.050353,39.074183,-25.646039,-6.10043,4.63583E+18,0.428929,-0.512224,0.477471,0.570673,-9.530137,-2.187689,0.651173,-0.12849,-0.058441,-0.085086,36.416302,27.680257,2.202795,4.63583E+18,-0.51854,-0.362635,-0.596613,0.493624,0
-9.444113,0.044413,3.170391,-0.776529,0.019107,0.180608,44.281553,-16.095541,-2.500591,4.63583E+18,0.760869,-0.196756,0.531414,0.31617,-9.65554,1.488788,0.196865,-0.068798,-0.043117,-0.043749,39.124729,-25.696585,-6.082553,4.63583E+18,0.42896,-0.512327,0.477156,0.570821,-9.456892,-2.20954,0.560594,-0.100972,-0.044779,-0.090651,36.384808,27.78405,2.251289,4.63583E+18,-0.51866,-0.362045,-0.596866,0.493626,0
-9.44853,0.082798,3.219216,-0.781575,0.046209,0.173504,44.355509,-16.315811,-2.412821,4.63583E+18,0.759934,-0.198833,0.530687,0.318334,-9.60448,1.422773,0.369985,-0.065504,-0.04059,-0.037537,39.089836,-25.661692,-6.100447,4.63583E+18,0.428979,-0.512418,0.476866,0.570968,-9.410627,-2.236515,0.419578,-0.071656,-0.035981,-0.095177,36.437475,27.703125,2.348942,4.63583E+18,-0.518704,-0.361524,-0.597084,0.493697,0
-9.516465,0.062807,3.302013,-0.76207,0.015373,0.175021,44.508898,-16.559957,-2.393536,4.63583E+18,0.759074,-0.200802,0.529883,0.320482,-9.582811,1.339567,0.483816,-0.053275,-0.040154,-0.030496,39.004389,-25.646018,-6.082534,4.63583E+18,0.429008,-0.512472,0.476622,0.571101,-9.426673,-2.305572,0.320299,-0.048128,-0.031933,-0.097313,36.435262,27.637562,2.446596,4.63583E+18,-0.518698,-0.361058,-0.597266,0.493824,0
-9.56706,0.117643,3.319527,-0.755568,-0.045628,0.176167,44.746826,-16.656902,-2.483221,4.63583E+18,0.758344,-0.202664,0.528892,0.322668,-9.582811,1.251875,0.517695,-0.035509,-0.041702,-0.022779,38.923922,-25.696585,-6.25495,4.63583E+18,0.429056,-0.512479,0.476431,0.571218,-9.421557,-2.364051,0.19183,-0.048962,-0.032156,-0.09886,36.355275,27.630818,2.49031,4.63583E+18,-0.518691,-0.360586,-0.597451,0.493953,0
-9.446057,0.020172,3.218511,-0.752208,-0.089832,0.175254,44.5381,-16.436655,-2.67147,4.63583E+18,0.757709,-0.204457,0.527759,0.324877,-9.597763,1.228468,0.519935,-0.01783,-0.04399,-0.015346,38.945369,-25.661698,-6.500834,4.63583E+18,0.429123,-0.512438,0.476289,0.571323,-9.386216,-2.380444,0.035701,-0.067231,-0.041372,-0.097568,36.269827,27.67255,2.436372,4.63583E+18,-0.518736,-0.360058,-0.597653,0.494047,0
-9.232517,-0.134986,3.187902,-0.741078,-0.113734,0.18013,44.293949,-16.418957,-2.776209,4.63583E+18,0.757121,-0.206169,0.526565,0.327094,-9.634385,1.312184,0.512711,-0.007869,-0.038365,-0.010201,39.138951,-25.576246,-6.576543,4.63583E+18,0.429186,-0.512384,0.47619,0.571406,-9.361803,-2.40741,-0.010931,-0.072299,-0.046887,-0.092004,36.272022,27.710806,2.338718,4.63583E+18,-0.518813,-0.359522,-0.597845,0.494124,0
-9.035472,-0.282327,3.163493,-0.736265,-0.096541,0.181507,44.276253,-16.498197,-2.862527,4.63583E+18,0.756491,-0.207884,0.525429,0.329287,-9.675989,1.41656,0.487795,-0.005341,-0.031172,-0.005973,39.183761,-25.560562,-6.478888,4.63583E+18,0.429234,-0.512331,0.476121,0.571475,-9.344129,-2.503432,0.053933,-0.070609,-0.04711,-0.084527,36.3992,27.710806,2.348925,4.63583E+18,-0.518903,-0.359008,-0.598021,0.494189,0
-8.942024,-0.462793,3.105112,-0.723076,-0.062376,0.175642,44.117756,-16.583656,-3.038555,4.63583E+18,0.755798,-0.209616,0.524408,0.331401,-9.694922,1.487553,0.441711,-0.008392,-0.029472,-0.008392,38.974515,-25.611132,-6.460948,4.63583E+18,0.429277,-0.512293,0.476045,0.57154,-9.399368,-2.51634,0.138129,-0.076878,-0.052198,-0.074097,36.475719,27.751275,2.493825,4.63583E+18,-0.519037,-0.358496,-0.598184,0.494224,0
-8.89054,-0.679844,3.055401,-0.715135,-0.033073,0.168243,44.105347,-16.589861,-3.142409,4.63583E+18,0.755052,-0.211377,0.523479,0.333445,-9.670508,1.612854,0.427259,-0.01892,-0.030148,-0.015869,38.910468,-25.611132,-6.558605,4.63583E+18,0.429365,-0.512247,0.475969,0.571578,-9.489015,-2.40388,0.231632,-0.091807,-0.056725,-0.067771,36.428488,27.831282,2.575762,4.63583E+18,-0.519216,-0.357958,-0.598359,0.494213,0
-8.943581,-0.729777,3.051851,-0.707658,-0.011169,0.160767,44.184576,-16.669088,-3.058964,4.63583E+18,0.754269,-0.21316,0.522619,0.335427,-9.621184,1.741171,0.407332,-0.035182,-0.029865,-0.02291,38.988695,-25.57626,-6.536706,4.63583E+18,0.429377,-0.512293,0.475789,0.571678,-9.515027,-2.343822,0.247033,-0.111624,-0.060042,-0.064932,36.343037,27.909986,2.528529,4.63583E+18,-0.519439,-0.357378,-0.598563,0.494152,0
-9.095181,-0.675846,3.029212,-0.704142,-0.00169,0.147346,44.111562,-16.901703,-3.131088,4.63583E+18,0.752981,-0.215743,0.521458,0.338462,-9.555664,1.770074,0.358509,-0.052903,-0.026268,-0.031497,39.039276,-25.560542,-6.421094,4.63583E+18,0.429376,-0.512387,0.475565,0.571781,-9.502821,-2.343822,0.172506,-0.13664,-0.066085,-0.059479,36.264336,27.942745,2.436336,4.63583E+18,-0.519725,-0.356745,-0.598798,0.494025,0
-9.118042,-0.56953,3.050075,-0.702919,0.014779,0.126527,43.958192,-16.91946,-3.397655,4.63583E+18,0.752177,-0.217617,0.520644,0.340296,-9.558882,1.750154,0.30968,-0.069993,-0.022585,-0.041939,39.039276,-25.576272,-6.500773,4.63583E+18,0.429354,-0.512542,0.475284,0.571892,-9.483866,-2.343822,0.114041,-0.16548,-0.077695,-0.058973,36.184344,27.895517,2.392651,4.63583E+18,-0.520083,-0.356026,-0.599066,0.493842,0
-9.152881,-0.38047,3.108435,-0.706802,0.054641,0.116061,44.093771,-16.772341,-3.519925,4.63583E+18,0.751293,-0.219581,0.519936,0.342067,-9.614938,1.701325,0.310648,-0.084468,-0.015544,-0.049613,39.074134,-25.560538,-6.616413,4.63583E+18,0.429304,-0.512757,0.474964,0.572004,-9.479693,-2.323579,0.043679,-0.197864,-0.09324,-0.060294,36.193353,27.904527,2.493864,4.63583E+18,-0.520524,-0.355202,-0.599368,0.493603,0
-9.246097,-0.162497,3.056297,-0.723949,0.08739,0.108428,44.252484,-16.613629,-3.52794,4.63583E+18,0.750326,-0.22166,0.519294,0.343819,-9.648827,1.662457,0.349036,-0.089921,-0.011314,-0.056457,39.119749,-25.576283,-6.536757,4.63583E+18,0.429252,-0.513003,0.474625,0.572103,-9.47166,-2.347675,-0.047221,-0.230157,-0.108079,-0.065129,36.231571,28.023697,2.683697,4.63583E+18,-0.52104,-0.354265,-0.599712,0.493315,0
-9.309796,-0.044637,3.040534,-0.736165,0.094676,0.107883,44.116924,-16.749187,-3.607157,4.63583E+18,0.749326,-0.223786,0.518653,0.345585,-9.666014,1.657957,0.366701,-0.088656,-0.010246,-0.063498,39.112518,-25.426105,-6.426073,4.63583E+18,0.42922,-0.513262,0.474279,0.572182,-9.453993,-2.387188,-0.071963,-0.25298,-0.121374,-0.067069,36.191105,28.089235,2.77108,4.63583E+18,-0.521617,-0.353246,-0.600076,0.492993,0
-9.302933,0.065216,3.118851,-0.743953,0.100016,0.109863,44.105347,-16.919181,-3.703914,4.63583E+18,0.748298,-0.225938,0.518014,0.347367,-9.68047,1.652503,0.417778,-0.086914,-0.009178,-0.069036,39.147364,-25.281532,-6.473125,4.63583E+18,0.429202,-0.513531,0.473926,0.572247,-9.421548,-2.419633,-0.02731,-0.262399,-0.130061,-0.064567,36.246019,28.00829,2.717117,4.63583E+18,-0.522234,-0.352195,-0.600436,0.492653,0
-9.369941,0.084561,3.204311,-0.729646,0.095455,0.121902,44.173248,-16.852452,-3.620518,4.63583E+18,0.747269,-0.228011,0.517389,0.349156,-9.685448,1.563857,0.409603,-0.074802,-0.012465,-0.073308,39.197971,-25.415919,-6.525983,4.63583E+18,0.429226,-0.513779,0.473586,0.572287,-9.419934,-2.508925,0.033722,-0.266783,-0.13068,-0.060548,36.357492,27.942745,2.673421,4.63583E+18,-0.522866,-0.351142,-0.600797,0.492294,0
-9.420552,0.096769,3.244497,-0.708673,0.066349,0.13472,44.031476,-16.767,-3.522858,4.63583E+18,0.746297,-0.229946,0.516711,0.350964,-9.727517,1.43728,0.376176,-0.049562,-0.02382,-0.075838,39.13327,-25.645971,-6.518754,4.63583E+18,0.429335,-0.513958,0.473283,0.572295,-9.436323,-2.509603,0.135221,-0.271534,-0.132786,-0.054729,36.349806,27.942745,2.727373,4.63583E+18,-0.523521,-0.350089,-0.601154,0.491912,0
-9.458053,-0.004155,3.156668,-0.709094,0.020535,0.146543,43.940708,-16.760765,-3.696734,4.63583E+18,0.7454,-0.231788,0.515897,0.352851,-9.748266,1.4093,0.380682,-0.023531,-0.035964,-0.074967,39.004435,-25.626902,-6.483912,4.63583E+18,0.429522,-0.514059,0.473023,0.572279,-9.422835,-2.43892,0.296476,-0.275806,-0.135655,-0.054109,36.317024,27.942745,2.77108,4.63583E+18,-0.524189,-0.349021,-0.601512,0.491521,0
-9.381542,-0.215854,3.115569,-0.70727,-0.009638,0.159284,44.013641,-16.83996,-3.971265,4.63583E+18,0.744544,-0.233551,0.515,0.3548,-9.699909,1.437752,0.301529,-0.004824,-0.045141,-0.072396,39.018516,-25.490845,-6.353679,4.63583E+18,0.429803,-0.514065,0.472834,0.572219,-9.432135,-2.396839,0.445853,-0.286568,-0.133885,-0.057314,36.357479,27.942745,2.717142,4.63583E+18,-0.524861,-0.347926,-0.6019,0.491106,0
-9.194265,-0.435589,3.169457,-0.696224,0.00112,0.166162,44.019897,-17.00461,-3.991821,4.63583E+18,0.74366,-0.235279,0.514155,0.356734,-9.707608,1.416059,0.217479,0.008232,-0.05238,-0.070933,39.112518,-25.375534,-6.317606,4.63583E+18,0.430077,-0.514065,0.472625,0.572185,-9.44853,-2.279318,0.547695,-0.306718,-0.13481,-0.063467,36.262178,28.070838,2.82848,4.63583E+18,-0.525551,-0.346769,-0.602334,0.490653,0
-9.123405,-0.553486,3.241799,-0.685466,0.025892,0.165641,43.872833,-17.164181,-3.980509,4.63583E+18,0.742426,-0.23744,0.5132,0.359237,-9.694474,1.465811,0.261792,0.017526,-0.054673,-0.071566,39.077693,-25.211879,-6.512905,4.63583E+18,0.430423,-0.514007,0.472474,0.572103,-9.441788,-2.177105,0.532015,-0.331399,-0.137903,-0.069063,36.117873,28.255597,3.062072,4.63583E+18,-0.526272,-0.345538,-0.602819,0.490154,0
-9.039754,-0.652028,3.213236,-0.671817,0.037669,0.158635,43.861198,-17.175816,-4.149278,4.63583E+18,0.741486,-0.239158,0.512488,0.361053,-9.628926,1.548081,0.320107,0.0125,-0.052537,-0.074177,39.056913,-25.07581,-6.668413,4.63583E+18,0.43076,-0.513967,0.472309,0.572021,-9.42284,-2.234867,0.366949,-0.349364,-0.138859,-0.071088,36.172724,28.240277,3.041646,4.63583E+18,-0.527016,-0.344261,-0.60334,0.489613,0
-8.954303,-0.783619,3.199236,-0.649023,0.04835,0.148189,43.929065,-17.028775,-4.355009,4.63583E+18,0.740555,-0.240843,0.511829,0.362774,-9.592302,1.542648,0.346782,0.001661,-0.047353,-0.079281,39.169962,-24.990352,-6.766079,4.63583E+18,0.431075,-0.51397,0.472116,0.57194,-9.371462,-2.409589,0.241599,-0.340469,-0.131191,-0.073925,36.243782,28.1275,2.900263,4.63583E+18,-0.52772,-0.343011,-0.603862,0.489087,0
-8.834932,-0.804791,3.19834,-0.626516,0.072885,0.132561,44.013612,-17.01712,-4.279774,4.63583E+18,0.739613,-0.242526,0.51126,0.364372,-9.575579,1.488846,0.378887,-0.002136,-0.039481,-0.08205,39.306037,-24.939724,-6.938349,4.63583E+18,0.4313,-0.514064,0.471856,0.5719,-9.345404,-2.569926,0.206251,-0.308935,-0.118485,-0.075249,36.108964,28.04879,2.863273,4.63583E+18,-0.528344,-0.341853,-0.604348,0.488624,0
-8.724156,-0.850932,3.164407,-0.607052,0.142069,0.116537,44.019897,-17.096295,-4.272591,4.63583E+18,0.738562,-0.244288,0.510916,0.365806,-9.597732,1.412893,0.459813,-0.003007,-0.033706,-0.08201,39.287038,-24.939724,-7.025133,4.63583E+18,0.43153,-0.514156,0.471624,0.571836,-9.357611,-2.597631,0.208799,-0.280877,-0.112634,-0.073001,36.046814,28.015991,2.86874,4.63583E+18,-0.528917,-0.340774,-0.604786,0.488216,0
-8.670848,-0.911066,3.139098,-0.5809,0.237456,0.101506,43.94073,-17.181739,-4.351758,4.63583E+18,0.737354,-0.246144,0.510886,0.36704,-9.609488,1.310266,0.519945,-0.003837,-0.030778,-0.079241,39.185764,-25.044156,-6.75523,4.63583E+18,0.431798,-0.514204,0.471451,0.571732,-9.396775,-2.535326,0.246691,-0.275437,-0.115694,-0.067438,36.172697,28.056428,2.862,4.63583E+18,-0.5295,-0.339715,-0.605196,0.487813,0
-8.655949,-0.926863,3.046838,-0.55321,0.339593,0.080617,43.855287,-17.188025,-4.358043,4.63583E+18,0.735983,-0.248115,0.511187,0.368043,-9.604962,1.225269,0.492825,0.001581,-0.031609,-0.075365,39.255364,-25.196081,-6.605532,4.63583E+18,0.43202,-0.514273,0.471255,0.571665,-9.376938,-2.536216,0.261823,-0.274659,-0.114436,-0.060551,36.196604,28.136412,2.863272,4.63583E+18,-0.530092,-0.338678,-0.605598,0.487393,0
-8.632433,-0.950379,2.994412,-0.538302,0.45005,0.06717,43.781146,-17.255872,-4.177116,4.63583E+18,0.734408,-0.250236,0.511832,0.368856,-9.619433,1.171473,0.458911,0.017244,-0.033151,-0.068087,39.386491,-25.126493,-6.793601,4.63583E+18,0.432262,-0.514291,0.471112,0.571583,-9.325185,-2.597252,0.269834,-0.266592,-0.112267,-0.050604,36.03028,28.167947,2.86874,4.63583E+18,-0.530686,-0.337688,-0.605972,0.486966,0
-8.641942,-0.986101,3.024738,-0.523426,0.541349,0.045447,43.854902,-17.261269,-3.902642,4.63583E+18,0.732448,-0.252818,0.512594,0.369933,-9.624404,1.125347,0.451674,0.042521,-0.037187,-0.059106,39.395118,-24.955589,-6.874596,4.63583E+18,0.432541,-0.514238,0.471041,0.571479,-9.294035,-2.577426,0.368364,-0.262764,-0.112634,-0.040146,35.926388,28.122052,2.86874,4.63583E+18,-0.531297,-0.336733,-0.606323,0.486525,0
-8.744601,-0.977493,3.072662,-0.496602,0.612266,0.024008,43.861198,-17.182122,-3.791502,4.63583E+18,0.730623,-0.255149,0.513743,0.370347,-9.651521,1.071114,0.481494,0.07741,-0.043672,-0.046449,39.27985,-24.859243,-6.704659,4.63583E+18,0.432923,-0.51404,0.471114,0.571307,-9.284364,-2.505454,0.466416,-0.265122,-0.109797,-0.033959,36.013972,28.129659,2.969799,4.63583E+18,-0.531915,-0.335793,-0.606675,0.48606,0
-8.877079,-0.874834,3.121491,-0.459926,0.643112,0.000666,44.019491,-17.3228,-3.693843,4.63583E+18,0.728799,-0.257463,0.515013,0.370575,-9.705316,0.948616,0.56964,0.124083,-0.059532,-0.029795,39.220549,-24.931079,-6.530961,4.63583E+18,0.433396,-0.513687,0.471306,0.571108,-9.323516,-2.531995,0.501769,-0.268805,-0.105525,-0.027329,35.997509,28.202898,3.159635,4.63583E+18,-0.53254,-0.334871,-0.607034,0.485564,0
-9.056607,-0.810187,3.113787,-0.403738,0.602616,-0.022836,44.179105,-17.560669,-3.584865,4.63583E+18,0.727045,-0.259741,0.516141,0.370862,-9.751445,0.834644,0.689439,0.180929,-0.078522,-0.012035,39.305996,-25.089767,-6.684984,4.63583E+18,0.433927,-0.513198,0.471586,0.570912,-9.350871,-2.622918,0.485764,-0.267294,-0.095947,-0.018784,35.885967,28.195304,3.301062,4.63583E+18,-0.533154,-0.333992,-0.607399,0.485038,0
-9.160553,-0.794382,3.078968,-0.335181,0.524042,-0.041386,43.964668,-17.352529,-3.407171,4.63583E+18,0.725621,-0.26164,0.517157,0.370902,-9.731153,0.895095,0.744231,0.224458,-0.089091,0.006085,39.356667,-25.15407,-6.90939,4.63583E+18,0.434537,-0.512563,0.471996,0.57068,-9.350871,-2.66795,0.416726,-0.259006,-0.08383,-0.007291,35.940718,28.162479,3.290937,4.63583E+18,-0.533749,-0.333185,-0.607758,0.484489,0
-9.212986,-0.963078,3.121491,-0.270699,0.463639,-0.056576,43.799668,-17.108383,-3.224061,4.63583E+18,0.72446,-0.263221,0.518101,0.370734,-9.670537,1.174425,0.633528,0.231914,-0.084075,0.021038,39.3219,-25.110628,-6.755421,4.63583E+18,0.43512,-0.511894,0.472467,0.570447,-9.350871,-2.740771,0.284139,-0.241844,-0.073739,0.007182,36.058985,28.122069,3.294314,4.63583E+18,-0.534322,-0.332474,-0.608084,0.483937,0
-9.239199,-1.123559,3.1364,-0.196725,0.437541,-0.06955,43.867093,-17.07906,-3.131411,4.63583E+18,0.723454,-0.264564,0.519064,0.370395,-9.661024,1.461191,0.445436,0.20649,-0.064972,0.036428,39.276185,-25.209981,-6.565734,4.63583E+18,0.435578,-0.511282,0.472949,0.570247,-9.310465,-2.829167,0.146917,-0.204682,-0.063537,0.029207,36.137697,28.176781,3.440371,4.63583E+18,-0.534862,-0.331921,-0.608327,0.483415,0
-9.331444,-1.248338,3.205133,-0.123934,0.426902,-0.078411,44.099506,-17.157292,-2.944215,4.63583E+18,0.722562,-0.265691,0.520096,0.369882,-9.707995,1.537715,0.324633,0.160962,-0.03914,0.052883,39.313222,-25.354776,-6.656144,4.63583E+18,0.435847,-0.510783,0.473402,0.570113,-9.264156,-2.802651,0.198687,-0.163205,-0.051087,0.055212,36.130124,28.288342,3.52794,4.63583E+18,-0.535365,-0.331551,-0.608477,0.482922,0
-9.417789,-1.325184,3.199243,-0.054275,0.419268,-0.084977,44.19668,-17.163609,-2.760222,4.63583E+18,0.721651,-0.266779,0.521116,0.369442,-9.780818,1.422066,0.367046,0.112031,-0.017616,0.069103,39.356667,-25.290228,-6.714072,4.63583E+18,0.435929,-0.510393,0.47381,0.57006,-9.280145,-2.758873,0.428905,-0.134443,-0.036025,0.075652,36.09729,28.233642,3.52794,4.63583E+18,-0.53583,-0.331328,-0.608576,0.482436,0
-9.491937,-1.443642,3.266161,0.013176,0.42267,-0.088419,44.203007,-17.084484,-2.565809,4.63583E+18,0.720931,-0.267506,0.522332,0.368603,-9.777714,1.29626,0.444433,0.047919,0.01425,0.091446,39.32687,-25.260641,-6.674342,4.63583E+18,0.435758,-0.510151,0.474172,0.570106,-9.308773,-2.805993,0.643573,-0.108591,-0.015293,0.093918,36.104021,28.034582,3.474088,4.63583E+18,-0.536243,-0.33125,-0.608643,0.481945,0
-9.553877,-1.509199,3.282888,0.086404,0.442768,-0.089645,44.203007,-16.999033,-2.472223,4.63583E+18,0.720249,-0.268046,0.523717,0.367578,-9.67199,1.351295,0.456639,-0.033419,0.068524,0.12195,39.283424,-25.389535,-6.576688,4.63583E+18,0.435238,-0.510124,0.474506,0.570251,-9.347906,-2.803936,0.774088,-0.079052,0.00574,0.113144,36.062378,27.930538,3.329309,4.63583E+18,-0.5366,-0.33133,-0.608672,0.481456,0
-9.614907,-1.479812,3.272489,0.157131,0.448305,-0.088735,44.349934,-16.91359,-2.465895,4.63583E+18,0.71963,-0.268378,0.525226,0.366394,-9.565639,1.398069,0.548281,-0.071658,0.09322,0.132578,39.27846,-25.375687,-6.484,4.63583E+18,0.434563,-0.510201,0.474817,0.570437,-9.382017,-2.730697,0.811165,-0.048078,0.026253,0.130014,36.104815,28.018037,3.294284,4.63583E+18,-0.536895,-0.331563,-0.608661,0.480979,0
-9.664642,-1.465794,3.282886,0.222683,0.448622,-0.096568,44.293892,-17.054181,-2.104229,4.63583E+18,0.719092,-0.268531,0.526825,0.36504,-9.627902,1.238964,0.676372,-0.039164,0.070319,0.123236,39.241428,-25.281532,-6.473019,4.63583E+18,0.434024,-0.510185,0.475144,0.57059,-9.380763,-2.677646,0.738389,-0.01887,0.049272,0.142023,36.264755,28.048856,3.433571,4.63583E+18,-0.537116,-0.331937,-0.608627,0.480518,0
-9.713467,-1.510091,3.283792,0.290799,0.446644,-0.100168,44.29976,-16.91904,-1.905748,4.63583E+18,0.718636,-0.268483,0.528514,0.363527,-9.724337,1.237256,0.524763,-0.018336,0.052304,0.122004,39.133438,-25.380815,-6.605422,4.63583E+18,0.433565,-0.510092,0.475482,0.57074,-9.355096,-2.661214,0.535555,0.028335,0.067472,0.156347,36.341438,27.888122,3.522462,4.63583E+18,-0.537253,-0.332491,-0.608519,0.480118,0
-9.683187,-1.660644,3.272489,0.36609,0.441541,-0.110295,44.36848,-16.681214,-1.914751,4.63583E+18,0.718288,-0.268222,0.530288,0.361821,-9.642645,1.686756,-0.034596,-0.160557,0.075626,0.120865,39.074019,-25.525681,-6.63466,4.63583E+18,0.432761,-0.510314,0.475521,0.57112,-9.305017,-2.68813,0.327573,0.11137,0.085478,0.17686,36.341438,27.78405,3.420273,4.63583E+18,-0.537271,-0.333318,-0.608257,0.479858,0
-9.635263,-1.864549,3.260282,0.468631,0.4184,-0.122955,44.373913,-16.730917,-1.645313,4.63583E+18,0.718119,-0.267645,0.532129,0.359874,-9.305673,2.466953,-0.656645,-0.518291,0.15772,0.095148,39.154508,-25.490937,-6.558459,4.63583E+18,0.431096,-0.511423,0.474804,0.571983,-9.284355,-2.602387,0.364011,0.174789,0.10684,0.189281,36.38181,27.824421,3.278793,4.63583E+18,-0.53717,-0.334361,-0.607898,0.4797,0
-9.60904,-1.913842,3.281978,0.594063,0.375048,-0.11995,44.238301,-16.883259,-1.261962,4.63583E+18,0.718176,-0.266619,0.534028,0.357703,-9.086583,2.650673,-0.211656,-0.720398,0.193316,0.053667,39.23271,-25.405489,-6.775217,4.63583E+18,0.429022,-0.51306,0.473574,0.573095,-9.330205,-2.474354,0.485316,0.19484,0.123493,0.19061,36.461784,27.864022,3.342618,4.63583E+18,-0.537,-0.335486,-0.607534,0.479565,0
-9.69762,-1.837468,3.362886,0.716213,0.318326,-0.1137,44.374314,-16.736856,-1.153853,4.63583E+18,0.718478,-0.265126,0.53594,0.355339,-9.416931,1.387157,0.848836,-0.550727,0.130172,0.032376,39.248696,-25.354776,-7.00705,4.63583E+18,0.427481,-0.514284,0.472583,0.573966,-9.383261,-2.475119,0.465617,0.207506,0.132189,0.188953,36.54723,27.741676,3.477374,4.63583E+18,-0.536787,-0.336652,-0.607165,0.479454,0
-9.738779,-1.774622,3.403137,0.825116,0.255711,-0.109269,44.465202,-16.724142,-1.147496,4.63583E+18,0.719025,-0.263201,0.537823,0.352809,-9.770157,0.352509,0.941476,-0.346559,0.074195,0.020895,39.128519,-25.325011,-6.927675,4.63583E+18,0.426516,-0.515029,0.471957,0.574531,-9.433335,-2.455428,0.366716,0.234122,0.142239,0.18976,36.585587,27.590472,3.522459,4.63583E+18,-0.536511,-0.337899,-0.606764,0.479392,0
-9.662424,-1.611906,3.338079,0.91125,0.197633,-0.113894,44.471569,-16.803227,-0.876352,4.63583E+18,0.719793,-0.260939,0.539646,0.350131,-9.827681,0.786749,0.839635,-0.214316,0.041024,0.01709,38.997301,-25.246804,-6.85142,4.63583E+18,0.425954,-0.515428,0.47162,0.574866,-9.467465,-2.450701,0.256849,0.28232,0.157302,0.19061,36.62595,27.599199,3.420307,4.63583E+18,-0.53613,-0.339285,-0.606299,0.479428,0
-9.520484,-1.474896,3.264835,0.989703,0.14193,-0.126154,44.200426,-16.707916,-0.594672,4.63583E+18,0.720776,-0.258382,0.541393,0.347294,-9.464891,1.561842,0.614523,-0.184328,0.058151,0.003201,38.953823,-25.260565,-6.90939,4.63583E+18,0.425456,-0.515843,0.471356,0.57508,-9.439314,-2.478103,0.207526,0.352836,0.171557,0.194839,36.705917,27.597204,3.332621,4.63583E+18,-0.53562,-0.340868,-0.605716,0.479612,0
-9.351399,-1.4084,3.281972,1.057792,0.105169,-0.142926,44.110805,-16.552857,-0.404283,4.63583E+18,0.721926,-0.255601,0.5431,0.344286,-9.212402,1.933343,0.267789,-0.235864,0.088324,-0.031847,38.988546,-25.424221,-6.90939,4.63583E+18,0.42482,-0.516531,0.470899,0.575306,-9.364829,-2.437749,0.194075,0.465309,0.184963,0.213388,36.656852,27.60467,3.386426,4.63583E+18,-0.534952,-0.342774,-0.604911,0.480016,0
-9.169239,-1.313492,3.328971,1.114199,0.070916,-0.16199,44.026284,-16.541031,-0.300277,4.63583E+18,0.723226,-0.252639,0.544751,0.341122,-9.337143,1.745644,0.195318,-0.240933,0.091994,-0.062087,39.138471,-25.421527,-7.023464,4.63583E+18,0.424245,-0.517291,0.470377,0.575475,-9.286103,-2.47884,0.243641,0.593576,0.202968,0.235383,36.538509,27.630835,3.376476,4.63583E+18,-0.534095,-0.345056,-0.603854,0.480666,0
-9.042592,-1.238416,3.377805,1.167771,0.054524,-0.183195,44.166746,-16.461959,-0.213905,4.63583E+18,0.724631,-0.249533,0.546394,0.337782,-9.438992,1.54843,0.180442,-0.209024,0.070499,-0.087787,39.347889,-25.199901,-7.155449,4.63583E+18,0.42384,-0.517994,0.469835,0.575584,-9.340634,-2.444993,0.407299,0.659066,0.213738,0.242361,36.587559,27.585004,3.225025,4.63583E+18,-0.533126,-0.347519,-0.602675,0.481445,0
-8.909235,-1.119999,3.381451,1.212278,0.056372,-0.200602,44.336719,-16.297451,-0.038103,4.63583E+18,0.726085,-0.246329,0.548072,0.334276,-9.376437,1.713223,0.223161,-0.201512,0.064088,-0.113323,39.372696,-25.138092,-6.871643,4.63583E+18,0.423531,-0.518713,0.469249,0.575642,-9.438804,-2.361512,0.500504,0.667484,0.214109,0.237283,36.746245,27.431075,3.036441,4.63583E+18,-0.53213,-0.349987,-0.601482,0.482252,0
-8.876608,-1.03181,3.370156,1.242236,0.068471,-0.211763,44.202664,-16.205613,0.404785,4.63583E+18,0.727536,-0.243069,0.549801,0.330647,-9.248253,1.984063,0.3521,-0.207221,0.096531,-0.126308,39.206759,-25.230789,-6.565668,4.63583E+18,0.423184,-0.519538,0.468686,0.575611,-9.433841,-2.396374,0.466883,0.671231,0.218336,0.235689,36.817528,27.285307,2.900399,4.63583E+18,-0.531108,-0.352464,-0.600288,0.483061,0
-8.874783,-0.980243,3.380538,1.269099,0.090184,-0.221456,44.1908,-16.278287,0.620182,4.63583E+18,0.728957,-0.239772,0.551606,0.326896,-9.369896,2.061935,0.462333,-0.208522,0.120365,-0.137889,39.112518,-25.212129,-6.814708,4.63583E+18,0.422849,-0.520418,0.468165,0.575487,-9.43208,-2.415825,0.385674,0.678011,0.224528,0.237717,36.810804,27.293993,2.701878,4.63583E+18,-0.530061,-0.354971,-0.599085,0.483868,0
-8.976423,-0.920125,3.404037,1.287895,0.126447,-0.227116,44.269855,-16.284676,0.544438,4.63583E+18,0.730299,-0.236473,0.553525,0.323037,-9.617878,1.794567,0.633599,-0.203919,0.143559,-0.148706,39.176958,-25.041233,-7.104709,4.63583E+18,0.422505,-0.521365,0.467673,0.575283,-9.4687,-2.391412,0.314914,0.690411,0.227036,0.241727,36.886,27.372716,2.521976,4.63583E+18,-0.528992,-0.357516,-0.597852,0.484689,0
-9.131444,-0.870388,3.360698,1.300123,0.148019,-0.232456,44.355294,-16.126588,0.79684,4.63583E+18,0.731588,-0.233171,0.555502,0.319104,-9.734632,1.463394,0.791563,-0.169676,0.170568,-0.150175,39.335667,-24.90502,-7.025386,4.63583E+18,0.422134,-0.522361,0.467259,0.574988,-9.47843,-2.34683,0.225751,0.717392,0.231045,0.249312,37.039203,27.412343,2.525161,4.63583E+18,-0.527882,-0.360145,-0.596555,0.485549,0
-9.324035,-0.674742,3.255397,1.304957,0.142624,-0.234833,44.282652,-15.808856,1.066346,4.63583E+18,0.732874,-0.229845,0.557449,0.315146,-9.77813,1.283677,0.852231,-0.113553,0.185959,-0.144766,39.429913,-24.854273,-6.90939,4.63583E+18,0.42185,-0.523276,0.467026,0.574553,-9.472945,-2.312685,0.076798,0.752159,0.233336,0.260209,37.157558,27.330444,2.50978,4.63583E+18,-0.526731,-0.362879,-0.59517,0.486463,0
-9.519335,-0.557572,3.066499,1.294408,0.109458,-0.23104,44.355294,-15.626086,1.075167,4.63583E+18,0.734199,-0.226491,0.559267,0.311247,-9.763249,1.203186,0.817123,-0.056606,0.195037,-0.129545,39.464635,-24.888995,-6.90939,4.63583E+18,0.421636,-0.524084,0.466977,0.574013,-9.432618,-2.401296,-0.013442,0.805049,0.235797,0.278319,37.148908,27.171757,2.418847,4.63583E+18,-0.525523,-0.365774,-0.593649,0.487458,0
-9.680776,-0.481582,3.017975,1.282659,0.070258,-0.227756,44.587538,-15.613269,1.333963,4.63583E+18,0.735577,-0.223107,0.560935,0.307412,-9.845662,1.244018,0.665296,0.013488,0.188327,-0.108383,39.510406,-24.905006,-6.869713,4.63583E+18,0.421537,-0.52471,0.46713,0.573389,-9.359373,-2.558757,0.036076,0.870578,0.238197,0.301926,37.110504,27.147483,2.434213,4.63583E+18,-0.524251,-0.36887,-0.591956,0.488553,0
-9.884639,-0.261544,2.970061,1.28573,0.01394,-0.213683,44.684894,-15.534226,1.705068,4.63583E+18,0.737049,-0.219601,0.562429,0.303657,-9.854057,1.357311,0.554292,0.045764,0.188995,-0.089858,39.468446,-24.755096,-6.81669,4.63583E+18,0.421463,-0.525246,0.467399,0.572733,-9.333176,-2.617871,0.092172,0.919374,0.235257,0.32414,37.197871,27.098522,2.370577,4.63583E+18,-0.522947,-0.372117,-0.590114,0.489716,0
-10.103456,-0.074771,2.966399,1.274194,-0.07437,-0.204657,44.465467,-15.222938,1.812494,4.63583E+18,0.738684,-0.215991,0.563629,0.300028,-9.495083,1.372567,0.516911,-0.00437,0.201646,-0.085285,39.417706,-24.610125,-6.784268,4.63583E+18,0.421286,-0.525855,0.467621,0.572123,-9.358825,-2.572061,0.030454,0.947458,0.232856,0.341495,37.316245,26.859178,2.128213,4.63583E+18,-0.521632,-0.375456,-0.588172,0.490905,0
-10.187672,-0.049748,3.192181,1.240635,-0.145386,-0.208955,44.300398,-15.051459,1.807614,4.63583E+18,0.740438,-0.2124,0.564547,0.296519,-9.247877,1.450767,0.312843,-0.088316,0.197574,-0.082349,39.48712,-24.674582,-6.646947,4.63583E+18,0.420926,-0.526596,0.467642,0.57169,-9.395447,-2.505538,0.002467,0.954708,0.23168,0.355861,37.347932,26.681684,1.901209,4.63583E+18,-0.520328,-0.378836,-0.586179,0.492073,0
-10.204472,-0.04883,3.470222,1.206371,-0.219762,-0.218248,44.356199,-15.186294,1.817986,4.63583E+18,0.742328,-0.208837,0.565169,0.29312,-9.199425,1.298282,0.283354,-0.150803,0.210017,-0.056386,39.553911,-24.773778,-6.570615,4.63583E+18,0.420296,-0.527462,0.46755,0.57143,-9.532848,-2.390757,0.010977,0.923393,0.223077,0.363866,37.342445,26.648762,1.765152,4.63583E+18,-0.519101,-0.382145,-0.584209,0.493152,0
-10.137647,-0.06012,3.784866,1.183057,-0.292557,-0.237741,44.666543,-15.119185,1.897936,4.63583E+18,0.744373,-0.205298,0.565504,0.289771,-9.459826,0.58466,0.621386,-0.168101,0.225483,-0.022905,39.567593,-24.676942,-6.668272,4.63583E+18,0.41952,-0.528328,0.467517,0.571227,-9.75257,-2.198478,0.094055,0.86117,0.205077,0.368834,37.429784,26.648762,1.721244,4.63583E+18,-0.518019,-0.385287,-0.582311,0.49409,0
-10.053122,-0.173927,4.079646,1.190262,-0.370122,-0.269887,44.691303,-14.740228,1.972089,4.63583E+18,0.746623,-0.201712,0.565563,0.286364,-9.891029,-0.004588,0.650473,-0.155587,0.223372,0.013976,39.726292,-24.489976,-6.646971,4.63583E+18,0.418687,-0.529095,0.467591,0.571068,-9.864811,-2.025773,0.217931,0.81114,0.19018,0.383472,37.628789,26.608452,1.560006,4.63583E+18,-0.517076,-0.388321,-0.580451,0.49489,0
-9.888649,-0.262133,4.203287,1.21963,-0.443157,-0.300035,44.691303,-14.551877,2.056622,4.63583E+18,0.749084,-0.198013,0.565387,0.282846,-9.854871,0.282122,0.448284,-0.134057,0.239096,0.065476,39.756123,-24.543296,-6.412019,4.63583E+18,0.417751,-0.529758,0.467859,0.570919,-9.788473,-1.998975,0.242922,0.808112,0.19291,0.414824,37.813683,26.575518,1.3208,4.63583E+18,-0.516188,-0.391424,-0.578545,0.495604,0
-9.954811,-0.404029,4.459909,1.275301,-0.532583,-0.331919,44.984816,-14.843817,2.07434,4.63583E+18,0.751813,-0.194103,0.564952,0.279162,-9.78152,0.758318,0.403574,-0.142552,0.243971,0.110644,39.532999,-24.76496,-6.242939,4.63583E+18,0.416684,-0.530355,0.468218,0.57085,-9.670086,-2.207742,0.178218,0.846993,0.202201,0.454341,37.879574,26.447926,1.132218,4.63583E+18,-0.515287,-0.39472,-0.576504,0.496304,0
-10.164416,-0.573077,4.401104,1.317172,-0.640156,-0.354083,44.861957,-14.563854,1.973671,4.63583E+18,0.754826,-0.18998,0.564188,0.275386,-9.940209,0.903348,0.540508,-0.198019,0.249809,0.14679,39.34446,-24.831793,-6.289833,4.63583E+18,0.415432,-0.530961,0.468568,0.570912,-9.624926,-2.376175,0.127566,0.91931,0.210373,0.504439,37.886289,26.135402,1.002829,4.63583E+18,-0.514343,-0.398301,-0.57424,0.497047,0
-10.564747,-1.116464,4.304366,1.339984,-0.710588,-0.402113,43.935717,-13.105515,1.908955,4.63583E+18,0.758046,-0.18581,0.563166,0.27145,-9.975032,0.754714,0.664512,-0.240999,0.263493,0.187811,39.408869,-24.746348,-6.342895,4.63583E+18,0.41396,-0.531592,0.468929,0.571097,-9.619433,-2.486654,0.182505,1.035574,0.234086,0.575521,37.979069,25.837571,0.856953,4.63583E+18,-0.513284,-0.402342,-0.571655,0.497866,0
-10.629889,-1.487038,3.969671,1.371223,-0.835165,-0.45034,43.488714,-12.458169,1.802768,4.63583E+18,0.761601,-0.181505,0.561722,0.267373,-9.85332,0.368695,0.886368,-0.217963,0.265009,0.223831,39.503159,-24.730254,-6.221704,4.63583E+18,0.41245,-0.532115,0.469426,0.571295,-9.498584,-2.872392,0.245368,1.209086,0.296944,0.67197,38.171326,25.780203,0.661645,4.63583E+18,-0.51197,-0.407102,-0.568666,0.498772,0
-10.756795,-1.10742,3.897847,1.377588,-0.968346,-0.513215,43.751794,-12.798655,1.455906,4.63583E+18,0.765503,-0.177169,0.559785,0.263167,-9.881793,0.245899,1.281227,-0.157981,0.247285,0.245967,39.503159,-24.815699,-6.054872,4.63583E+18,0.411053,-0.532449,0.470083,0.571451,-9.285565,-3.326511,0.397346,1.366319,0.401194,0.781508,38.397774,25.778375,0.520037,4.63583E+18,-0.51035,-0.412658,-0.565364,0.49962,0
-10.744358,-0.713101,3.634585,1.279159,-1.069275,-0.575328,43.392024,-12.310827,1.05583,4.63583E+18,0.769593,-0.17317,0.557341,0.259054,-9.928522,0.764062,1.487002,-0.12584,0.251864,0.252919,39.468487,-24.896198,-6.015248,4.63583E+18,0.409659,-0.532758,0.470799,0.571575,-9.279444,-3.51817,0.834937,1.477026,0.531392,0.903856,38.549141,25.490317,0.375393,4.63583E+18,-0.508461,-0.418988,-0.56187,0.500219,0
-10.810231,-0.017743,3.410244,1.137781,-1.099406,-0.676781,43.349409,-11.96372,0.833561,4.63583E+18,0.773719,-0.169819,0.554544,0.254952,-9.732853,1.495106,1.347968,-0.150946,0.295982,0.235413,39.387987,-25.009066,-5.957213,4.63583E+18,0.408205,-0.533213,0.471529,0.571588,-9.391145,-3.412612,1.347025,1.54491,0.677879,1.047458,38.634588,24.979475,0.138593,4.63583E+18,-0.506378,-0.426077,-0.558259,0.500386,0
-10.680344,0.442868,3.551643,0.964962,-1.12792,-0.751826,44.623647,-12.852893,0.569635,4.63583E+18,0.777829,-0.167159,0.55139,0.251014,-9.590067,1.981985,0.880414,-0.200591,0.34849,0.186995,39.413794,-25.145295,-5.99188,4.63583E+18,0.406613,-0.534004,0.472084,0.571527,-9.417403,-3.032998,1.476504,1.557414,0.86234,1.207251,38.807302,24.564389,-0.028067,4.63583E+18,-0.50414,-0.433918,-0.554687,0.49988,0
-10.296882,0.701778,3.824105,0.846069,-1.058021,-0.818535,45.39371,-13.390304,0.120523,4.63583E+18,0.781729,-0.165103,0.548266,0.247073,-9.538248,2.402992,0.341712,-0.223041,0.395686,0.123112,39.515366,-25.196081,-6.042665,4.63583E+18,0.405026,-0.535071,0.472519,0.571296,-9.344784,-2.733867,1.006603,1.547801,1.062781,1.366941,39.091723,24.346465,-0.020763,4.63583E+18,-0.501746,-0.442487,-0.551219,0.498612,0
-9.973065,0.505857,3.856615,0.783128,-0.975118,-0.873893,45.2902,-12.830137,-0.365873,4.63583E+18,0.78542,-0.163457,0.545284,0.243029,-9.492751,2.890603,-0.015883,-0.215646,0.43945,0.04929,39.411384,-25.16142,-5.92878,4.63583E+18,0.403544,-0.536373,0.472879,0.570826,-9.719375,-2.62644,1.302296,1.494143,1.19161,1.494798,39.422517,23.944946,0.112881,4.63583E+18,-0.499371,-0.451463,-0.547843,0.496667,0
-9.396298,0.116046,3.89138,0.74216,-0.904653,-0.879005,45.423903,-12.39762,-0.59461,4.63583E+18,0.788896,-0.16202,0.542467,0.239003,-9.581186,3.275929,-0.200949,-0.188652,0.482637,-0.039825,39.293666,-25.145285,-5.643072,4.63583E+18,0.402289,-0.537871,0.473213,0.570024,-10.359678,-2.836274,2.020231,1.585283,1.310791,1.653387,39.764307,23.327897,0.302693,4.63583E+18,-0.496825,-0.461188,-0.544167,0.49432,0
-8.933507,-0.478553,3.228636,0.688821,-0.862861,-0.825787,45.582595,-12.140497,-0.711891,4.63583E+18,0.79216,-0.160675,0.539749,0.235236,-9.717764,3.404859,-0.320371,-0.155572,0.526167,-0.131881,39.473162,-25.196081,-5.468917,4.63583E+18,0.401203,-0.539626,0.473456,0.568929,-10.555761,-3.576517,1.520744,1.899124,1.427023,1.807704,40.186646,22.712032,0.437613,4.63583E+18,-0.493663,-0.472088,-0.539714,0.492076,0
-8.402813,-1.111553,2.542164,0.57906,-0.816425,-0.714796,45.583369,-11.828634,-0.833051,4.63583E+18,0.795114,-0.159482,0.537135,0.232045,-9.923973,2.939638,-0.492267,-0.103145,0.5408,-0.229166,39.69155,-25.057496,-5.508513,4.63583E+18,0.40043,-0.54152,0.473621,0.567534,-10.469101,-4.338321,0.480044,2.31688,1.455517,1.902506,40.540708,22.141963,0.321756,4.63583E+18,-0.489724,-0.484038,-0.534184,0.490434,0
-7.583737,-1.768834,2.546711,0.506235,-0.739821,-0.596487,45.729085,-11.578955,-1.022794,4.63583E+18,0.797714,-0.158337,0.53477,0.229352,-10.164464,2.263696,-0.728463,0.012163,0.494967,-0.322975,39.67078,-24.789957,-5.531944,4.63583E+18,0.400223,-0.5433,0.473763,0.565858,-10.284224,-5.306684,0.878379,2.799691,1.423857,1.929401,40.784843,21.557899,0.094677,4.63583E+18,-0.484832,-0.496865,-0.527434,0.489772,0
-6.673754,-1.909144,2.731829,0.533533,-0.606494,-0.473975,45.515536,-10.951286,-1.16171,4.63583E+18,0.799904,-0.156952,0.532945,0.226913,-10.031954,2.093045,-0.958706,0.157019,0.41642,-0.389516,39.606079,-24.660953,-5.362414,4.63583E+18,0.400698,-0.544743,0.474005,0.563928,-10.188893,-6.051685,2.671895,3.221911,1.259624,1.78648,41.122896,20.989032,0.065877,4.63583E+18,-0.479015,-0.509773,-0.519655,0.490545,0
-5.893645,-1.871447,2.566206,0.643781,-0.352265,-0.330427,44.741317,-10.077863,-1.284698,4.63583E+18,0.801454,-0.155118,0.532158,0.224539,-9.61783,2.133341,-1.335487,0.277037,0.354805,-0.447025,39.748589,-24.610125,-5.108992,4.63583E+18,0.4017,-0.545951,0.474292,0.561802,-8.763171,-6.491013,4.392727,3.682967,1.184216,1.695399,41.531216,20.497682,0.056203,4.63583E+18,-0.47206,-0.523104,-0.510829,0.492519,0
-5.41788,-1.845178,2.16792,0.651652,-0.08353,-0.227607,44.904642,-10.235616,-1.463144,4.63583E+18,0.802309,-0.15328,0.532336,0.222315,-9.436323,2.134617,-1.680629,0.397816,0.308242,-0.508109,39.987779,-24.54582,-4.879058,4.63583E+18,0.403169,-0.546998,0.474603,0.559464,-6.795962,-3.901006,0.694878,4.26828,0.999132,1.672915,41.752945,19.946596,-0.235988,4.63583E+18,-0.464015,-0.536978,-0.500311,0.496017,0
-5.259401,-1.89971,1.425749,0.60124,-0.037362,-0.139115,45.442054,-10.705359,-1.544767,4.63583E+18,0.80294,-0.151456,0.532674,0.220468,-9.520399,2.290987,-1.604237,0.512542,0.271835,-0.569652,40.155409,-24.347571,-4.637873,4.63583E+18,0.405111,-0.547884,0.474974,0.556874,-6.850079,3.630022,5.414637,3.493869,0.268883,1.090183,41.913379,19.417961,-0.747997,4.63583E+18,-0.457878,-0.546468,-0.491132,0.50051,0
-5.373248,-2.152485,0.724347,0.643478,-0.268153,-0.091001,44.887017,-10.065797,-1.493947,4.63583E+18,0.80406,-0.14917,0.532305,0.218831,-9.807036,2.377816,-1.080726,0.605263,0.261088,-0.637199,40.228649,-24.130788,-4.489386,4.63583E+18,0.407436,-0.548715,0.475381,0.554004,-6.375883,12.478748,5.641713,2.091454,0.057838,0.462119,42.098361,19.127267,-1.208909,4.63583E+18,-0.453986,-0.551471,-0.485828,0.503734,0
-5.23686,-2.894663,0.41203,0.825901,-0.545863,-0.090548,44.612246,-9.626644,-1.50058,4.63583E+18,0.805898,-0.146016,0.531164,0.216962,-9.883534,2.524131,-0.374449,0.672432,0.280475,-0.7068,40.272224,-24.001768,-4.391734,4.63583E+18,0.410029,-0.549609,0.475806,0.550831,-3.720397,20.065273,-12.948797,1.858821,0.440828,0.443993,42.157665,19.102702,-1.587339,4.63583E+18,-0.449782,-0.556762,-0.481743,0.505605,0
-5.044355,-3.720947,0.751463,1.053745,-0.689529,-0.16183,45.19126,-10.057328,-1.670648,4.63583E+18,0.808238,-0.142122,0.529691,0.214431,-9.505411,2.677141,0.330036,0.6418,0.332339,-0.772822,40.366164,-23.881707,-4.219912,4.63583E+18,0.412592,-0.550794,0.476089,0.547478,-1.763292,12.911754,-27.133285,1.470616,0.725925,0.38541,42.199109,19.054023,-1.757866,4.63583E+18,-0.445756,-0.561776,-0.479119,0.506116,0
-4.770109,-4.088739,0.758722,1.226252,-0.580255,-0.30484,45.22936,-9.870009,-1.865033,4.63583E+18,0.81054,-0.138055,0.528638,0.210967,-9.356427,2.202935,0.473639,0.522776,0.390494,-0.822811,40.632714,-23.710803,-3.934197,4.63583E+18,0.414875,-0.552405,0.476078,0.54413,-5.437603,-5.677848,-20.797468,0.266468,0.385946,-0.16099,42.244321,18.855104,-1.603634,4.63583E+18,-0.444064,-0.562732,-0.479669,0.506021,0
-4.624647,-4.36196,0.959822,1.396911,-0.28427,-0.50363,44.698472,-9.321416,-2.071627,4.63583E+18,0.812433,-0.134105,0.5286,0.206277,-9.639011,1.427251,-0.039351,0.434118,0.406452,-0.825316,40.95009,-23.510245,-3.680783,4.63583E+18,0.416921,-0.554198,0.475879,0.540907,-12.143064,-8.523855,-2.286044,-0.741135,-0.274601,-0.278123,42.209593,18.790802,-1.423455,4.63583E+18,-0.445804,-0.560192,-0.481392,0.505673,0
-5.155632,-4.438836,2.047783,1.618133,0.012667,-0.688819,44.587027,-9.356556,-1.99726,4.63583E+18,0.813916,-0.130062,0.529628,0.200298,-10.277875,0.607911,-0.440363,0.40648,0.380713,-0.774218,41.134008,-23.196917,-3.455822,4.63583E+18,0.418833,-0.555871,0.475683,0.537877,-14.40242,2.300376,5.506803,-1.000791,-0.466158,0.062841,42.176579,18.870746,-1.433071,4.63583E+18,-0.449244,-0.557441,-0.482503,0.504609,0
-6.215167,-3.169341,2.373085,1.783328,0.105299,-0.825183,44.80695,-9.058635,-1.741741,4.63583E+18,0.815347,-0.125828,0.531001,0.193429,-11.041102,-0.239872,-0.583932,0.393,0.339665,-0.680293,41.121799,-22.781866,-3.182316,4.63583E+18,0.42058,-0.55728,0.475597,0.535125,-13.500263,3.016805,2.162797,-0.773908,-0.276599,0.117072,42.169874,18.909267,-1.530731,4.63583E+18,-0.451882,-0.555613,-0.483358,0.50345,0
-7.246065,-1.14742,1.998049,1.855733,0.024275,-0.899414,44.81431,-8.278098,-1.585952,4.63583E+18,0.816996,-0.121438,0.53208,0.186176,-11.297634,-0.654849,-0.728686,0.370492,0.300859,-0.563157,41.208433,-22.470619,-2.975691,4.63583E+18,0.422124,-0.55837,0.475699,0.532677,-12.642654,-3.293973,1.071873,-0.45753,-0.069926,-0.001254,42.124145,18.862338,-1.521121,4.63583E+18,-0.45312,-0.554571,-0.484208,0.502668,0
-8.203832,0.352834,2.044312,1.947525,-0.009545,-0.956019,44.587893,-7.832259,-1.495835,4.63583E+18,0.818745,-0.116825,0.533043,0.17853,-10.644258,-0.562116,-1.133554,0.310346,0.29603,-0.43799,41.410711,-22.341582,-2.798979,4.63583E+18,0.423222,-0.559333,0.47591,0.530603,-12.322063,-2.822512,1.8553,-0.206707,0.021805,-0.02999,42.097828,18.7836,-1.369851,4.63583E+18,-0.453531,-0.554136,-0.484772,0.502234,0
-9.313848,2.008451,2.535636,2.003049,0.107616,-1.047077,44.569229,-7.800531,-1.32019,4.63583E+18,0.820258,-0.112301,0.534356,0.170378,-9.635117,0.045936,-1.69887,0.19374,0.329804,-0.321435,41.470583,-22.256129,-2.550473,4.63583E+18,0.423721,-0.560343,0.476191,0.528884,-11.950567,0.279099,1.053902,-0.137917,0.053491,-0.008399,42.190462,18.750572,-1.234862,4.63583E+18,-0.453763,-0.553941,-0.485203,0.501823,0
-10.662263,4.007594,2.564489,1.922221,0.228957,-1.135145,44.805959,-7.642711,-0.968006,4.63583E+18,0.821452,-0.108325,0.535937,0.162032,-9.120972,0.805646,-1.854383,0.04452,0.368279,-0.232989,41.41972,-22.205267,-2.40196,4.63583E+18,0.4236,-0.561523,0.476416,0.527525,-11.414879,0.131645,0.077313,-0.207765,0.036526,-0.006828,42.349159,18.750572,-1.142708,4.63583E+18,-0.454194,-0.553581,-0.485743,0.501307,0
-13.257912,5.571652,2.901697,1.750485,0.358519,-1.207929,45.118643,-7.325299,-0.872342,4.63583E+18,0.822257,-0.105178,0.537766,0.153749,-9.168879,1.031851,-1.802876,-0.170954,0.415551,-0.185964,41.454293,-22.170694,-2.30431,4.63583E+18,0.422776,-0.563091,0.476359,0.526564,-10.900056,-0.314316,0.392733,-0.105491,0.036168,-0.003645,42.33361,18.837689,-1.205888,4.63583E+18,-0.454396,-0.553421,-0.486062,0.500993,0
-15.313259,6.703067,2.726893,1.505042,0.337938,-1.258783,45.289505,-6.916803,-0.799098,4.63583E+18,0.822971,-0.102963,0.539304,0.145839,-9.363647,1.03905,-1.901459,-0.482258,0.458131,-0.174565,41.534811,-22.090175,-2.172065,4.63583E+18,0.421112,-0.565275,0.475719,0.526138,-10.413938,0.186858,1.127282,0.186722,0.096098,0.003309,42.128034,18.989665,-1.340884,4.63583E+18,-0.453817,-0.553952,-0.485868,0.501118,0
-17.416481,6.742237,3.070682,1.215597,0.285106,-1.292134,45.234053,-6.434178,-0.365223,4.63583E+18,0.823647,-0.101777,0.540436,0.138478,-9.495586,0.963932,-1.512431,-0.727667,0.488542,-0.161096,41.608047,-22.012,-2.063051,4.63583E+18,0.418776,-0.567921,0.474622,0.526142,-10.193926,-0.239088,0.875805,0.344334,0.142038,-0.003934,42.017883,19.055756,-1.379437,4.63583E+18,-0.452764,-0.554863,-0.485449,0.501469,0
-18.88612,6.524334,2.965426,1.003765,0.189204,-1.253174,45.363685,-5.788035,-0.194346,4.63583E+18,0.824384,-0.101169,0.541104,0.131762,-9.76056,0.220583,-0.847673,-0.768192,0.512279,-0.114485,41.651661,-21.926557,-2.176613,4.63583E+18,0.416188,-0.570592,0.473578,0.526248,-10.063962,-0.843949,-0.412523,0.28866,0.139367,-0.011854,42.064776,18.968667,-1.225355,4.63583E+18,-0.451828,-0.555646,-0.485158,0.501728,0
-19.141229,5.221772,2.165295,0.86773,-0.118196,-1.224094,45.453807,-5.286681,-0.284541,4.63583E+18,0.825706,-0.100789,0.540631,0.125576,-10.13586,-0.445789,-0.472374,-0.650601,0.480531,-0.063007,41.587461,-21.841099,-2.309253,4.63583E+18,0.413857,-0.572851,0.472888,0.526252,-10.058156,-0.346123,-1.270464,0.150895,0.091144,-0.009301,42.150228,18.903759,-1.045073,4.63583E+18,-0.451314,-0.556073,-0.485058,0.501814,0
-18.048972,2.883474,1.389674,0.720653,-0.51884,-1.086864,45.4491,-5.023787,-0.484565,4.63583E+18,0.827765,-0.100393,0.53874,0.120357,-10.322799,-0.847108,-0.147177,-0.416675,0.412701,-0.024472,41.492962,-21.790215,-2.139864,4.63583E+18,0.41213,-0.574477,0.472681,0.52602,-9.967064,-0.098973,-1.565802,0.051562,0.018202,-0.004064,42.141896,18.989648,-1.054594,4.63583E+18,-0.451187,-0.556172,-0.485017,0.501859,0
-16.841377,1.390535,1.477115,0.514986,-0.82029,-0.985889,45.515783,-4.70075,-0.692091,4.63583E+18,0.830336,-0.100324,0.535729,0.116071,-10.356815,-1.416421,0.060767,-0.130831,0.360822,0.009849,41.522584,-21.824773,-1.925897,4.63583E+18,0.411113,-0.575428,0.473093,0.525406,-9.683951,-0.528557,-2.191216,0.048007,-0.047665,0.001966,42.049759,19.095938,-1.252696,4.63583E+18,-0.451214,-0.556138,-0.484845,0.502037,0
-15.058285,-0.408495,2.199218,0.413044,-0.93348,-0.834469,45.73551,-4.078206,-1.091158,4.63583E+18,0.833016,-0.100212,0.532323,0.112579,-10.38383,-1.794488,-0.079247,0.210786,0.30887,0.080531,41.600762,-21.944775,-1.788752,4.63583E+18,0.410841,-0.575558,0.474308,0.524379,-9.572975,-0.73914,-2.601362,0.098347,-0.100069,0.002411,42.052549,19.008468,-1.479881,4.63583E+18,-0.45123,-0.556091,-0.484469,0.502438,0
-12.596162,-1.47334,2.889398,0.453223,-0.965688,-0.633165,45.67447,-3.814344,-1.483669,4.63583E+18,0.835666,-0.099495,0.528893,0.109708,-10.220458,-1.853706,-0.577378,0.597523,0.277105,0.180539,41.686204,-22.076179,-1.558914,4.63583E+18,0.411328,-0.574766,0.47654,0.522841,-9.641893,-0.610726,-2.304356,0.13621,-0.149893,0.004687,42.178179,18.862394,-1.515674,4.63583E+18,-0.451264,-0.556015,-0.483915,0.503025,0
-10.509635,-1.832049,3.73077,0.614924,-0.898723,-0.504001,45.442529,-3.717624,-1.694012,4.63583E+18,0.838154,-0.097959,0.525809,0.1069,-10.074977,-1.516658,-1.234477,1.02868,0.252861,0.292322,41.771648,-22.188889,-1.194286,4.63583E+18,0.412647,-0.572951,0.479931,0.520688,-9.687166,-0.31303,-1.669202,0.169185,-0.188272,0.004444,42.249825,18.910857,-1.477096,4.63583E+18,-0.451298,-0.55592,-0.48322,0.503768,0
-8.832653,-1.979314,4.055333,0.828946,-0.760039,-0.417747,45.55879,-3.48598,-1.990374,4.63583E+18,0.840365,-0.095545,0.523326,0.103864,-10.308237,-0.767792,-1.141843,1.44186,0.208903,0.391868,41.788025,-22.325256,-0.824405,4.63583E+18,0.414812,-0.570114,0.484367,0.517968,-9.726153,-0.138612,-1.047061,0.206154,-0.217214,-0.000103,42.249825,18.982512,-1.477096,4.63583E+18,-0.451294,-0.555823,-0.482403,0.50466,0
-7.815057,-2.361087,4.111025,1.031051,-0.560741,-0.365952,45.570236,-3.320641,-2.453007,4.63583E+18,0.842177,-0.092395,0.521635,0.100488,-10.198944,-0.556355,-0.836548,1.671163,0.256453,0.45591,41.638443,-22.410704,-0.634029,4.63583E+18,0.417264,-0.566831,0.489505,0.514761,-9.800579,-0.389866,-0.659585,0.249225,-0.242436,0.010062,42.20296,18.89548,-1.631076,4.63583E+18,-0.451261,-0.555775,-0.481424,0.505677,0
-7.221957,-2.673921,3.967635,1.228907,-0.384291,-0.3306,45.49148,-3.319457,-2.670323,4.63583E+18,0.843642,-0.088544,0.520644,0.096735,-9.830407,-0.566968,-0.928867,1.785277,0.374922,0.505386,41.394314,-22.501082,-0.258565,4.63583E+18,0.419611,-0.563471,0.495182,0.511099,-9.678511,-1.192749,-0.622967,0.340908,-0.253254,0.031527,42.117513,18.823816,-1.911828,4.63583E+18,-0.451081,-0.555917,-0.480181,0.506861,0
-6.817928,-2.394065,3.932697,1.421592,-0.246607,-0.333828,45.484783,-3.241658,-2.42686,4.63583E+18,0.844851,-0.084074,0.520195,0.092498,-9.85126,-0.908414,-0.461158,1.971912,0.45952,0.529391,41.283344,-22.623403,0.33158,4.63583E+18,0.422143,-0.559877,0.501427,0.506858,-9.452483,-1.699188,-0.871028,0.477002,-0.260076,0.06157,42.119079,18.823816,-2.092183,4.63583E+18,-0.450662,-0.556359,-0.478567,0.508274,0
-6.798566,-1.940757,3.852038,1.563637,-0.181923,-0.360907,45.709772,-3.07747,-2.326112,4.63583E+18,0.845943,-0.079185,0.519996,0.087832,-10.484163,-1.215075,0.308854,2.189816,0.499547,0.520286,41.334267,-22.821547,0.814921,4.63583E+18,0.42508,-0.555958,0.508137,0.502011,-9.395366,-1.15231,-1.165982,0.625784,-0.272514,0.087345,42.239177,18.783656,-2.189842,4.63583E+18,-0.449973,-0.557102,-0.476551,0.509961,0
-6.720778,-1.353138,3.676592,1.650242,-0.305274,-0.395653,45.728931,-3.064058,-2.499396,4.63583E+18,0.847301,-0.074016,0.519357,0.082893,-11.243796,-0.723909,1.347619,2.297113,0.531059,0.453479,41.265233,-23.043367,1.369872,4.63583E+18,0.428297,-0.552004,0.514923,0.496697,-9.358368,-0.462761,-1.147927,0.745243,-0.286985,0.084524,42.39117,18.710416,-2.387883,4.63583E+18,-0.449026,-0.558027,-0.474257,0.51192,0
-6.432839,-0.383747,3.740966,1.734458,-0.442164,-0.430902,45.503945,-3.075308,-2.683465,4.63583E+18,0.848945,-0.068574,0.518222,0.077685,-12.170175,-0.259662,2.528912,2.155492,0.610191,0.265491,41.064744,-23.145237,2.041279,4.63583E+18,0.431367,-0.548818,0.521078,0.491121,-9.421319,-0.093398,-0.810105,0.838167,-0.310136,0.078181,42.410506,18.637175,-2.668638,4.63583E+18,-0.447889,-0.559058,-0.47173,0.514121,0
-6.138935,0.33595,3.758921,1.843438,-0.462737,-0.483862,45.327313,-2.851306,-2.78782,4.63583E+18,0.850628,-0.06285,0.517002,0.072055,-12.941034,-1.184434,3.060288,1.760554,0.778299,-0.006111,40.948798,-23.081141,2.633767,4.63583E+18,0.433692,-0.547233,0.526066,0.485491,-9.563102,0.00081,-0.729648,0.91353,-0.328919,0.08948,42.325055,18.644233,-3.002944,4.63583E+18,-0.446631,-0.560203,-0.468974,0.516485,0
-5.857208,0.998021,3.579914,1.90433,-0.381889,-0.537353,45.460102,-2.44969,-2.907974,4.63583E+18,0.852108,-0.057045,0.516035,0.066078,-13.132817,-2.637013,2.467098,1.353948,0.969956,-0.198426,41.022036,-22.922456,3.109822,4.63583E+18,0.435032,-0.547164,0.530107,0.479943,-9.600536,-0.088976,-0.831278,0.89947,-0.331506,0.099543,42.239607,18.63718,-3.274291,4.63583E+18,-0.445425,-0.561326,-0.466213,0.518801,0
-6.026352,1.477255,3.272117,1.874334,-0.275517,-0.582887,45.618801,-2.113374,-2.940065,4.63583E+18,0.853304,-0.051469,0.51539,0.059975,-13.260753,-2.687064,1.832993,1.146002,1.04547,-0.296655,41.095282,-22.758831,3.659854,4.63583E+18,0.435907,-0.547815,0.53362,0.474481,-9.715447,-0.128764,-0.688431,0.811342,-0.338839,0.115524,42.241136,18.517107,-3.410559,4.63583E+18,-0.444468,-0.562294,-0.463585,0.520926,0
-6.503772,1.907346,2.95476,1.763147,-0.278846,-0.618887,45.698752,-2.087466,-2.941984,4.63583E+18,0.854435,-0.046361,0.514663,0.053979,-13.467575,-2.010492,1.83438,1.100684,1.024418,-0.397999,41.065015,-22.592864,4.284519,4.63583E+18,0.436909,-0.548708,0.536752,0.468963,-9.982013,-0.308232,-0.601683,0.73766,-0.349592,0.141745,42.32107,18.365101,-3.555051,4.63583E+18,-0.443755,-0.563145,-0.461029,0.522878,0
-6.790589,2.289615,2.997255,1.646636,-0.260174,-0.647248,45.625791,-1.941263,-3.031955,4.63583E+18,0.855458,-0.041729,0.51394,0.048125,-13.363176,-1.84612,2.009745,1.172105,0.970239,-0.511626,40.985406,-22.434179,4.818801,4.63583E+18,0.43843,-0.54956,0.539679,0.463151,-10.086489,-0.705879,-0.674923,0.694792,-0.345465,0.157325,42.306173,18.25207,-3.845184,4.63583E+18,-0.443163,-0.563949,-0.458533,0.524704,0
-7.182862,2.521842,2.924296,1.55481,-0.200432,-0.664195,45.69779,-1.782567,-3.219586,4.63583E+18,0.856294,-0.037471,0.51338,0.042395,-12.960331,-2.111334,2.080187,1.374665,0.871546,-0.612796,41.157213,-22.236058,5.373739,4.63583E+18,0.440786,-0.550081,0.542529,0.456927,-10.105723,-0.647997,-0.667896,0.641884,-0.333818,0.16549,42.215208,18.260268,-4.170082,4.63583E+18,-0.442687,-0.564692,-0.456151,0.526381,0
-7.810563,2.730306,2.861344,1.466079,-0.151194,-0.680215,45.918174,-1.623888,-3.426128,4.63583E+18,0.856971,-0.03357,0.512952,0.036788,-12.665911,-2.495906,2.171233,1.686431,0.708059,-0.684221,41.371112,-21.984643,6.005694,4.63583E+18,0.44433,-0.549853,0.545469,0.450218,-10.117596,-0.072745,-0.507695,0.568255,-0.33016,0.175688,42.176579,18.339031,-4.297006,4.63583E+18,-0.442396,-0.565321,-0.45391,0.527886,0
-8.333855,2.91534,2.811553,1.355777,-0.134613,-0.707061,45.857743,-1.386479,-3.543692,4.63583E+18,0.857564,-0.030121,0.51254,0.031318,-12.531646,-2.523716,2.462477,2.047196,0.490969,-0.726885,41.402587,-21.671559,6.495631,4.63583E+18,0.44924,-0.548605,0.548544,0.443074,-10.0487,0.166222,-0.248999,0.500815,-0.328199,0.185199,42.263534,18.285186,-4.297006,4.63583E+18,-0.442278,-0.565844,-0.451795,0.529237,0
-8.801586,2.918532,2.852682,1.233782,-0.152213,-0.727945,45.626107,-1.063616,-3.653559,4.63583E+18,0.858147,-0.027149,0.512025,0.026034,-12.377665,-1.900077,2.990811,2.380657,0.255494,-0.751807,41.454414,-21.158002,6.827364,4.63583E+18,0.455481,-0.546266,0.55172,0.435587,-9.889684,-0.098635,-0.061881,0.491229,-0.315251,0.203107,42.415531,18.09306,-4.557844,4.63583E+18,-0.442194,-0.566409,-0.44968,0.530503,0
-9.130493,2.816377,2.935237,1.112926,-0.167587,-0.736432,45.67432,-0.812758,-3.75217,4.63583E+18,0.85872,-0.024624,0.511424,0.020979,-12.130528,-0.669516,3.730944,2.639462,0.010258,-0.763763,41.600899,-20.631807,7.14753,4.63583E+18,0.46284,-0.542952,0.554806,0.427986,-9.669948,-0.481419,0.041299,0.53391,-0.293098,0.232254,42.394815,17.946895,-4.980431,4.63583E+18,-0.442029,-0.567151,-0.44744,0.53174,0
-9.223013,2.470399,3.054419,1.020757,-0.150075,-0.721281,45.680103,-0.489908,-3.782367,4.63583E+18,0.859218,-0.022397,0.510863,0.016172,-11.734586,0.555824,4.551329,2.810282,-0.223984,-0.765395,41.712904,-20.336708,7.639183,4.63583E+18,0.471065,-0.538819,0.557664,0.420456,-9.53048,-0.439685,0.286072,0.532997,-0.266192,0.261956,42.229445,17.995196,-5.198336,4.63583E+18,-0.441878,-0.568003,-0.445179,0.532852,0
-9.285014,2.149151,3.176493,0.944806,-0.175035,-0.692385,45.680103,-0.239012,-3.615643,4.63583E+18,0.859738,-0.020377,0.510196,0.011632,-11.209212,1.634031,5.334599,2.916114,-0.435213,-0.743733,41.842898,-19.989115,8.185151,4.63583E+18,0.479898,-0.533985,0.560244,0.413141,-9.570906,-0.067982,0.638882,0.466494,-0.239695,0.294405,42.239082,18.026842,-5.343952,4.63583E+18,-0.441905,-0.568848,-0.443035,0.533715,0
-9.244865,1.820551,3.422217,0.879881,-0.262893,-0.673301,45.893704,-0.073586,-3.882237,4.63583E+18,0.860417,-0.018545,0.509201,0.007306,-10.522436,2.497939,5.907273,2.978536,-0.615987,-0.693198,42.069901,-19.424616,8.598034,4.63583E+18,0.489108,-0.528531,0.562569,0.406134,-9.711902,0.057529,0.8403,0.381508,-0.208686,0.330144,42.43794,17.906763,-5.485802,4.63583E+18,-0.442153,-0.569668,-0.441049,0.534279,0
-8.791324,1.58089,3.746022,0.857107,-0.364674,-0.670881,45.990736,0.073867,-3.906369,4.63583E+18,0.861289,-0.016786,0.507828,0.003045,-9.793225,3.195249,6.219103,3.011646,-0.756228,-0.599234,42.289619,-18.82947,9.066806,4.63583E+18,0.498481,-0.522456,0.564781,0.399474,-9.811578,-0.035792,0.818727,0.296634,-0.18056,0.366567,42.542801,17.754741,-5.630298,4.63583E+18,-0.442629,-0.570459,-0.439216,0.534551,0
-8.31427,1.40516,4.1768,0.869358,-0.451478,-0.693421,45.693962,0.46768,-3.748981,4.63583E+18,0.862325,-0.015028,0.50613,-0.001317,-9.268938,3.742195,6.350412,3.04605,-0.873683,-0.457915,42.450264,-18.432376,9.350871,4.63583E+18,0.507883,-0.515686,0.567017,0.39321,-9.852545,-0.219231,0.722244,0.22396,-0.153345,0.411559,42.542801,17.561438,-5.713065,4.63583E+18,-0.443327,-0.571257,-0.437487,0.534539,0
-7.77079,1.211794,4.436367,0.868573,-0.525117,-0.728805,45.589211,0.646632,-4.005241,4.63583E+18,0.863493,-0.013348,0.504151,-0.005799,-8.883482,4.328246,6.298449,3.077194,-0.974417,-0.281805,42.528417,-18.183348,9.232766,4.63583E+18,0.517206,-0.508181,0.569364,0.387395,-9.830137,-0.536957,0.610036,0.171474,-0.123642,0.472194,42.54949,17.322808,-5.759887,4.63583E+18,-0.444228,-0.572131,-0.435784,0.534247,0
-7.12037,0.814193,4.613051,0.877255,-0.529886,-0.78282,45.795988,0.6592,-4.556685,4.63583E+18,0.864644,-0.011749,0.502137,-0.010493,-8.467909,4.906485,6.115355,3.101121,-1.055987,-0.077105,42.63846,-17.931937,9.057893,4.63583E+18,0.526343,-0.499918,0.571898,0.382069,-9.815921,-0.868545,0.328624,0.138802,-0.102894,0.548744,42.688771,17.092053,-5.7517,4.63583E+18,-0.445337,-0.573128,-0.434007,0.533701,0
-6.697197,0.421623,4.716518,0.911454,-0.518,-0.839346,45.73571,1.030089,-4.624669,4.63583E+18,0.865743,-0.010144,0.500146,-0.015463,-7.928191,5.502886,5.996201,3.115787,-1.131831,0.14405,42.789881,-17.68285,9.131704,4.63583E+18,0.535239,-0.490881,0.574644,0.377279,-9.74671,-1.268506,-0.060823,0.121156,-0.08443,0.639662,42.886093,16.865644,-5.766564,4.63583E+18,-0.446654,-0.574294,-0.432084,0.532907,0
-6.440488,0.03103,4.791692,0.94875,-0.512067,-0.905785,45.582842,1.590217,-4.817647,4.63583E+18,0.866798,-0.008542,0.498155,-0.020749,-7.435559,6.331331,6.006228,3.08436,-1.20336,0.362514,42.914129,-17.431428,9.280365,4.63583E+18,0.543798,-0.48118,0.577521,0.373121,-9.546721,-1.73674,-0.305503,0.106583,-0.057216,0.743886,42.917728,16.586891,-5.904349,4.63583E+18,-0.448184,-0.575676,-0.429991,0.531823,0
-6.297481,-0.269703,4.864935,1.002851,-0.484111,-0.956361,45.626426,2.074059,-5.384774,4.63583E+18,0.86776,-0.006847,0.496239,-0.026331,-7.054789,7.280706,6.032826,2.970234,-1.253017,0.560696,42.893901,-17.251248,9.259955,4.63583E+18,0.551836,-0.471091,0.580398,0.369714,-9.476443,-1.974411,-0.299355,0.108114,-0.029269,0.873205,42.844488,16.229398,-5.981627,4.63583E+18,-0.449942,-0.577348,-0.427631,0.530427,0
-6.522802,-0.506492,4.881991,1.065278,-0.439453,-0.976981,45.485184,2.269207,-5.522195,4.63583E+18,0.868594,-0.004963,0.494457,-0.032116,-6.732841,8.063622,5.978896,2.772404,-1.274555,0.742664,42.833592,-17.264182,9.064636,4.63583E+18,0.559157,-0.460901,0.583174,0.367181,-9.542997,-2.169165,-0.277578,0.111265,0.002317,1.020806,42.951769,15.75855,-5.874651,4.63583E+18,-0.451954,-0.57935,-0.424963,0.528675,0
-6.251025,-0.378847,4.512165,1.119443,-0.529206,-0.950895,45.31527,2.50751,-5.4513,4.63583E+18,0.869581,-0.002841,0.492324,-0.037915,-6.550278,8.509096,5.900916,2.515313,-1.270795,0.907518,42.855096,-17.496651,8.952945,4.63583E+18,0.565631,-0.450841,0.585788,0.365591,-9.664208,-2.253711,-0.318557,0.087992,0.028002,1.174442,43.208125,15.308343,-5.679333,4.63583E+18,-0.454306,-0.581625,-0.422014,0.52652,0
-6.192067,-0.411167,4.637423,1.183664,-0.499918,-0.924919,45.526397,2.976378,-5.646752,4.63583E+18,0.870475,-0.000428,0.490264,-0.04375,-6.624574,8.436467,5.832418,2.249025,-1.246052,1.05638,42.511376,-17.567954,8.911055,4.63583E+18,0.571257,-0.440983,0.588278,0.364867,-9.988861,-2.216225,-0.122358,0.068056,0.046363,1.353677,43.370871,14.963365,-5.697954,4.63583E+18,-0.457053,-0.584201,-0.418698,0.523931,0
-6.335206,-0.370113,4.651021,1.245865,-0.481943,-0.895354,45.534588,3.161281,-5.93387,4.63583E+18,0.871298,0.002275,0.488236,-0.049603,-6.976566,8.009382,5.685581,2.013264,-1.235847,1.196499,41.737218,-17.243271,8.833242,4.63583E+18,0.576138,-0.431301,0.590616,0.364988,-10.534094,-2.596082,0.289474,0.090893,0.061978,1.563557,43.496425,14.612567,-5.886578,4.63583E+18,-0.460159,-0.587199,-0.414835,0.520924,0
-6.15686,-0.130294,4.460031,1.310766,-0.492463,-0.863481,45.387565,3.095282,-6.04709,4.63583E+18,0.872106,0.005276,0.486134,-0.055469,-7.347169,7.722026,5.436355,1.806128,-1.231975,1.331287,41.386499,-17.319273,8.757111,4.63583E+18,0.580364,-0.421739,0.592821,0.365891,-10.65533,-2.771671,0.789101,0.189947,0.08484,1.774822,43.788812,14.060339,-6.016212,4.63583E+18,-0.463419,-0.590774,-0.410265,0.517603,0
-5.971804,-0.076163,4.297444,1.376906,-0.449248,-0.823572,45.071582,3.391809,-6.324504,4.63583E+18,0.872792,0.008609,0.484148,-0.061321,-7.600964,7.622169,5.094234,1.635592,-1.219351,1.460924,41.664368,-17.909597,8.620635,4.63583E+18,0.583996,-0.412241,0.594958,0.367465,-10.375739,-2.768154,0.710125,0.332001,0.117467,1.993445,44.118108,13.32446,-5.947932,4.63583E+18,-0.466715,-0.595029,-0.404886,0.513988,0
-6.462773,-0.297938,4.296033,1.455911,-0.280268,-0.796745,44.966675,3.788817,-6.538839,4.63583E+18,0.873098,0.012326,0.482731,-0.067225,-7.832905,7.524176,4.639852,1.500397,-1.198389,1.575796,41.680324,-18.304482,8.456521,4.63583E+18,0.587104,-0.402774,0.597072,0.369577,-10.996042,-3.54489,0.700107,0.537212,0.140052,2.206025,44.333192,12.548752,-5.906335,4.63583E+18,-0.469882,-0.600044,-0.398553,0.51021,0
-5.37198,0.255507,3.106273,1.520286,-0.46845,-0.733761,45.105898,3.966951,-6.566609,4.63583E+18,0.87375,0.01635,0.480583,-0.073035,-8.089413,7.205807,4.08784,1.368784,-1.162224,1.667372,41.586036,-18.821361,8.18068,4.63583E+18,0.589697,-0.393414,0.599163,0.372139,-12.444627,-2.837425,1.363322,0.654876,0.130547,2.364453,44.557562,11.687281,-5.991787,4.63583E+18,-0.473061,-0.605473,-0.391517,0.506291,0
-4.588372,0.484917,3.486049,1.576426,-0.481093,-0.626255,45.253362,4.204278,-6.848413,4.63583E+18,0.874407,0.02079,0.478338,-0.078563,-8.465923,6.457379,3.477513,1.264755,-1.114174,1.743843,41.627086,-19.626346,7.907221,4.63583E+18,0.59182,-0.384151,0.601273,0.375031,-13.348999,-1.100688,0.924895,0.576324,0.094693,2.512704,44.732555,10.67271,-6.023775,4.63583E+18,-0.476757,-0.610847,-0.384158,0.501987,0
-4.618812,0.635302,3.381908,1.648679,-0.383359,-0.615424,45.186419,4.448426,-7.232231,4.63583E+18,0.874818,0.025546,0.476397,-0.084183,-8.951682,5.439569,2.886803,1.248347,-1.077053,1.826562,41.261325,-19.961163,7.65594,4.63583E+18,0.593632,-0.37474,0.603519,0.378068,-13.458986,-1.652957,-0.351672,0.466142,0.0811,2.658279,44.87698,9.673171,-6.011568,4.63583E+18,-0.481002,-0.616134,-0.376586,0.497192,0
-5.210663,0.69192,2.931201,1.695838,-0.216691,-0.670289,45.033586,4.613924,-7.443115,4.63583E+18,0.874822,0.030422,0.475025,-0.090073,-9.317254,4.841268,2.31546,1.310212,-1.061739,1.919917,40.68427,-20.173425,7.502482,4.63583E+18,0.59529,-0.364923,0.60598,0.381115,-13.143145,-2.134775,-1.228689,0.344622,0.067328,2.733255,45.233812,8.832269,-6.059495,4.63583E+18,-0.485673,-0.621187,-0.368997,0.492027,0
-5.441099,0.6172,2.410189,1.735786,-0.209828,-0.772364,45.009673,4.772619,-7.81814,4.63583E+18,0.874713,0.035242,0.473646,-0.096407,-9.522223,4.920331,1.793442,1.40808,-1.060019,2.008314,40.567732,-21.148891,7.429246,4.63583E+18,0.596881,-0.354599,0.608664,0.384085,-12.92764,-0.814716,-2.052556,0.179229,0.023695,2.775336,45.560583,7.936318,-6.143787,4.63583E+18,-0.490861,-0.625798,-0.361501,0.48657,0
-3.895496,0.812542,1.413538,1.734031,-0.451206,-0.673693,45.154709,5.009937,-8.118922,4.63583E+18,0.875064,0.040152,0.471343,-0.102407,-9.680767,5.15182,1.395669,1.502427,-1.035114,2.080686,40.19661,-21.941617,7.341266,4.63583E+18,0.598355,-0.343851,0.611588,0.386908,-12.580272,0.216071,-2.424662,-0.001884,-0.000585,2.81316,45.656842,6.801762,-6.163586,4.63583E+18,-0.496567,-0.629962,-0.354174,0.48076,0
-3.063595,0.594265,1.723671,1.731639,-0.363046,-0.60248,44.942785,5.096832,-8.232181,4.63583E+18,0.875216,0.045229,0.46932,-0.108121,-9.851972,5.023342,0.992517,1.587295,-0.97527,2.133834,39.485289,-22.086471,7.275612,4.63583E+18,0.59963,-0.332805,0.614792,0.389508,-10.996904,-0.005798,-2.600889,-0.2005,-0.011589,2.832265,45.814859,5.643449,-6.09909,4.63583E+18,-0.50278,-0.633633,-0.347124,0.47458,0
-3.564535,0.315451,1.364806,1.731468,-0.211073,-0.637383,44.777252,5.102695,-8.060313,4.63583E+18,0.875001,0.050302,0.467828,-0.113927,-10.199254,4.478667,0.472255,1.694583,-0.913348,2.171191,39.477375,-22.885066,7.36894,4.63583E+18,0.600748,-0.321448,0.618287,0.391783,-9.062982,0.53434,-2.362488,-0.382475,-0.047764,2.8369,46.036648,4.637214,-6.041513,4.63583E+18,-0.509463,-0.63677,-0.340296,0.468156,0
-4.129984,0.012221,0.915086,1.711815,-0.138734,-0.680195,44.831929,5.181307,-8.145752,4.63583E+18,0.874575,0.055252,0.466591,-0.119828,-10.630974,3.996022,-0.089115,1.813129,-0.841047,2.199587,39.423155,-23.875865,7.581224,4.63583E+18,0.601701,-0.30979,0.622102,0.393668,-7.989215,2.071013,-1.199421,-0.493016,-0.100301,2.839439,46.092854,3.577078,-6.070529,4.63583E+18,-0.516446,-0.639482,-0.333517,0.461642,0
-4.354595,-0.214328,0.665583,1.674734,-0.066706,-0.739619,44.826563,5.334123,-8.502643,4.63583E+18,0.873935,0.059984,0.465619,-0.12585,-10.827967,3.663781,-0.702385,1.951253,-0.741704,2.225012,38.445655,-23.943077,7.720127,4.63583E+18,0.602437,-0.297834,0.626328,0.395067,-6.996163,3.322113,0.443376,-0.544912,-0.173471,2.848185,46.177587,2.410773,-6.043601,4.63583E+18,-0.523609,-0.641861,-0.326608,0.455164,0
-4.920463,-0.400373,0.568391,1.641193,0.130707,-0.788713,44.601008,5.492817,-8.712636,4.63583E+18,0.872842,0.064599,0.465369,-0.131928,-10.832876,3.214244,-1.515739,2.140401,-0.63573,2.249996,37.718487,-24.16777,7.847377,4.63583E+18,0.602988,-0.285462,0.631056,0.395835,-5.025721,4.803498,1.779269,-0.488238,-0.271464,2.812714,46.279412,1.325797,-5.987158,4.63583E+18,-0.530611,-0.644038,-0.319426,0.449038,0
-5.687057,0.011643,0.101159,1.603168,0.329171,-0.874115,44.581436,5.808717,-8.571089,4.63583E+18,0.871275,0.069016,0.465856,-0.138181,-10.776356,2.647703,-2.387048,2.372265,-0.515201,2.273714,37.708537,-25.041599,8.172705,4.63583E+18,0.603347,-0.272591,0.63638,0.395836,-2.441133,7.717127,2.054853,-0.326205,-0.393561,2.670673,46.217041,0.366043,-6.121819,4.63583E+18,-0.537003,-0.646067,-0.312008,0.443707,0
-6.344743,0.520383,-0.421744,1.52837,0.297856,-0.94999,44.66003,5.992323,-8.478798,4.63583E+18,0.869694,0.072991,0.466267,-0.144565,-10.64221,1.934285,-3.123979,2.655016,-0.394364,2.303214,37.27937,-25.513345,8.697727,4.63583E+18,0.603533,-0.259074,0.642378,0.394942,-0.529704,10.903847,1.796399,-0.163028,-0.517533,2.445127,46.122813,-0.522809,-6.38485,4.63583E+18,-0.542635,-0.647863,-0.304582,0.439375,0
-7.699052,0.932043,-0.014787,1.493621,0.532462,-1.039496,44.588297,6.006042,-8.561757,4.63583E+18,0.867561,0.076805,0.467547,-0.151126,-10.652516,1.048035,-3.783223,2.995173,-0.308569,2.341035,36.401034,-25.579897,9.219944,4.63583E+18,0.603651,-0.24468,0.64904,0.393045,1.074489,11.949545,1.570005,-0.032371,-0.648171,2.154697,46.055105,-1.336078,-6.64672,4.63583E+18,-0.547496,-0.649284,-0.297375,0.436174,0
-9.114955,1.705301,0.316291,1.483276,0.72127,-1.121438,44.502853,6.455083,-8.502242,4.63583E+18,0.864953,0.080535,0.469511,-0.157892,-10.784159,0.314071,-4.415215,3.362579,-0.241479,2.380543,35.742235,-26.037384,9.693604,4.63583E+18,0.603729,-0.229299,0.656333,0.390077,1.677429,11.042548,0.670647,0.104875,-0.850179,1.818417,45.981865,-2.025011,-7.016525,4.63583E+18,-0.55158,-0.650182,-0.290344,0.434423,0
-10.822682,2.499669,1.116301,1.507143,0.886222,-1.209482,44.495983,6.94332,-8.170841,4.63583E+18,0.861891,0.084281,0.472049,-0.164954,-10.695502,0.110214,-4.805158,3.68303,-0.160898,2.402264,35.124216,-26.759901,10.373238,4.63583E+18,0.603665,-0.213111,0.664163,0.386084,0.274581,9.913484,-0.454994,0.224916,-1.122318,1.513702,45.95534,-2.694308,-7.427012,4.63583E+18,-0.555081,-0.650452,-0.283276,0.434225,0
-12.960196,3.293142,1.801461,1.539739,0.95438,-1.334477,44.574555,7.364265,-7.895401,4.63583E+18,0.858526,0.087939,0.474812,-0.172492,-10.341371,0.303137,-4.951531,3.885945,-0.048013,2.385522,34.457946,-27.235064,11.411215,4.63583E+18,0.603282,-0.196565,0.672355,0.38125,-2.013756,8.9223,-2.29046,0.232001,-1.380719,1.252337,45.960873,-3.355577,-7.739822,4.63583E+18,-0.55836,-0.649923,-0.27629,0.435315,0
-15.930047,4.277439,2.787153,1.564995,0.993572,-1.51569,44.727353,7.71197,-7.537042,4.63583E+18,0.854861,0.091349,0.47772,-0.180697,-9.985077,0.284982,-5.022149,3.991171,0.08826,2.33485,34.009362,-27.413269,12.480213,4.63583E+18,0.602461,-0.180042,0.680767,0.375741,-3.970425,8.542081,-4.819211,0.05406,-1.538342,0.968254,45.9542,-3.76459,-8.2219,4.63583E+18,-0.561754,-0.648328,-0.270013,0.437261,0
-19.519287,6.288412,4.092055,1.512962,1.055503,-1.805621,44.672795,8.34554,-7.182084,4.63583E+18,0.850782,0.094034,0.480945,-0.189787,-9.576891,-0.118071,-5.12756,4.032238,0.226085,2.257458,33.701455,-27.618503,13.432344,4.63583E+18,0.601174,-0.163785,0.689277,0.369677,-6.653852,8.777436,-5.953955,-0.274369,-1.642066,0.659075,45.848574,-3.949821,-8.981193,4.63583E+18,-0.565557,-0.64539,-0.264912,0.439817,0
-23.347848,8.287059,4.502366,1.419844,0.971308,-2.145944,44.509766,9.150632,-7.018863,4.63583E+18,0.846533,0.095628,0.48402,-0.199907,-9.049723,-0.770692,-5.352073,4.021129,0.359087,2.15168,33.225069,-27.776747,14.384453,4.63583E+18,0.599437,-0.148004,0.697777,0.36315,-9.765619,8.238666,-5.16764,-0.541261,-1.761419,0.367331,45.672147,-4.189709,-9.770072,4.63583E+18,-0.569641,-0.641246,-0.260788,0.44306,0
-26.340235,9.109678,3.878015,1.373793,0.462645,-2.276792,44.338863,9.889967,-6.861151,4.63583E+18,0.843108,0.096361,0.485327,-0.210572,-8.701155,-1.887338,-5.625865,3.981913,0.449594,2.018524,32.639115,-27.725195,15.410201,4.63583E+18,0.597398,-0.132793,0.70611,0.356217,-12.33868,7.210326,-3.158051,-0.632169,-1.934637,0.145084,45.454552,-4.2936,-10.514684,4.63583E+18,-0.573709,-0.636281,-0.256997,0.447166,0
-29.380919,9.594181,3.832139,1.263408,-0.042775,-2.357514,44.246528,10.633552,-6.882018,4.63583E+18,0.840573,0.096087,0.484927,-0.221473,-8.405177,-3.195384,-5.908588,3.888509,0.509377,1.855077,32.126767,-27.676789,16.550283,4.63583E+18,0.595169,-0.118339,0.714123,0.348997,-14.607841,6.578233,-1.15688,-0.614036,-2.175901,0.000361,45.151496,-4.0936,-11.266006,4.63583E+18,-0.577671,-0.630704,-0.25296,0.452239,0
-31.14227,8.958351,4.012668,1.088068,-0.558546,-2.167435,43.93665,11.434303,-7.176734,4.63583E+18,0.839226,0.095096,0.48275,-0.231535,-8.041986,-4.538863,-5.609053,3.759425,0.531265,1.652683,31.719059,-27.740122,17.580014,4.63583E+18,0.592917,-0.104803,0.721677,0.341537,-16.89742,5.677392,-0.455075,-0.532803,-2.447106,-0.161971,44.889759,-3.995222,-12.122874,4.63583E+18,-0.581342,-0.624577,-0.248519,0.458457,0
-27.561052,6.767113,4.196765,1.037159,-0.824168,-1.672987,43.674379,12.026784,-7.494127,4.63583E+18,0.838832,0.094657,0.479452,-0.239848,-8.14805,-6.209094,-4.529225,3.511424,0.478362,1.359781,31.294172,-27.5513,18.429691,4.63583E+18,0.590967,-0.092657,0.728422,0.334028,-19.741228,4.470186,-0.414927,-0.371233,-2.701663,-0.374642,44.614412,-4.075132,-13.056123,4.63583E+18,-0.584381,-0.61806,-0.243677,0.465964,0
-24.429679,5.895361,5.625292,1.145888,-0.595451,-1.258974,43.575133,12.297525,-7.789044,4.63583E+18,0.838293,0.095647,0.476648,-0.246825,-8.153368,-7.405678,-3.409394,3.063657,0.377751,0.973919,30.928265,-27.126762,19.316085,4.63583E+18,0.589558,-0.082624,0.733987,0.326892,-22.919557,3.028082,-0.033859,-0.103801,-2.916614,-0.58553,44.312624,-3.987167,-14.043915,4.63583E+18,-0.586456,-0.611474,-0.238302,0.474743,0
-23.520884,6.18296,5.671147,1.260783,-0.633482,-0.935635,43.489681,12.608991,-8.261539,4.63583E+18,0.838071,0.097637,0.473438,-0.252903,-6.896591,-7.663844,-2.969077,2.496197,0.340608,0.570232,30.706248,-26.900124,20.228939,4.63583E+18,0.588526,-0.075158,0.738439,0.320462,-26.547904,2.271708,1.178953,0.271091,-2.999933,-0.684891,44.037411,-3.715227,-15.081476,4.63583E+18,-0.58737,-0.605443,-0.232197,0.484273,0
-23.058708,6.078928,6.404757,1.571426,-0.725147,-0.805996,43.247149,13.004924,-8.839596,4.63583E+18,0.837991,0.100865,0.469501,-0.259163,-5.122715,-8.359591,-3.402175,1.905865,0.420159,0.170968,30.59906,-26.758282,20.853084,4.63583E+18,0.587543,-0.070468,0.742104,0.314815,-30.290515,1.535919,2.372167,0.62005,-3.061021,-0.712582,43.756657,-3.40339,-16.165728,4.63583E+18,-0.587306,-0.600011,-0.22527,0.494279,0
-22.675425,5.236997,6.671836,2.120116,-0.884885,-0.632925,43.069372,13.183332,-9.245944,4.63583E+18,0.838111,0.106167,0.464302,-0.265937,-3.836383,-10.943365,-3.886768,1.507554,0.477635,-0.187545,30.523149,-26.514134,21.173056,4.63583E+18,0.586702,-0.067933,0.74524,0.309487,-32.77264,-0.858249,2.610017,0.847767,-3.234235,-0.78556,43.309175,-3.139345,-17.288808,4.63583E+18,-0.586573,-0.594596,-0.21759,0.505016,0
-22.285744,5.298353,4.14307,2.204487,-1.210466,-0.467289,42.819924,13.263514,-9.894641,4.63583E+18,0.838915,0.111711,0.457749,-0.272412,-3.01232,-14.227289,-4.465097,1.415332,0.443223,-0.479368,30.347354,-26.206302,21.703357,4.63583E+18,0.586292,-0.066483,0.748058,0.303728,-34.209425,-4.571941,1.820163,1.030902,-3.414883,-0.910265,42.763264,-2.999638,-18.465158,4.63583E+18,-0.58516,-0.589005,-0.209345,0.516561,0
-20.290847,7.251032,2.594786,2.083195,-1.235038,-0.464761,42.642098,13.24701,-10.902612,4.63583E+18,0.839731,0.116797,0.451196,-0.278626,-2.102193,-17.087898,-5.336962,1.494765,0.407786,-0.68434,30.325927,-25.764273,22.381808,4.63583E+18,0.586246,-0.065431,0.750798,0.297217,-34.61109,-9.426773,-0.520466,1.194968,-3.461646,-1.019554,42.203912,-2.886395,-19.625829,4.63583E+18,-0.583009,-0.583474,-0.200852,0.528505,0
-17.279844,9.250508,2.511754,2.028039,-1.103257,-0.533436,42.471211,13.087992,-11.592393,4.63583E+18,0.840159,0.121701,0.445154,-0.284885,-2.88209,-16.581081,-6.456684,1.499812,0.39265,-0.944976,30.550554,-25.263782,22.830656,4.63583E+18,0.586538,-0.065159,0.753394,0.290041,-32.401404,-14.847894,-4.031027,1.334501,-3.274534,-1.105984,41.525745,-2.746573,-20.736703,4.63583E+18,-0.58003,-0.578478,-0.192667,0.540192,0
-14.292684,10.903603,2.81755,1.835715,-1.217263,-0.65031,42.37884,12.917108,-12.072061,4.63583E+18,0.840676,0.125569,0.438958,-0.291225,-11.037387,-4.673229,-2.609967,1.23202,-0.405552,-1.391504,30.846145,-24.763326,23.033033,4.63583E+18,0.589768,-0.065976,0.75355,0.282813,-26.903025,-18.758907,-6.270773,1.473063,-2.911712,-1.132609,40.954463,-2.558971,-21.754176,4.63583E+18,-0.576238,-0.574484,-0.18507,0.55106,0
-10.551023,12.594653,6.35524,1.256664,-1.548334,-0.898616,42.214859,13.049046,-12.648159,4.63583E+18,0.841725,0.126541,0.432396,-0.297523,-23.561868,11.400273,12.496989,0.681242,-1.919828,-1.791357,31.334756,-24.194235,22.89317,4.63583E+18,0.598015,-0.067612,0.749154,0.276722,-19.962933,-21.776541,-9.273627,1.818183,-2.536848,-1.057498,40.653872,-2.367036,-22.74742,4.63583E+18,-0.57139,-0.572122,-0.177364,0.561009,0
-5.935162,10.960232,12.250687,0.771275,-1.384236,-1.275916,41.886951,13.432041,-13.402292,4.63583E+18,0.8422,0.125325,0.427176,-0.304161,-33.834997,16.669741,15.355255,-0.470118,-0.880818,-2.466687,31.998878,-23.454314,22.412218,4.63583E+18,0.603399,-0.075414,0.745736,0.272215,-15.736448,-22.087516,-12.028272,2.297453,-2.294197,-0.585783,40.258588,-2.601605,-23.718395,4.63583E+18,-0.566216,-0.57171,-0.167959,0.569506,0
-1.909287,4.937775,15.436281,0.758265,-0.60765,-1.668556,41.556364,13.902176,-13.924607,4.63583E+18,0.840744,0.12434,0.424873,-0.311726,-42.204289,7.794705,-1.648382,-1.129317,2.194309,-2.893631,32.481624,-22.719773,22.384238,4.63583E+18,0.599393,-0.089674,0.749027,0.267666,-15.363987,-13.942897,-12.236007,2.786734,-2.090356,0.341882,39.657139,-3.156408,-24.48056,4.63583E+18,-0.561823,-0.57347,-0.155631,0.575558,0
0.532792,-0.504583,15.248112,1.189379,0.220077,-1.861436,41.294059,14.46799,-13.897976,4.63583E+18,0.837284,0.12559,0.424977,-0.320277,-44.108401,-5.749722,-9.628069,-0.452175,2.653809,-2.805426,32.525283,-22.209692,23.082594,4.63583E+18,0.593953,-0.102457,0.754061,0.260986,-14.703717,-2.660241,-14.68047,3.725829,-1.632407,1.509704,39.208974,-4.005498,-24.908736,4.63583E+18,-0.557539,-0.579129,-0.139291,0.578237,0
0.585665,-1.915613,13.517067,1.678677,0.738707,-1.920805,41.048946,15.120174,-13.914454,4.63583E+18,0.832482,0.129121,0.426224,-0.329597,-28.431378,-7.998272,-3.538237,0.225118,1.383421,-2.492968,32.547626,-21.696695,23.687672,4.63583E+18,0.592334,-0.111181,0.756668,0.253442,-14.054206,2.789448,-16.21211,5.738267,-0.974123,3.084053,38.975959,-5.697134,-25.045164,4.63583E+18,-0.577233,-0.585753,-0.142624,0.550775,0
1.011101,-3.325286,9.139365,2.012041,0.536313,-1.896346,40.726299,15.846652,-14.129509,4.63583E+18,0.827784,0.133557,0.426243,-0.339489,-1.28251,-2.471444,2.558352,0.75314,1.222881,-1.927807,32.767386,-20.96884,24.061249,4.63583E+18,0.590796,-0.116639,0.759606,0.245673,-16.422209,1.532684,-14.260928,8.993922,-0.243918,5.089509,38.646301,-8.441705,-24.968534,4.63583E+18,-0.565637,-0.609457,-0.107814,0.544971,0
0.54526,-5.976586,6.365371,2.308816,0.564884,-1.866355,40.620991,16.052014,-14.327785,4.63583E+18,0.822789,0.13909,0.425859,-0.349737,12.439438,3.411678,2.787192,0.595282,1.525534,-1.928805,32.918559,-20.172811,24.540316,4.63583E+18,0.588161,-0.122786,0.763045,0.238228,-20.251747,-5.548624,-15.426589,12.728329,0.764169,6.722493,38.068091,-12.464733,-23.958339,4.63583E+18,-0.546326,-0.643166,-0.062388,0.532891,0
-0.362771,-5.584736,3.58513,2.402485,0.233823,-1.859013,40.614029,16.221901,-14.43339,4.63583E+18,0.818204,0.144452,0.424132,-0.360262,6.496594,3.108253,3.214903,0.104551,1.736657,-2.09,32.874264,-19.496811,25.231387,4.63583E+18,0.584693,-0.130843,0.76634,0.231812,-23.187879,-14.295397,-22.356993,14.976815,1.967487,7.121673,37.484394,-17.244517,-21.776363,4.63583E+18,-0.519327,-0.681879,-0.013266,0.514942,0
-0.360988,-3.69131,1.103577,2.274278,-0.633744,-1.804623,40.524342,16.605817,-14.811329,4.63583E+18,0.81518,0.148149,0.419538,-0.370839,-5.984446,-2.56273,1.096825,0.293091,1.458108,-2.06691,32.725469,-18.957406,25.797082,4.63583E+18,0.582124,-0.138083,0.769058,0.224976,-26.224243,-19.002779,-26.718723,14.74482,2.83961,6.620962,36.957281,-21.844107,-18.747869,4.63583E+18,-0.489466,-0.71853,0.032256,0.49305,0
0.576518,-2.731942,0.443687,1.986681,-0.262816,-1.819449,40.213668,17.008661,-15.202962,4.63583E+18,0.811545,0.151395,0.416599,-0.380682,-11.441246,-4.418482,-2.412012,0.878152,1.112726,-1.899267,32.657212,-18.331943,25.994545,4.63583E+18,0.58078,-0.14303,0.771501,0.216847,-28.173622,-16.238585,-24.337828,13.069489,3.048095,6.048686,36.088313,-25.732399,-15.189017,4.63583E+18,-0.461488,-0.749103,0.072189,0.469748,0
-0.629938,-4.174549,1.635933,1.883718,0.589895,-1.756455,39.816846,17.187264,-15.414198,4.63583E+18,0.806494,0.155736,0.416614,-0.389547,-13.272259,-3.695922,-3.650805,1.280271,1.138615,-1.756035,32.6279,-17.438215,26.298026,4.63583E+18,0.579403,-0.146553,0.774377,0.207735,-25.616234,-9.476795,-17.274902,10.976971,2.987414,5.397281,35.106197,-28.599933,-11.768768,4.63583E+18,-0.43734,-0.773178,0.105952,0.446882,0
-3.177173,-3.939291,1.66719,1.98463,0.40821,-1.67713,39.402797,17.570153,-15.620724,4.63583E+18,0.801722,0.16024,0.415752,-0.398391,-14.361353,-3.401989,-5.040081,1.433648,1.314759,-1.767608,32.625568,-16.54739,26.949917,4.63583E+18,0.577496,-0.149879,0.777716,0.19797,-22.472687,-3.139391,-10.27075,8.365669,2.833305,4.618169,34.364935,-30.708319,-8.896921,4.63583E+18,-0.419209,-0.790738,0.132414,0.425985,0
-4.78367,-3.132895,1.49206,2.078586,-0.007722,-1.599962,39.211938,17.90574,-15.828249,4.63583E+18,0.797638,0.164481,0.413244,-0.407369,-10.857274,0.906597,-6.048312,1.651343,1.417321,-1.683287,32.645007,-15.871322,27.569928,4.63583E+18,0.575249,-0.152475,0.781435,0.187613,-22.788942,1.52248,-5.976193,5.063429,2.342179,4.022174,33.524891,-32.354011,-6.649769,4.63583E+18,-0.410186,-0.800925,0.151736,0.408953,0
-6.173929,-3.602063,2.833316,2.216531,-0.12805,-1.546601,39.041055,18.145635,-16.203878,4.63583E+18,0.793657,0.169049,0.410013,-0.416439,-7.944963,3.835433,-3.539637,1.820268,1.365732,-1.51458,32.620593,-15.199638,28.165728,4.63583E+18,0.573069,-0.154058,0.785167,0.17712,-23.974251,2.185068,-3.542315,1.853044,1.760388,3.507293,32.537136,-33.488266,-5.275788,4.63583E+18,-0.410473,-0.804466,0.164738,0.396494,0
-6.824811,-3.324973,3.301649,2.312499,-0.252361,-1.502196,38.881362,18.388782,-16.594513,4.63583E+18,0.789792,0.173771,0.406119,-0.425557,-8.177652,1.253414,-0.996253,1.697023,1.380948,-1.495854,32.527616,-14.347519,28.851852,4.63583E+18,0.570673,-0.155866,0.788755,0.167042,-23.895467,-0.312817,-2.252867,-0.668856,1.234608,2.945588,31.76036,-34.154075,-4.85078,4.63583E+18,-0.417896,-0.802997,0.17246,0.388352,0
-7.119351,-2.365709,3.590412,2.4583,-0.426546,-1.493708,38.55454,18.554473,-16.973941,4.63583E+18,0.78602,0.178655,0.401329,-0.43496,-10.468006,-0.291614,-1.287321,1.497137,1.464178,-1.546369,32.332298,-13.473556,29.523044,4.63583E+18,0.567839,-0.158355,0.792274,0.157428,-21.674225,-5.115065,-0.92467,-1.785911,0.72719,2.490297,31.10346,-34.722198,-4.920669,4.63583E+18,-0.427934,-0.798945,0.177623,0.383418,0
-6.950812,-1.296572,3.17632,2.527501,-0.282286,-1.513863,37.932597,18.713151,-17.53164,4.63583E+18,0.781798,0.183965,0.396841,-0.444371,-11.218741,0.965968,-2.245469,1.357284,1.583079,-1.608637,32.171265,-12.746323,30.118835,4.63583E+18,0.564493,-0.161441,0.795846,0.148031,-17.558282,-12.554575,0.272864,-1.6654,0.253708,2.069268,30.400982,-35.317042,-5.179216,4.63583E+18,-0.436501,-0.794537,0.182369,0.380682,0
-7.101908,0.304391,2.431272,2.524734,-0.024917,-1.534333,37.722676,18.871846,-17.93728,4.63583E+18,0.776994,0.189681,0.393151,-0.453578,-10.532991,2.139614,-4.157991,1.280458,1.613721,-1.638395,31.997761,-12.10897,30.809844,4.63583E+18,0.560943,-0.164806,0.799326,0.13878,-14.502776,-17.67803,1.362518,-1.192364,-0.208578,1.617563,29.646407,-35.665557,-5.634152,4.63583E+18,-0.442386,-0.790506,0.187206,0.379932,0
-7.610017,2.221355,1.527723,2.468139,0.079166,-1.565415,37.708668,19.030541,-18.238262,4.63583E+18,0.771887,0.195331,0.38987,-0.462642,-8.59678,2.284298,-6.352199,1.291475,1.545057,-1.726468,31.626386,-11.307984,31.444307,4.63583E+18,0.557611,-0.16838,0.802493,0.129318,-13.722224,-17.433934,2.33474,-0.785462,-0.583222,1.168193,28.886245,-35.536966,-6.130213,4.63583E+18,-0.446395,-0.787175,0.190859,0.380343,0
-8.057392,4.262742,1.105352,2.302369,0.147303,-1.553336,37.327728,19.032345,-18.688033,4.63583E+18,0.766716,0.200571,0.387062,-0.471275,-7.221457,1.542474,-7.625224,1.354021,1.399514,-1.809898,31.170027,-10.438947,31.856796,4.63583E+18,0.554786,-0.17199,0.805197,0.11954,-13.746639,-14.475587,2.49373,-0.622064,-0.882113,0.639981,28.193733,-35.078671,-6.482058,4.63583E+18,-0.448778,-0.784066,0.193588,0.382573,0
-8.059892,5.63025,0.928583,2.100705,0.087054,-1.482406,36.91264,19.031342,-19.163162,4.63583E+18,0.761853,0.205137,0.384349,-0.479347,-6.723289,1.607397,-7.929975,1.356503,1.225661,-1.858224,30.948186,-9.616215,32.29399,4.63583E+18,0.552501,-0.175649,0.807369,0.109752,-12.999136,-12.316532,2.78967,-0.503157,-1.122459,0.076411,27.847335,-34.800002,-6.810493,4.63583E+18,-0.449668,-0.781231,0.195109,0.386536,0
-7.519028,6.723553,0.881939,1.855507,0.000781,-1.477161,36.732894,19.177012,-19.471175,4.63583E+18,0.757266,0.208739,0.381806,-0.487032,-6.205855,2.013822,-7.841762,1.317001,1.114678,-1.929986,30.953137,-8.722485,32.811482,4.63583E+18,0.550529,-0.17957,0.809118,0.100001,-12.379407,-11.583884,3.361331,-0.116164,-1.315398,-0.541769,27.841733,-34.893108,-7.242132,4.63583E+18,-0.448132,-0.779287,0.195595,0.391958,0
-6.921933,6.968587,0.688464,1.543913,-0.088759,-1.579205,36.708664,19.559771,-19.685692,4.63583E+18,0.752815,0.210995,0.379667,-0.494575,-6.554257,1.332105,-7.431347,1.318561,1.067032,-1.985301,30.938345,-7.767989,33.228876,4.63583E+18,0.548676,-0.183634,0.810621,0.090141,-12.47036,-11.535891,3.594478,0.468292,-1.458466,-1.148239,27.822925,-34.912126,-7.611761,4.63583E+18,-0.44357,-0.778657,0.195325,0.398482,0
-6.402203,5.940671,0.895485,1.257067,-0.205932,-1.562847,36.405157,19.962612,-19.893215,4.63583E+18,0.748775,0.212119,0.377707,-0.501677,-7.358443,0.24078,-7.055829,1.379049,1.011916,-1.99719,30.794236,-6.864706,33.555928,4.63583E+18,0.546994,-0.187558,0.811915,0.080083,-10.32821,-11.704641,3.550219,1.02761,-1.592245,-1.642895,27.637684,-34.28773,-7.799371,4.63583E+18,-0.436224,-0.779173,0.194608,0.405865,0
-5.867085,5.152703,1.240469,1.057249,-0.280468,-1.499783,35.929906,20.298233,-20.179169,4.63583E+18,0.745111,0.212548,0.375851,-0.508301,-7.329534,-0.586254,-6.916506,1.467069,0.948242,-1.959169,30.633168,-5.956466,33.863634,4.63583E+18,0.545518,-0.19111,0.813024,0.069854,-7.792386,-11.610491,2.80175,1.628928,-1.708989,-2.095153,27.941185,-33.607214,-7.816103,4.63583E+18,-0.426005,-0.780841,0.193625,0.413904,0
-5.654893,4.866436,1.628052,0.852261,-0.22843,-1.525706,35.587296,20.616594,-20.472113,4.63583E+18,0.741448,0.212399,0.374593,-0.514608,-7.052613,-1.378092,-6.161144,1.549508,0.843078,-1.968226,30.518414,-4.913754,34.185808,4.63583E+18,0.544399,-0.194452,0.813812,0.0594,-7.966123,-11.891775,0.949245,2.282031,-1.842443,-2.610388,29.460661,-33.649999,-7.60875,4.63583E+18,-0.412572,-0.783681,0.192286,0.422675,0
-6.289563,4.331026,1.58179,0.664734,-0.231085,-1.570669,35.481747,20.945185,-20.686672,4.63583E+18,0.73782,0.211583,0.373748,-0.520736,-6.462693,-2.370916,-4.904314,1.57592,0.690988,-2.020094,30.33276,-3.778724,34.407906,4.63583E+18,0.543763,-0.197849,0.814119,0.048856,-10.449379,-11.634405,-1.158391,2.847138,-2.023331,-3.165222,31.171213,-33.905421,-7.325722,4.63583E+18,-0.395104,-0.786951,0.192076,0.433252,0
-6.527089,2.794873,1.50754,0.553373,-0.264135,-1.578371,35.172248,21.196368,-20.882995,4.63583E+18,0.734287,0.21033,0.373032,-0.526717,-6.55295,-2.561089,-4.022998,1.546024,0.567559,-2.046168,30.09113,-2.922025,34.578802,4.63583E+18,0.543461,-0.201354,0.81402,0.038451,-12.18606,-10.420575,-2.971734,3.214835,-2.22382,-3.694334,32.074002,-33.488888,-7.134783,4.63583E+18,-0.375392,-0.790671,0.19053,0.444543,0
-6.453559,1.630712,1.70313,0.501631,-0.226853,-1.545399,34.69707,21.518896,-21.078292,4.63583E+18,0.730778,0.209042,0.372496,-0.532459,-6.552915,-2.436462,-3.224829,1.528726,0.451099,-2.103444,29.971604,-2.160227,34.827915,4.63583E+18,0.543482,-0.205051,0.813507,0.028068,-12.800493,-9.28945,-4.536768,3.39439,-2.459559,-4.232263,32.851597,-32.362836,-7.041489,4.63583E+18,-0.353663,-0.794229,0.187813,0.456999,0
-6.434308,1.28051,1.844455,0.480115,-0.144836,-1.496341,34.275986,21.9157,-21.195202,4.63583E+18,0.727235,0.207937,0.372198,-0.537921,-7.342456,-2.556542,-2.905473,1.533019,0.269078,-2.176267,29.976522,-1.215406,35.115894,4.63583E+18,0.544065,-0.208938,0.81242,0.017658,-13.855504,-8.577775,-5.920582,3.444004,-2.699799,-4.791736,33.973305,-31.139784,-7.0525,4.63583E+18,-0.33026,-0.797325,0.183546,0.47065,0
-6.534098,1.570952,2.124317,0.511849,-0.072133,-1.394206,34.09617,22.172905,-21.125861,4.63583E+18,0.723752,0.207241,0.371946,-0.543039,-9.510653,-3.474806,-3.526038,1.620246,0.029136,-2.204014,29.991131,-0.231495,35.135253,4.63583E+18,0.545468,-0.212679,0.810667,0.007097,-14.815819,-7.738254,-7.094946,3.378749,-2.909756,-5.323789,35.199538,-29.976877,-7.066998,4.63583E+18,-0.305572,-0.799717,0.177538,0.485344,0
-6.755933,1.453594,2.47325,0.565799,0.102307,-1.244291,33.859105,22.417024,-21.130006,4.63583E+18,0.720264,0.207328,0.371955,-0.547618,-10.932946,-3.893813,-4.509694,1.758206,-0.199588,-2.168948,29.925184,0.784154,35.001058,4.63583E+18,0.547693,-0.215952,0.808322,-0.003649,-15.641334,-6.342608,-7.868835,3.258154,-3.08031,-5.831837,36.466813,-28.607706,-6.936216,4.63583E+18,-0.279829,-0.801301,0.169644,0.500834,0
-7.536577,1.832405,2.312151,0.621342,0.260551,-1.135551,33.614959,22.739555,-21.231797,4.63583E+18,0.716708,0.208104,0.372206,-0.551802,-10.573757,-3.474305,-5.462047,1.823554,-0.312778,-2.116425,29.878857,1.829005,34.937549,4.63583E+18,0.550283,-0.218873,0.805653,-0.014392,-16.87698,-5.098016,-8.535606,3.110506,-3.233235,-6.329096,37.719743,-26.927909,-6.876029,4.63583E+18,-0.253128,-0.801981,0.15977,0.51694,0
-8.523453,2.427635,1.645505,0.677866,0.36555,-1.064187,33.370811,22.912381,-21.330466,4.63583E+18,0.713082,0.209394,0.372568,-0.555752,-10.266611,-3.618278,-6.504297,1.831863,-0.341154,-2.021716,29.961896,2.859335,34.820362,4.63583E+18,0.552907,-0.221429,0.802896,-0.024917,-18.131403,-4.702021,-9.120702,2.918876,-3.3852,-6.789392,38.781987,-24.896418,-7.36135,4.63583E+18,-0.225657,-0.801591,0.147925,0.533524,0
-10.151366,3.205889,1.161487,0.660013,0.465945,-1.00661,33.339428,22.925503,-21.506492,4.63583E+18,0.709428,0.210947,0.373209,-0.5594,-10.571594,-3.874809,-6.608916,1.822481,-0.292867,-1.816227,30.061966,3.933535,34.744704,4.63583E+18,0.555314,-0.223287,0.800341,-0.034979,-19.521294,-4.671093,-9.406214,2.74179,-3.503337,-7.187786,39.888118,-22.686878,-8.244625,4.63583E+18,-0.197512,-0.800099,0.134279,0.550272,0
-12.160671,3.965772,0.787183,0.55511,0.519324,-0.950978,33.27124,23.149435,-21.622422,4.63583E+18,0.705893,0.212395,0.374193,-0.562658,-12.225406,-4.15535,-5.952169,1.827809,-0.254433,-1.689159,30.047279,4.944196,34.72029,4.63583E+18,0.557553,-0.224679,0.797902,-0.044797,-20.906751,-4.739582,-9.878331,2.636845,-3.533553,-7.504805,41.046799,-20.477482,-9.172327,4.63583E+18,-0.168673,-0.797646,0.119189,0.566661,0
-14.064948,5.539983,0.835235,0.362619,0.521433,-0.957156,33.186798,23.471958,-21.474767,4.63583E+18,0.702493,0.213267,0.37563,-0.565617,-15.843353,-3.991808,-4.406279,1.787638,-0.205484,-1.65926,29.971611,5.889065,34.583507,4.63583E+18,0.559537,-0.226033,0.795526,-0.054452,-21.962237,-4.162987,-10.676102,2.518578,-3.497655,-7.766904,41.820884,-18.015553,-10.299389,4.63583E+18,-0.139353,-0.794297,0.102759,0.582335,0
-15.945692,6.661624,0.853506,0.090408,0.533011,-0.957149,33.034185,23.801523,-21.124758,4.63583E+18,0.699301,0.213365,0.377735,-0.568128,-18.025685,-3.872154,-2.314337,1.706242,-0.05188,-1.672512,29.947198,6.780117,34.278337,4.63583E+18,0.560876,-0.227562,0.793434,-0.064007,-22.718462,-2.704109,-10.986812,2.379193,-3.424587,-7.978476,42.30037,-15.395291,-11.440539,4.63583E+18,-0.110598,-0.790195,0.084011,0.59691,0
-17.915175,7.086548,0.518664,-0.166825,0.550727,-0.755268,32.94266,24.209485,-21.016028,4.63583E+18,0.696775,0.213069,0.380315,-0.56962,-19.226748,-3.537655,-1.682188,1.612469,0.134604,-1.763315,29.85929,7.593093,34.085508,4.63583E+18,0.561428,-0.22954,0.791636,-0.073635,-22.934468,-1.880098,-10.992068,2.172647,-3.340479,-8.164308,42.924764,-12.806409,-12.354024,4.63583E+18,-0.081933,-0.785151,0.06398,0.610518,0
-19.568116,6.792257,-0.328948,-0.497539,0.399419,-0.493108,32.857207,24.467805,-20.930575,4.63583E+18,0.695395,0.211867,0.383003,-0.569953,-20.542803,-3.022505,-1.777408,1.549024,0.267684,-1.940416,29.637106,8.537953,34.100167,4.63583E+18,0.561368,-0.232185,0.789917,-0.083587,-22.814722,-1.40036,-11.021126,1.851833,-3.245461,-8.337476,43.560917,-10.173157,-13.230587,4.63583E+18,-0.052757,-0.779081,0.043726,0.623168,0
