Accelerometer-X,Accelerometer-Y,Accelerometer-Z,Gyroscope-X,Gyroscope-Y,Gyroscope-Z,Magnetometer-X,Magnetometer-Y,Magnetometer-Z,Barometer-pressure,Orientation-S,Orientation-X,Orientation-Y,Orientation-Z,Accelerometer-X,Accelerometer-Y,Accelerometer-Z,Gyroscope-X,Gyroscope-Y,Gyroscope-Z,Magnetometer-X,Magnetometer-Y,Magnetometer-Z,Barometer-pressure,Orientation-S,Orientation-X,Orientation-Y,Orientation-Z,Accelerometer-X,Accelerometer-Y,Accelerometer-Z,Gyroscope-X,Gyroscope-Y,Gyroscope-Z,Magnetometer-X,Magnetometer-Y,Magnetometer-Z,Barometer-pressure,Orientation-S,Orientation-X,Orientation-Y,Orientation-Z,jump
-9.696197,-1.162688,2.172651,0.57409,0.249611,-0.039829,44.019897,-15.770632,-3.475058,4.63583E+18,0.359784,-0.580402,0.68041,0.265954,-9.692678,-1.349557,0.380523,-0.032818,0.029613,0.022909,43.87504,-11.527976,-10.655324,4.63583E+18,-0.13194,0.713223,-0.418175,-0.546841,-9.65762,-1.618263,-0.427259,-0.005122,-0.00734,-0.001397,38.709675,20.667133,13.91049,4.63583E+18,-0.588582,-0.273677,-0.669066,0.36197,0
-9.883087,-1.14126,1.745728,0.567332,0.229443,-0.036009,43.955344,-15.646375,-3.218178,4.63583E+18,0.361444,-0.57903,0.681581,0.263686,-9.69605,-1.353742,0.343899,-0.032044,0.028545,0.020773,43.79517,-11.451356,-10.495806,4.63583E+18,-0.132885,0.712736,-0.418511,-0.54699,-9.638528,-1.616698,-0.411297,-0.017336,-0.008545,-0.005998,38.709675,20.699057,13.897968,4.63583E+18,-0.588611,-0.273592,-0.669085,0.361954,0
-9.98293,-1.098406,1.353197,0.525539,0.166789,-0.026919,43.943665,-15.809891,-3.066524,4.63583E+18,0.363163,-0.577619,0.682629,0.2617,-9.681292,-1.32514,0.317392,-0.032929,0.026002,0.019227,43.957216,-11.40973,-10.452086,4.63583E+18,-0.133833,0.712248,-0.418837,-0.547144,-9.621,-1.596981,-0.364033,-0.030154,-0.009011,-0.01101,38.74692,20.745699,13.990307,4.63583E+18,-0.588647,-0.27346,-0.669127,0.361916,0
-9.960978,-1.09568,1.278791,0.458911,0.105162,-0.01085,43.946651,-15.998725,-3.177966,4.63583E+18,0.36487,-0.576195,0.683541,0.260077,-9.622803,-1.346184,0.300546,-0.035544,0.019299,0.019227,44.057347,-11.486337,-10.522781,4.63583E+18,-0.134784,0.711748,-0.41915,-0.547322,-9.596586,-1.583828,-0.3296,-0.040178,-0.005889,-0.017007,38.832369,20.683425,14.123635,4.63583E+18,-0.588678,-0.273292,-0.669199,0.36186,0
-9.912146,-1.126332,1.420105,0.409676,0.056095,0.004081,43.882098,-15.975975,-3.222754,4.63583E+18,0.366577,-0.574747,0.684357,0.258734,-9.665335,-1.368499,0.28331,-0.033074,0.011527,0.019816,43.99548,-11.504402,-10.468871,4.63583E+18,-0.135755,0.711227,-0.419468,-0.547516,-9.572172,-1.611377,-0.361519,-0.034484,0.001259,-0.024759,38.875261,20.663048,14.191274,4.63583E+18,-0.588671,-0.273127,-0.669288,0.361831,0
-9.881763,-1.15373,1.630862,0.381737,0.023885,0.015545,43.925744,-15.890531,-3.084444,4.63583E+18,0.368292,-0.573269,0.685117,0.257563,-9.767191,-1.410589,0.364122,-0.022209,0.004751,0.021068,44.015694,-11.365924,-10.300511,4.63583E+18,-0.136766,0.710682,-0.419808,-0.547711,-9.574357,-1.669898,-0.434765,-0.001483,0.01079,-0.030565,38.831133,20.853667,14.051053,4.63583E+18,-0.58859,-0.273041,-0.669358,0.361898,0
-9.838908,-1.168924,1.767605,0.368727,0.000148,0.026226,44.001975,-15.740539,-2.901338,4.63583E+18,0.370028,-0.571748,0.685851,0.256499,-9.795809,-1.401323,0.394005,-0.011897,0.003204,0.019116,44.072093,-11.347838,-10.283691,4.63583E+18,-0.137814,0.710132,-0.420164,-0.547888,-9.626931,-1.77757,-0.444177,0.047974,0.021088,-0.037438,38.782921,20.883473,13.903625,4.63583E+18,-0.588415,-0.273073,-0.669386,0.362108,0
-9.780858,-1.16269,1.886692,0.363954,-0.015829,0.034487,43.964574,-15.827806,-2.847312,4.63583E+18,0.371785,-0.570191,0.686571,0.255498,-9.76129,-1.313767,0.379269,0.003942,0.00232,0.013075,44.060726,-11.509902,-10.448698,4.63583E+18,-0.138923,0.709582,-0.420537,-0.548035,-9.684217,-1.786997,-0.381573,0.079233,0.022569,-0.04445,38.788238,20.683455,13.897945,4.63583E+18,-0.588189,-0.273164,-0.669379,0.36242,0
-9.710614,-1.07674,2.02718,0.36075,-0.019227,0.041963,43.762288,-16.183042,-2.825889,4.63583E+18,0.373532,-0.568609,0.687296,0.254523,-9.733931,-1.245997,0.300555,0.020921,-0.001473,0.002394,44.00769,-11.633656,-10.537514,4.63583E+18,-0.140113,0.709032,-0.420913,-0.548155,-9.699568,-1.708434,-0.348697,0.072011,0.022759,-0.051324,38.832353,20.66302,14.07537,4.63583E+18,-0.58796,-0.273218,-0.66939,0.362729,0
-9.637367,-0.957651,2.109144,0.3519,-0.01116,0.048634,43.702503,-16.220146,-2.829129,4.63583E+18,0.375223,-0.567027,0.688036,0.253565,-9.764664,-1.170652,0.252989,0.03186,-0.008286,-0.00917,44.004323,-11.61009,-10.557737,4.63583E+18,-0.141373,0.70848,-0.421275,-0.548267,-9.687361,-1.65489,-0.347124,0.050374,0.024102,-0.058335,38.880581,20.784489,14.271052,4.63583E+18,-0.587741,-0.273202,-0.669446,0.362993,0
-9.600998,-0.844802,2.096435,0.340412,-0.004512,0.059882,43.886859,-15.885819,-2.629326,4.63583E+18,0.376853,-0.565432,0.688798,0.252638,-9.69227,-1.121823,0.244148,0.032119,-0.019262,-0.024529,43.951716,-11.548203,-10.425122,4.63583E+18,-0.142688,0.707929,-0.421587,-0.548399,-9.664522,-1.663948,-0.396545,0.037661,0.023034,-0.066139,38.875265,20.857728,14.276754,4.63583E+18,-0.587528,-0.273131,-0.669526,0.363241,0
-9.512072,-0.817896,2.124331,0.33189,-0.000785,0.068666,43.946651,-15.839471,-2.416093,4.63583E+18,0.378439,-0.563824,0.689576,0.251739,-9.591653,-1.056165,0.25088,0.021697,-0.029539,-0.041693,43.793026,-11.551569,-10.452051,4.63583E+18,-0.144029,0.70739,-0.421818,-0.548566,-9.633216,-1.716519,-0.478255,0.040366,0.024292,-0.074822,38.831159,20.899075,14.14188,4.63583E+18,-0.587296,-0.273045,-0.669616,0.363517,0
-9.374547,-0.863981,2.191598,0.331671,0.004839,0.070498,43.82683,-16.170798,-2.349802,4.63583E+18,0.380002,-0.562213,0.690363,0.250828,-9.579446,-0.969862,0.278658,0.00354,-0.033886,-0.055797,43.721834,-11.536856,-10.522781,4.63583E+18,-0.145356,0.706877,-0.421962,-0.548767,-9.624749,-1.811023,-0.512711,0.054906,0.024843,-0.079973,38.751026,20.936284,14.038514,4.63583E+18,-0.587037,-0.272981,-0.669691,0.363846,0
-9.283359,-0.878933,2.200323,0.334614,0.016894,0.067272,43.852479,-16.33699,-2.417561,4.63583E+18,0.381535,-0.560619,0.691157,0.249877,-9.577335,-0.985831,0.30182,-0.016681,-0.036057,-0.073737,43.880534,-11.495152,-10.495858,4.63583E+18,-0.146667,0.706404,-0.422003,-0.548996,-9.636956,-1.89057,-0.507396,0.070738,0.022431,-0.080714,38.709675,20.984526,14.081033,4.63583E+18,-0.586766,-0.272949,-0.669736,0.364223,0
-9.23777,-0.878933,2.142035,0.341043,0.021101,0.061387,43.937922,-16.228892,-2.441481,4.63583E+18,0.383073,-0.559036,0.691946,0.248889,-9.615213,-1.111274,0.299709,-0.041139,-0.044089,-0.084014,43.951727,-11.548203,-10.452047,4.63583E+18,-0.147943,0.705945,-0.421953,-0.549281,-9.627904,-1.883096,-0.500504,0.085881,0.020106,-0.081971,38.709675,20.984526,14.178692,4.63583E+18,-0.586482,-0.272948,-0.669754,0.364648,0
-9.219581,-0.925013,2.105656,0.349327,0.01975,0.057397,43.894349,-16.187017,-2.294025,4.63583E+18,0.384634,-0.557443,0.69273,0.247871,-9.674991,-1.208533,0.327483,-0.060144,-0.045157,-0.089539,43.836784,-11.548203,-10.549689,4.63583E+18,-0.149179,0.705506,-0.421842,-0.549597,-9.617855,-1.866154,-0.52176,0.102643,0.015695,-0.084849,38.672477,20.947327,14.148805,4.63583E+18,-0.586187,-0.272972,-0.669739,0.365132,0
-9.244238,-0.93997,2.072025,0.356259,0.019227,0.050967,43.873409,-16.251529,-2.31989,4.63583E+18,0.386214,-0.555855,0.6935,0.246823,-9.675863,-1.218622,0.343925,-0.072667,-0.04593,-0.092744,43.904047,-11.524662,-10.617077,4.63583E+18,-0.150385,0.70508,-0.421689,-0.549932,-9.631641,-1.869313,-0.533393,0.108763,0.011096,-0.085917,38.555151,20.968148,13.958814,4.63583E+18,-0.585895,-0.273002,-0.669704,0.365641,0
-9.271641,-0.903111,1.989332,0.357023,0.013583,0.04591,43.753614,-16.14346,-2.279317,4.63583E+18,0.387813,-0.55427,0.694248,0.245776,-9.614833,-1.25524,0.327477,-0.081179,-0.047107,-0.095948,44.080933,-11.442582,-10.584702,4.63583E+18,-0.151573,0.704664,-0.421505,-0.55028,-9.647581,-1.850212,-0.518024,0.100633,0.003758,-0.08745,38.460213,21.158724,13.812896,4.63583E+18,-0.585632,-0.272996,-0.669665,0.366139,0
-9.30527,-0.845068,1.928534,0.348699,0.010943,0.040831,43.585708,-15.981776,-2.184653,4.63583E+18,0.389404,-0.552702,0.69497,0.244748,-9.536998,-1.291859,0.387621,-0.082649,-0.049615,-0.099446,44.033885,-11.389507,-10.549666,4.63583E+18,-0.152771,0.704249,-0.421305,-0.550633,-9.673576,-1.843318,-0.50898,0.092138,-0.000138,-0.086797,38.45332,21.289711,13.800246,4.63583E+18,-0.585389,-0.272965,-0.669629,0.366616,0
-9.360322,-0.784031,1.879704,0.334792,0.009069,0.033071,43.553022,-16.191661,-2.151496,4.63583E+18,0.39097,-0.551176,0.695653,0.243751,-9.44517,-1.368808,0.516416,-0.089755,-0.045126,-0.099896,43.957078,-11.365983,-10.62044,4.63583E+18,-0.15394,0.703851,-0.421089,-0.550981,-9.675159,-1.827382,-0.504232,0.082288,0.000603,-0.084384,38.45332,21.252528,13.897898,4.63583E+18,-0.585159,-0.272918,-0.669606,0.367058,0
-9.384499,-0.722999,1.876946,0.318227,0.004514,0.026945,43.675789,-16.336962,-2.148503,4.63583E+18,0.392513,-0.54969,0.696291,0.242803,-9.469925,-1.531752,0.632658,-0.097682,-0.034151,-0.088813,44.124615,-11.257013,-10.647322,4.63583E+18,-0.15504,0.703467,-0.42089,-0.551316,-9.647016,-1.785448,-0.493047,0.059155,-0.002789,-0.084848,38.490503,21.172389,13.94775,4.63583E+18,-0.584965,-0.272808,-0.669611,0.367441,0
-9.405919,-0.68039,1.889153,0.297913,0.006429,0.023217,43.834482,-16.164446,-2.157716,4.63583E+18,0.394003,-0.548249,0.696898,0.241904,-9.571833,-1.644968,0.689432,-0.094664,-0.020051,-0.072684,44.1926,-11.089483,-10.718101,4.63583E+18,-0.156083,0.703087,-0.420751,-0.551612,-9.608811,-1.7738,-0.446363,0.029575,-0.007803,-0.082663,38.538773,21.162883,13.983345,4.63583E+18,-0.584821,-0.272625,-0.669647,0.367742,0
-9.421121,-0.68062,1.910574,0.282999,0.008283,0.021625,43.81813,-16.166057,-2.151497,4.63583E+18,0.39545,-0.546838,0.697486,0.24104,-9.603867,-1.753606,0.779144,-0.090205,0.000244,-0.053164,44.001543,-11.018124,-10.664354,4.63583E+18,-0.15706,0.702717,-0.420693,-0.55185,-9.584398,-1.842282,-0.450087,0.007381,-0.011937,-0.07672,38.544083,21.20426,14.123481,4.63583E+18,-0.584723,-0.272397,-0.669699,0.367971,0
-9.460954,-0.692824,1.944191,0.27099,0.006933,0.01814,43.800163,-16.43568,-2.286649,4.63583E+18,0.396873,-0.545457,0.698045,0.240211,-9.588302,-1.826848,0.77546,-0.086599,0.021126,-0.032282,43.824577,-11.156663,-10.522781,4.63583E+18,-0.157967,0.702354,-0.420722,-0.552031,-9.565294,-1.920286,-0.45326,-0.002462,-0.016348,-0.068126,38.508496,21.241433,14.106382,4.63583E+18,-0.584661,-0.272163,-0.669746,0.368157,0
-9.528197,-0.732657,1.971602,0.259242,0.00238,0.015479,43.855416,-16.461365,-2.331614,4.63583E+18,0.39828,-0.5441,0.698574,0.239422,-9.563889,-1.906801,0.679034,-0.07736,0.041792,-0.008971,43.868227,-11.1951,-10.549643,4.63583E+18,-0.15881,0.701992,-0.420854,-0.552149,-9.569016,-1.946287,-0.466015,-0.003343,-0.020482,-0.055309,38.421462,21.289711,13.903686,4.63583E+18,-0.584632,-0.271956,-0.66977,0.368313,0
-9.573818,-0.827539,1.96839,0.252326,-0.005379,0.01576,43.937876,-16.314436,-2.119789,4.63583E+18,0.399692,-0.54274,0.699083,0.238668,-9.556262,-1.977599,0.62807,-0.061124,0.058108,0.015783,43.983273,-11.109648,-10.62044,4.63583E+18,-0.159612,0.701617,-0.421102,-0.552205,-9.582811,-1.947876,-0.489887,-0.000743,-0.02257,-0.042028,38.380077,21.252553,13.935028,4.63583E+18,-0.584626,-0.271789,-0.669769,0.368447,0
-9.619648,-0.909772,1.974601,0.249403,-0.017952,0.016022,43.903606,-16.327722,-1.903499,4.63583E+18,0.401132,-0.541367,0.699568,0.237949,-9.589526,-1.957456,0.590227,-0.041043,0.074317,0.038801,43.939629,-11.071201,-10.593582,4.63583E+18,-0.160389,0.701227,-0.421473,-0.552193,-9.561582,-1.946285,-0.476089,0.001533,-0.023221,-0.027679,38.449074,21.241412,14.038514,4.63583E+18,-0.584641,-0.271667,-0.669747,0.368553,0
-9.613224,-0.936971,2.032851,0.252101,-0.027003,0.015216,43.940867,-16.345713,-2.002864,4.63583E+18,0.402601,-0.539983,0.700034,0.237242,-9.613939,-1.874149,0.520345,-0.02804,0.087614,0.06043,43.848071,-11.156645,-10.522781,4.63583E+18,-0.161132,0.700819,-0.421947,-0.552132,-9.544596,-1.958491,-0.465475,0.004458,-0.02935,-0.014119,38.565306,21.321552,13.911149,4.63583E+18,-0.584691,-0.27158,-0.66969,0.36864,0
-9.598018,-0.986013,2.069261,0.265237,-0.033675,0.014148,43.8944,-16.290461,-2.050844,4.63583E+18,0.404116,-0.538572,0.700496,0.236508,-9.645066,-1.754214,0.459308,-0.016183,0.096721,0.073728,43.930167,-11.195111,-10.549631,4.63583E+18,-0.161861,0.700402,-0.422492,-0.552032,-9.55309,-1.949474,-0.43045,0.010263,-0.031395,-0.003763,38.536136,21.331119,13.750842,4.63583E+18,-0.584756,-0.271534,-0.669608,0.368722,0
-9.622642,-1.019422,2.093674,0.284481,-0.041694,0.01308,43.818163,-16.263261,-1.903523,4.63583E+18,0.405697,-0.537118,0.70096,0.235731,-9.690538,-1.590951,0.38485,-0.00446,0.099444,0.083128,43.983273,-11.133152,-10.593594,4.63583E+18,-0.162593,0.699969,-0.423089,-0.551909,-9.567414,-1.939382,-0.386926,0.013422,-0.030558,0.004782,38.384341,21.252569,13.800192,4.63583E+18,-0.584828,-0.27152,-0.669513,0.36879,0
-9.668465,-1.00701,2.062849,0.295107,-0.047822,0.013623,43.919842,-16.324704,-1.781877,4.63583E+18,0.407315,-0.535636,0.701422,0.234936,-9.727158,-1.413636,0.30854,-0.001549,0.101074,0.084571,44.030239,-11.180118,-10.549619,4.63583E+18,-0.163327,0.699535,-0.423697,-0.551776,-9.616241,-1.937268,-0.360917,0.010032,-0.033252,0.013791,38.363594,21.27323,13.81296,4.63583E+18,-0.584926,-0.271519,-0.669406,0.368829,0
-9.698882,-1.010213,2.06005,0.305806,-0.05719,0.017913,44.023299,-16.345713,-1.831512,4.63583E+18,0.408975,-0.534115,0.701883,0.234139,-9.740296,-1.315976,0.314038,-0.001174,0.095147,0.081073,44.154179,-11.304055,-10.593603,4.63583E+18,-0.164078,0.699094,-0.42429,-0.551656,-9.649153,-1.911258,-0.380538,0.005945,-0.03158,0.021547,38.51167,21.469047,13.67287,4.63583E+18,-0.585035,-0.271532,-0.669301,0.368837,0
-9.69568,-1.02242,2.081463,0.319166,-0.060622,0.022449,43.860197,-16.345713,-1.929171,4.63583E+18,0.410667,-0.532552,0.702357,0.233316,-9.691468,-1.245155,0.311894,-0.006914,0.089137,0.076214,44.154179,-11.257095,-10.469112,4.63583E+18,-0.164833,0.698652,-0.424851,-0.55156,-9.650752,-1.883137,-0.441575,0.002092,-0.032369,0.025032,38.555774,21.569972,13.604862,4.63583E+18,-0.585156,-0.271544,-0.669196,0.368826,0
-9.665061,-0.988599,2.151906,0.333052,-0.059273,0.022694,43.68049,-16.410154,-1.805893,4.63583E+18,0.412382,-0.53096,0.702845,0.232446,-9.64935,-1.235095,0.316187,-0.016233,0.087295,0.069219,44.150825,-11.133152,-10.300637,4.63583E+18,-0.165578,0.698224,-0.425368,-0.551479,-9.649153,-1.866133,-0.481393,-0.004457,-0.037893,0.027028,38.418887,21.38375,13.702516,4.63583E+18,-0.585303,-0.271537,-0.669085,0.368799,0
-9.610028,-0.985798,2.237358,0.35741,-0.049082,0.019209,43.761142,-16.550839,-1.675014,4.63583E+18,0.41412,-0.529343,0.703363,0.231475,-9.631641,-1.211886,0.27071,-0.024485,0.08476,0.062434,44.145325,-11.180098,-10.25663,4.63583E+18,-0.16632,0.697808,-0.425844,-0.551415,-9.640147,-1.864031,-0.488296,-0.010261,-0.043654,0.029768,38.331747,21.135319,13.800169,4.63583E+18,-0.585477,-0.271515,-0.668966,0.368754,0
-9.57661,-0.979595,2.249165,0.390011,-0.032238,0.017353,43.800163,-16.599065,-1.86891,4.63583E+18,0.415877,-0.527693,0.70393,0.230369,-9.651758,-1.24421,0.234089,-0.030202,0.078938,0.059711,44.130708,-11.304055,-10.381109,4.63583E+18,-0.167059,0.697389,-0.426294,-0.551374,-9.603524,-1.843318,-0.472387,-0.01899,-0.04811,0.032368,38.517957,21.119806,13.8501,4.63583E+18,-0.585678,-0.271472,-0.668847,0.368685,0
-9.570604,-0.976592,2.190937,0.417748,-0.02294,0.014674,43.735733,-16.537639,-1.940977,4.63583E+18,0.417664,-0.526009,0.704528,0.229156,-9.708237,-1.309544,0.200822,-0.031563,0.073492,0.056025,44.045263,-11.280593,-10.522781,4.63583E+18,-0.167809,0.696966,-0.426723,-0.551349,-9.577509,-1.843318,-0.446371,-0.031667,-0.054195,0.036037,38.692165,21.285399,13.800775,4.63583E+18,-0.585915,-0.271399,-0.668728,0.368578,0
-9.570604,-0.995001,2.172918,0.436941,-0.022168,0.010664,43.843572,-16.571842,-1.655645,4.63583E+18,0.41949,-0.524297,0.705134,0.227874,-9.713742,-1.335159,0.179759,-0.030473,0.065534,0.053596,44.006735,-11.242066,-10.469153,4.63583E+18,-0.168581,0.696529,-0.427141,-0.551342,-9.586509,-1.859223,-0.444768,-0.042305,-0.057076,0.040773,38.685261,21.375164,13.703123,4.63583E+18,-0.586179,-0.271309,-0.668613,0.368432,0
-9.589011,-1.019413,2.108496,0.441145,-0.024847,0.01364,43.885616,-16.589861,-1.415297,4.63583E+18,0.421326,-0.522561,0.705743,0.226588,-9.71494,-1.396194,0.167552,-0.01998,0.058832,0.051858,44.045265,-11.280596,-10.354274,4.63583E+18,-0.169399,0.696072,-0.427574,-0.551333,-9.623131,-1.901147,-0.462277,-0.049642,-0.059536,0.046114,38.717071,21.306242,13.610765,4.63583E+18,-0.586467,-0.271212,-0.668496,0.368257,0
-9.595019,-1.016219,2.06906,0.442756,-0.036104,0.018175,43.765978,-16.589861,-1.367229,4.63583E+18,0.423188,-0.520791,0.70634,0.225326,-9.744858,-1.447174,0.172098,-0.006577,0.051648,0.052821,43.983273,-11.195152,-10.425122,4.63583E+18,-0.170264,0.695589,-0.428032,-0.55132,-9.633246,-1.939372,-0.444283,-0.051229,-0.060561,0.051918,38.7267,21.216467,13.604833,4.63583E+18,-0.586768,-0.271126,-0.668374,0.368063,0
-9.56741,-1.03162,2.118268,0.451334,-0.04999,0.021642,43.542861,-16.525442,-1.431649,4.63583E+18,0.425102,-0.518978,0.706924,0.224073,-9.736964,-1.454837,0.204176,0.00779,0.046705,0.052151,44.006725,-11.156604,-10.39832,4.63583E+18,-0.171179,0.695087,-0.428516,-0.551295,-9.603531,-1.947884,-0.381641,-0.039577,-0.058748,0.06111,38.685261,21.248272,13.69719,4.63583E+18,-0.587066,-0.271096,-0.668227,0.367878,0
-9.558396,-1.019226,2.182304,0.468455,-0.061459,0.020016,43.53798,-16.50441,-1.461883,4.63583E+18,0.427081,-0.517124,0.707495,0.222789,-9.692678,-1.411517,0.202018,0.020315,0.045637,0.054182,44.068726,-11.265503,-10.327463,4.63583E+18,-0.172126,0.694568,-0.429034,-0.55125,-9.566908,-1.940977,-0.348714,-0.024806,-0.059212,0.071608,38.685261,21.257905,13.745536,4.63583E+18,-0.587363,-0.271131,-0.668044,0.367708,0
-9.530796,-0.958013,2.270934,0.4909,-0.071334,0.016812,43.868822,-16.440007,-1.464888,4.63583E+18,0.429134,-0.515231,0.708053,0.221456,-9.692678,-1.370578,0.22978,0.030012,0.044862,0.0537,44.072074,-11.433043,-10.377696,4.63583E+18,-0.173104,0.694042,-0.429572,-0.551188,-9.54089,-1.946277,-0.304711,-0.011203,-0.059353,0.079548,38.653463,21.147572,13.708439,4.63583E+18,-0.587658,-0.271221,-0.667831,0.367557,0
-9.494172,-0.857161,2.3686,0.510375,-0.068872,0.019243,44.09068,-16.418957,-1.474089,4.63583E+18,0.431211,-0.513297,0.70863,0.220063,-9.689329,-1.366041,0.246309,0.034578,0.044276,0.054183,44.101026,-11.524761,-10.487132,4.63583E+18,-0.174092,0.693511,-0.430119,-0.551119,-9.533982,-1.942587,-0.245758,0.006673,-0.057357,0.087629,38.612015,21.020679,13.660085,4.63583E+18,-0.58794,-0.271381,-0.667587,0.367433,0
-9.466754,-0.76571,2.429448,0.523701,-0.063269,0.025124,44.010174,-16.483352,-1.394304,4.63583E+18,0.433288,-0.51132,0.709236,0.218627,-9.687169,-1.300464,0.219733,0.038453,0.04214,0.0537,44.154179,-11.442656,-10.398328,4.63583E+18,-0.175094,0.692973,-0.43067,-0.551048,-9.539281,-1.939367,-0.231941,0.03114,-0.050907,0.095106,38.680899,21.009409,13.660085,4.63583E+18,-0.588187,-0.271631,-0.667312,0.367352,0
-9.460737,-0.689455,2.413882,0.526597,-0.057928,0.033143,43.787075,-16.50441,-1.367229,4.63583E+18,0.435342,-0.509311,0.709868,0.217181,-9.684781,-1.21739,0.246539,0.037281,0.04059,0.052423,44.110618,-11.389507,-10.300657,4.63583E+18,-0.176097,0.692435,-0.431212,-0.550981,-9.519699,-1.942588,-0.258431,0.063365,-0.042544,0.102119,38.802501,21.094857,13.6177,4.63583E+18,-0.588385,-0.271992,-0.667,0.367334,0
-9.488337,-0.625408,2.395659,0.528207,-0.066272,0.039274,43.54292,-16.44001,-1.367229,4.63583E+18,0.437412,-0.507266,0.710494,0.215756,-9.62829,-1.235344,0.337501,0.034767,0.040296,0.045826,43.972021,-11.433075,-10.283426,4.63583E+18,-0.177109,0.691909,-0.43173,-0.550912,-9.516936,-1.934067,-0.335356,0.094903,-0.038594,0.108528,38.806876,21.143223,13.520047,4.63583E+18,-0.588546,-0.272455,-0.666642,0.367383,0
-9.442167,-0.628768,2.484639,0.532758,-0.073454,0.043809,43.482769,-16.363764,-1.367229,4.63583E+18,0.439502,-0.505186,0.711115,0.214337,-9.622783,-1.299492,0.387287,0.034558,0.040401,0.041847,43.91003,-11.548203,-10.398323,4.63583E+18,-0.178127,0.69139,-0.432235,-0.550839,-9.621963,-1.946274,-0.411826,0.123461,-0.041557,0.1154,38.758507,21.143223,13.422388,4.63583E+18,-0.588693,-0.273002,-0.666225,0.367498,0
-9.414918,-0.597996,2.542317,0.535683,-0.071551,0.048081,43.666715,-16.529659,-1.43161,4.63583E+18,0.441581,-0.50309,0.71174,0.212915,-9.634991,-1.27173,0.365032,0.028736,0.044484,0.038349,43.91003,-11.528108,-10.273875,4.63583E+18,-0.179128,0.690891,-0.432719,-0.55076,-9.720775,-1.942591,-0.43417,0.154436,-0.047462,0.121486,38.795582,21.074366,13.409479,4.63583E+18,-0.588831,-0.273632,-0.665739,0.36769,0
-9.411908,-0.539971,2.496166,0.535405,-0.071302,0.055573,43.726917,-16.7738,-1.379105,4.63583E+18,0.443643,-0.50097,0.712373,0.211506,-9.650549,-1.235104,0.306148,0.026222,0.048548,0.034369,43.956935,-11.471609,-10.18575,4.63583E+18,-0.180122,0.690411,-0.433187,-0.55067,-9.693846,-1.907587,-0.448442,0.178459,-0.048993,0.126685,38.849252,20.883906,13.464766,4.63583E+18,-0.588952,-0.274333,-0.665206,0.367937,0
-9.402712,-0.442156,2.496495,0.539165,-0.071566,0.059289,43.671744,-16.898379,-1.198693,4.63583E+18,0.445704,-0.498824,0.713011,0.210091,-9.664914,-1.218583,0.213999,0.029237,0.047292,0.029699,44.080933,-11.509651,-10.377712,4.63583E+18,-0.181134,0.689936,-0.433644,-0.550574,-9.594566,-1.842865,-0.497274,0.183682,-0.056691,0.131704,38.819089,20.784365,13.427691,4.63583E+18,-0.589097,-0.27505,-0.664639,0.368196,0
-9.408895,-0.341497,2.557684,0.549332,-0.073175,0.057403,43.644481,-16.726379,-1.15669,4.63583E+18,0.447785,-0.496656,0.713645,0.208641,-9.639312,-1.23176,0.127584,0.034871,0.046308,0.022034,44.037398,-11.633656,-10.43355,4.63583E+18,-0.182179,0.689469,-0.434089,-0.550463,-9.556781,-1.768008,-0.540806,0.169717,-0.074425,0.134445,38.797193,20.894678,13.336946,4.63583E+18,-0.58931,-0.275712,-0.664047,0.368428,0
-9.421103,-0.308197,2.667713,0.563496,-0.073702,0.056612,43.770199,-16.543569,-1.095338,4.63583E+18,0.449891,-0.494458,0.714283,0.207146,-9.595019,-1.186279,0.153402,0.041866,0.0399,0.015228,43.965772,-11.610213,-10.149431,4.63583E+18,-0.183274,0.688991,-0.43453,-0.55035,-9.644725,-1.701685,-0.556246,0.143583,-0.093932,0.135655,38.90587,20.95276,13.27636,4.63583E+18,-0.589608,-0.276282,-0.663444,0.368608,0
-9.424115,-0.295992,2.633483,0.578448,-0.074507,0.053394,43.692859,-16.688275,-0.84442,4.63583E+18,0.452026,-0.492231,0.71492,0.205598,-9.588322,-1.139612,0.295351,0.043379,0.036714,0.005426,44.147902,-11.548203,-9.936827,4.63583E+18,-0.1844,0.688523,-0.434943,-0.550234,-9.789157,-1.63903,-0.517567,0.112144,-0.110096,0.137508,39.071481,20.911282,13.311802,4.63583E+18,-0.58999,-0.276756,-0.662848,0.368714,0
-9.442503,-0.357333,2.548029,0.600643,-0.086033,0.046708,43.653675,-16.868075,-0.695517,4.63583E+18,0.454238,-0.489966,0.715534,0.203992,-9.577298,-1.079765,0.359528,0.022483,0.042347,-0.000879,44.325081,-11.571633,-9.990379,4.63583E+18,-0.185468,0.688096,-0.435291,-0.550133,-9.835496,-1.606084,-0.497261,0.079176,-0.125512,0.140854,39.16135,20.911282,13.324762,4.63583E+18,-0.590457,-0.277134,-0.66226,0.368739,0
-9.503694,-0.451982,2.637261,0.63406,-0.108227,0.038426,43.708837,-16.723373,-0.827705,4.63583E+18,0.456583,-0.487639,0.716107,0.202315,-9.625136,-1.088815,0.338461,-0.005856,0.047877,-0.00379,44.301656,-11.633656,-10.105374,4.63583E+18,-0.186448,0.687711,-0.435568,-0.550065,-9.772422,-1.646792,-0.524918,0.043611,-0.13968,0.144379,39.087271,20.842494,13.147745,4.63583E+18,-0.59101,-0.277413,-0.661687,0.368673,0
-9.530968,-0.476089,2.746965,0.665548,-0.121531,0.031491,43.846427,-16.543598,-0.961669,4.63583E+18,0.459027,-0.485257,0.716657,0.200555,-9.704885,-1.176438,0.349682,-0.025756,0.051374,-0.005341,44.25971,-11.610226,-10.00771,4.63583E+18,-0.187369,0.687351,-0.435799,-0.550019,-9.690637,-1.730202,-0.519627,0.002985,-0.15004,0.153423,38.995739,20.620302,12.993968,4.63583E+18,-0.591651,-0.2776,-0.661141,0.368484,0
-9.552365,-0.48528,2.798655,0.697061,-0.126318,0.025887,43.830466,-16.559558,-0.906077,4.63583E+18,0.461544,-0.48282,0.717204,0.198697,-9.691502,-1.244162,0.399498,-0.041191,0.05711,-0.004462,44.269377,-11.571625,-9.936827,4.63583E+18,-0.188231,0.687016,-0.436,-0.549984,-9.640184,-1.842518,-0.502129,-0.024746,-0.152567,0.167309,39.140214,20.484436,13.074955,4.63583E+18,-0.592352,-0.277753,-0.660613,0.368187,0
-9.576781,-0.433143,2.844471,0.721064,-0.125501,0.022959,43.692873,-16.577654,-0.658321,4.63583E+18,0.4641,-0.480333,0.71776,0.196754,-9.642673,-1.319576,0.387291,-0.052735,0.067017,0.000206,44.067184,-11.680499,-9.990362,4.63583E+18,-0.189032,0.686703,-0.436197,-0.549943,-9.614144,-1.963764,-0.498876,-0.011109,-0.147226,0.184896,39.383524,20.633361,13.129469,4.63583E+18,-0.59305,-0.277996,-0.660058,0.367878,0
-9.55524,-0.313958,2.838152,0.737599,-0.132211,0.021627,43.534199,-16.761461,-0.42972,4.63583E+18,0.4667,-0.477802,0.718306,0.194766,-9.593844,-1.385132,0.375084,-0.05427,0.078576,0.008458,43.903695,-11.78114,-10.105381,4.63583E+18,-0.189788,0.686404,-0.436423,-0.549877,-9.607226,-1.972309,-0.539161,0.022716,-0.15068,0.205939,39.429505,20.764793,12.952461,4.63583E+18,-0.593749,-0.278375,-0.659416,0.367614,0
-9.518617,-0.179672,2.795355,0.747728,-0.14102,0.020559,43.430643,-17.005617,-0.51629,4.63583E+18,0.469335,-0.475242,0.718827,0.192761,-9.53833,-1.508367,0.382944,-0.041921,0.091583,0.016812,44.101,-11.719108,-9.980974,4.63583E+18,-0.190535,0.686112,-0.43671,-0.549756,-9.601937,-1.954813,-0.531434,0.059743,-0.162857,0.219611,39.317612,20.627272,12.835673,4.63583E+18,-0.594459,-0.278864,-0.658672,0.367431,0
-9.436039,-0.054578,2.80167,0.758686,-0.143132,0.021099,43.52901,-16.946466,-0.791317,4.63583E+18,0.471985,-0.472655,0.71934,0.190729,-9.485152,-1.646993,0.427259,-0.019198,0.104605,0.029249,44.110705,-11.719108,-9.812414,4.63583E+18,-0.191294,0.685808,-0.437095,-0.549566,-9.621462,-1.909246,-0.444358,0.113964,-0.170476,0.219541,39.303344,20.41567,12.891018,4.63583E+18,-0.595126,-0.279475,-0.657824,0.367405,0
-9.384342,0.067474,2.816892,0.764001,-0.142328,0.023775,43.752,-16.842932,-0.793215,4.63583E+18,0.474629,-0.470043,0.719852,0.188682,-9.491838,-1.70235,0.427259,0.004299,0.124415,0.04663,44.018881,-11.719108,-9.768252,4.63583E+18,-0.192043,0.685499,-0.4376,-0.549288,-9.740672,-1.735521,-0.386979,0.158653,-0.176422,0.215623,39.456753,20.411176,12.806403,4.63583E+18,-0.595751,-0.280176,-0.656897,0.367518,0
-9.356907,0.143605,2.81991,0.76399,-0.14528,0.030196,43.885885,-16.886126,-0.410686,4.63583E+18,0.477266,-0.467397,0.720361,0.186647,-9.519595,-1.681279,0.44063,0.02926,0.144607,0.063911,44.124386,-11.672311,-9.865908,4.63583E+18,-0.192782,0.685187,-0.438223,-0.548921,-9.851375,-1.430352,-0.360934,0.163181,-0.187314,0.206655,39.508052,20.422594,12.616382,4.63583E+18,-0.596385,-0.280847,-0.655945,0.367678,0
-9.323302,0.186265,2.764772,0.76453,-0.143924,0.03124,43.845702,-16.907253,-0.292978,4.63583E+18,0.479887,-0.464738,0.720866,0.184605,-9.539505,-1.669072,0.492798,0.056051,0.163159,0.080034,44.219577,-11.594991,-9.910091,4.63583E+18,-0.193522,0.684869,-0.438965,-0.548465,-9.861949,-1.241502,-0.354015,0.139186,-0.198533,0.183157,39.429526,20.273704,12.433284,4.63583E+18,-0.597041,-0.281377,-0.655028,0.367843,0
-9.286683,0.149376,2.792608,0.779266,-0.139112,0.03178,43.815389,-16.907253,-0.504313,4.63583E+18,0.48251,-0.462046,0.721379,0.182509,-9.518432,-1.653522,0.547154,0.078293,0.186176,0.099847,44.166386,-11.742506,-9.785685,4.63583E+18,-0.194238,0.684547,-0.439834,-0.547917,-9.902225,-1.157296,-0.375163,0.106183,-0.202519,0.162434,39.412805,20.110494,12.244886,4.63583E+18,-0.597714,-0.281761,-0.654175,0.367973,0
-9.240874,0.134281,2.899584,0.807335,-0.120104,0.03124,43.75724,-16.907253,-0.500243,4.63583E+18,0.485117,-0.459305,0.721939,0.180288,-9.499543,-1.625767,0.577089,0.096426,0.212203,0.122377,44.209825,-11.82795,-9.617116,4.63583E+18,-0.194904,0.684227,-0.44083,-0.547279,-9.915681,-0.984383,-0.413417,0.063569,-0.208003,0.138406,39.554768,20.105976,12.134159,4.63583E+18,-0.598414,-0.281965,-0.653401,0.368053,0
-9.247173,0.14347,2.801143,0.825448,-0.107056,0.02776,43.619679,-16.907253,-0.329078,4.63583E+18,0.48771,-0.456536,0.722523,0.177974,-9.472945,-1.549047,0.539174,0.089892,0.241234,0.148598,44.25825,-11.843229,-9.522798,4.63583E+18,-0.195436,0.683929,-0.441909,-0.546592,-9.87214,-0.824441,-0.416688,0.015968,-0.212738,0.103908,39.691553,20.186136,12.213442,4.63583E+18,-0.59913,-0.281949,-0.652728,0.368095,0
-9.280773,0.164863,2.667003,0.836921,-0.101463,0.0259,43.396688,-16.842944,-0.207274,4.63583E+18,0.490297,-0.453739,0.723113,0.175605,-9.476286,-1.402696,0.368281,0.061144,0.265597,0.176075,44.034163,-11.719108,-9.434011,4.63583E+18,-0.195776,0.683659,-0.443019,-0.545909,-9.80909,-0.75321,-0.339418,-0.036581,-0.224091,0.067129,39.629763,20.227667,12.280271,4.63583E+18,-0.599881,-0.281684,-0.65215,0.368099,0
-9.280647,0.23521,2.673546,0.845191,-0.10121,0.021616,43.520015,-17.005536,-0.109618,4.63583E+18,0.492888,-0.450931,0.723688,0.1732,-9.488491,-1.380582,0.254163,0.029015,0.283752,0.200145,43.956765,-11.742475,-9.336372,4.63583E+18,-0.195933,0.68341,-0.444138,-0.545254,-9.764285,-0.790578,-0.171797,-0.091769,-0.239617,0.031595,39.603198,20.195958,12.14726,4.63583E+18,-0.600685,-0.28116,-0.651659,0.368059,0
-9.305187,0.283916,2.584575,0.846237,-0.103886,0.013864,43.709044,-17.06595,-0.021145,4.63583E+18,0.495481,-0.448136,0.724229,0.170778,-9.473997,-1.412721,0.324158,0.008445,0.30045,0.219862,44.080933,-11.851285,-9.238719,4.63583E+18,-0.195952,0.683178,-0.44528,-0.544606,-9.836255,-0.908998,0.018224,-0.130267,-0.247523,0.002184,39.717973,20.186127,12.0365,4.63583E+18,-0.601509,-0.280448,-0.651241,0.367997,0
-9.387725,0.311347,2.404396,0.836329,-0.114322,0.006928,43.687043,-16.937367,0,4.63583E+18,0.498077,-0.445364,0.724718,0.168387,-9.388541,-1.390499,0.476187,0.005925,0.317649,0.242186,44.057565,-12.022198,-9.114349,4.63583E+18,-0.19588,0.682944,-0.446493,-0.543932,-9.933548,-0.969669,0.206619,-0.147436,-0.250409,-0.024233,39.696104,20.195963,12.0365,4.63583E+18,-0.602319,-0.279616,-0.650872,0.367958,0
-9.503746,0.344944,2.245824,0.810655,-0.123121,0.000519,43.546494,-16.83076,0.064286,4.63583E+18,0.500645,-0.442646,0.725148,0.166071,-9.323119,-1.341673,0.573748,0.007477,0.347947,0.254327,44.0422,-12.166389,-8.89235,4.63583E+18,-0.195728,0.682752,-0.44777,-0.543178,-9.934824,-0.929041,0.349093,-0.151215,-0.249166,-0.054459,39.613022,20.117439,12.0365,4.63583E+18,-0.603084,-0.278694,-0.650545,0.367982,0
-9.579896,0.37238,2.191175,0.759056,-0.132205,-0.007496,43.571463,-16.938151,0.158913,4.63583E+18,0.503138,-0.440046,0.725497,0.163908,-9.334272,-1.332889,0.543714,0.007769,0.382712,0.269765,44.166386,-12.242971,-8.679463,4.63583E+18,-0.195473,0.682607,-0.44912,-0.542337,-9.842095,-0.967095,0.390637,-0.12796,-0.237498,-0.08835,39.681697,20.037276,11.951978,4.63583E+18,-0.603737,-0.277756,-0.650251,0.36814,0
-9.585838,0.360067,2.084132,0.673804,-0.129766,-0.012827,43.647724,-17.099853,0.192292,4.63583E+18,0.505458,-0.437639,0.725772,0.161986,-9.40084,-1.397178,0.440524,0.014384,0.414648,0.282774,44.146365,-12.351777,-8.702821,4.63583E+18,-0.195143,0.682503,-0.450544,-0.541405,-9.744792,-1.193753,0.343094,-0.052047,-0.215672,-0.123742,39.798133,20.064401,11.79892,4.63583E+18,-0.604188,-0.276946,-0.649936,0.368567,0
-9.647085,0.344833,1.894751,0.644075,-0.141836,-0.025937,43.601608,-17.084103,0.121863,4.63583E+18,0.50776,-0.435321,0.725968,0.160145,-9.473016,-1.372765,0.318387,0.037205,0.434649,0.291412,44.069791,-12.522666,-8.661509,4.63583E+18,-0.194816,0.682407,-0.452058,-0.54038,-9.738221,-1.365937,0.201541,0.095434,-0.195091,-0.157459,39.801065,20.223089,11.743522,4.63583E+18,-0.60436,-0.276448,-0.649483,0.369454,0
-9.695807,0.332626,1.925949,0.682125,-0.17847,-0.053205,43.461074,-16.937413,0.02421,4.63583E+18,0.51025,-0.432973,0.726054,0.158194,-9.58061,-1.274975,0.122008,0.060406,0.452708,0.292573,44.031037,-12.666881,-8.279757,4.63583E+18,-0.194519,0.682324,-0.453646,-0.53926,-9.776485,-1.581419,0.081816,0.320261,-0.186176,-0.196115,39.722545,20.344807,11.743522,4.63583E+18,-0.604189,-0.276424,-0.648751,0.371036,0
-9.649801,0.320419,2.12762,0.717054,-0.193079,-0.082574,43.541084,-16.830781,0.137712,4.63583E+18,0.512855,-0.430621,0.726071,0.156097,-9.600558,-0.975354,0.017746,0.070206,0.465035,0.288301,44.09314,-12.766793,-7.969175,4.63583E+18,-0.194232,0.682265,-0.455254,-0.538082,-9.822024,-1.740032,0.092724,0.556746,-0.19585,-0.240659,39.674061,20.386364,11.664305,4.63583E+18,-0.6037,-0.276859,-0.647676,0.373379,0
-9.650003,0.253127,2.074955,0.731434,-0.200026,-0.104988,43.708962,-16.87386,0.256558,4.63583E+18,0.515511,-0.428296,0.726031,0.153917,-9.562806,-0.781328,-0.036676,0.067096,0.470667,0.281695,44.11648,-12.914358,-7.871516,4.63583E+18,-0.193937,0.68223,-0.456838,-0.536889,-9.926948,-1.615975,0.171245,0.759305,-0.220476,-0.286617,39.631816,20.523657,11.433679,4.63583E+18,-0.602966,-0.277638,-0.646271,0.376409,0
-9.610152,0.213579,1.809116,0.737031,-0.219553,-0.122872,43.751335,-16.950131,0.354217,4.63583E+18,0.518234,-0.425993,0.725911,0.151712,-9.529572,-0.905607,-0.180961,0.04513,0.474159,0.273545,44.221937,-12.97647,-7.72051,4.63583E+18,-0.193585,0.682233,-0.458351,-0.535721,-10.02063,-1.44673,0.26725,0.875334,-0.246195,-0.328501,39.565842,20.904383,11.140721,4.63583E+18,-0.602093,-0.278552,-0.644658,0.37988,0
-9.512401,0.152448,1.733451,0.73568,-0.231805,-0.139158,43.687076,-17.032548,0.314171,4.63583E+18,0.52099,-0.42373,0.725723,0.149494,-9.64282,-1.036601,-0.325188,-0.043177,0.469011,0.282776,44.293949,-12.999807,-7.480883,4.63583E+18,-0.192968,0.682276,-0.459687,-0.534744,-9.950011,-1.158026,0.392956,0.823446,-0.261293,-0.341922,39.546707,21.167637,10.810786,4.63583E+18,-0.60129,-0.279271,-0.643095,0.383258,0
-9.466796,0.079212,1.733451,0.732476,-0.241152,-0.155178,43.730131,-16.934425,0.136947,4.63583E+18,0.523766,-0.421511,0.725473,0.147265,-9.849203,-1.089677,-0.398426,-0.226121,0.456286,0.305497,44.158596,-13.105247,-7.436556,4.63583E+18,-0.191802,0.682391,-0.460669,-0.534172,-9.807493,-0.957788,0.544716,0.700473,-0.279335,-0.330924,39.566174,21.167637,10.432376,4.63583E+18,-0.600688,-0.279679,-0.641662,0.386294,0
-9.451559,-0.076648,1.806883,0.730075,-0.24916,-0.172005,43.742154,-16.58296,0.140526,4.63583E+18,0.526561,-0.419332,0.725166,0.145012,-9.970116,-0.705706,-0.428345,-0.422735,0.428416,0.323455,44.128676,-13.243947,-7.507553,4.63583E+18,-0.190085,0.682566,-0.461237,-0.534071,-9.760645,-1.182117,0.645341,0.615459,-0.295905,-0.308408,39.600815,21.30487,10.212319,4.63583E+18,-0.60026,-0.279905,-0.640291,0.389062,0
-9.466885,-0.29644,1.886173,0.726333,-0.244591,-0.18588,43.619822,-16.479994,0.305531,4.63583E+18,0.529332,-0.417194,0.724836,0.142725,-9.927917,-0.422805,-0.352893,-0.542539,0.398898,0.317621,44.23412,-13.352722,-7.400918,4.63583E+18,-0.188096,0.68278,-0.461495,-0.534279,-9.727324,-1.588589,0.706704,0.584334,-0.301535,-0.266231,39.563869,21.553646,10.168441,4.63583E+18,-0.599945,-0.280154,-0.638901,0.391644,0
-9.509655,-0.546743,1.92271,0.718848,-0.232833,-0.192274,43.525366,-16.663545,0.510033,4.63583E+18,0.532046,-0.415092,0.724506,0.14042,-9.852492,-0.385092,-0.320724,-0.596807,0.372973,0.289173,44.372814,-13.496961,-7.086935,4.63583E+18,-0.186065,0.68303,-0.46153,-0.53464,-9.697956,-1.920829,0.864063,0.598363,-0.29966,-0.199724,39.510088,21.643726,9.993275,4.63583E+18,-0.599713,-0.280616,-0.637409,0.394092,0
-9.549308,-0.738861,1.947125,0.72797,-0.220818,-0.193335,43.690745,-16.659897,0.552363,4.63583E+18,0.534727,-0.412974,0.724195,0.13806,-9.934635,-0.462808,-0.346256,-0.615157,0.344229,0.268103,44.38831,-13.506911,-7.063681,4.63583E+18,-0.184082,0.68327,-0.461436,-0.535101,-9.683781,-2.065017,0.9888,0.593175,-0.277727,-0.108598,39.466225,21.643726,9.705609,4.63583E+18,-0.599574,-0.28134,-0.635869,0.396269,0
-9.52169,-0.873042,2.026599,0.738105,-0.210675,-0.190123,43.806394,-16.390918,0.466742,4.63583E+18,0.537381,-0.410823,0.723908,0.135655,-10.065562,-0.692526,-0.433938,-0.608061,0.31413,0.256937,44.220743,-13.368205,-7.187928,4.63583E+18,-0.182198,0.683459,-0.461296,-0.535624,-9.619129,-2.199904,0.761963,0.589263,-0.225284,-0.01648,39.449358,21.675378,9.503987,4.63583E+18,-0.599447,-0.282383,-0.634354,0.398142,0
-9.482038,-1.004289,2.115079,0.750665,-0.189018,-0.184245,43.760341,-16.189797,0.439467,4.63583E+18,0.539976,-0.408629,0.723678,0.133183,-10.05668,-0.785709,-0.572639,-0.559806,0.297819,0.240042,44.105347,-13.375987,-7.03701,4.63583E+18,-0.18052,0.683607,-0.461201,-0.536086,-9.533682,-2.39491,0.252896,0.600563,-0.166012,0.075428,39.522598,21.71697,9.44853,4.63583E+18,-0.5993,-0.283794,-0.632856,0.399742,0
-9.408718,-1.138558,2.145471,0.767761,-0.168202,-0.175428,43.748302,-16.269674,0.512869,4.63583E+18,0.542519,-0.406376,0.723509,0.130639,-9.978998,-0.533797,-0.638114,-0.512615,0.287235,0.202561,44.15195,-13.652301,-6.84724,4.63583E+18,-0.179082,0.683764,-0.461097,-0.536457,-9.4957,-2.594127,-0.087701,0.584661,-0.13116,0.174904,39.595837,21.722244,9.327233,4.63583E+18,-0.599241,-0.285484,-0.631349,0.401009,0
-9.304918,-1.26366,2.075103,0.777088,-0.113652,-0.170632,43.870609,-16.244866,0.60135,4.63583E+18,0.544897,-0.40411,0.723466,0.127983,-9.9679,-0.544895,-0.633675,-0.480181,0.268882,0.164009,44.073158,-13.782154,-6.889414,4.63583E+18,-0.177858,0.68393,-0.46094,-0.536788,-9.483198,-2.272023,-0.102344,0.614058,-0.091945,0.314244,39.669082,21.729177,9.083379,4.63583E+18,-0.599272,-0.287676,-0.629721,0.401954,0
-9.286801,-1.35821,1.931569,0.787511,-0.114863,-0.141737,43.845805,-16.04014,0.622578,4.63583E+18,0.547267,-0.401724,0.723465,0.125358,-9.972342,-0.661402,-0.604819,-0.429789,0.244899,0.135559,43.235377,-13.242882,-6.76625,4.63583E+18,-0.176887,0.684059,-0.460797,-0.537067,-9.543447,-0.777925,-0.207315,0.728182,-0.035703,0.523256,39.710682,21.628987,8.972442,4.63583E+18,-0.599362,-0.290794,-0.627784,0.402606,0
-9.207259,-1.471186,1.947197,0.79926,-0.109461,-0.133253,43.824577,-15.860217,0.613403,4.63583E+18,0.549624,-0.399279,0.723488,0.122703,-9.923513,-0.916641,-0.649204,-0.364341,0.223341,0.122158,42.488409,-12.562534,-6.606417,4.63583E+18,-0.176174,0.684117,-0.460745,-0.537271,-9.889702,0.529665,-0.574601,0.889491,-0.000848,0.723367,39.779224,21.397062,8.893356,4.63583E+18,-0.599491,-0.29489,-0.625409,0.40313,0
-9.189141,-1.409772,1.928696,0.819036,-0.072033,-0.124689,43.943837,-15.940055,0.61037,4.63583E+18,0.551881,-0.396778,0.723607,0.119946,-9.904634,-1.184099,-0.75684,-0.310349,0.203825,0.120699,42.740266,-12.590225,-6.750656,4.63583E+18,-0.175651,0.6841,-0.460789,-0.537427,-10.344417,0.565392,-0.709692,1.088216,0.005146,0.87497,39.937921,21.233663,8.662794,4.63583E+18,-0.599597,-0.29988,-0.622512,0.403774,0
-9.192175,-1.370263,1.980777,0.826215,-0.071319,-0.096886,44.047488,-15.979491,0.61037,4.63583E+18,0.554119,-0.394172,0.723766,0.117229,-9.975637,-1.231896,-0.861169,-0.291026,0.181788,0.133029,42.924767,-12.78675,-6.899456,4.63583E+18,-0.175195,0.683997,-0.460893,-0.537617,-10.612121,-0.155398,-0.616746,1.295888,-0.002598,0.998138,40.159868,21.128792,8.327658,4.63583E+18,-0.599648,-0.305683,-0.619067,0.404643,0
-9.210522,-1.39475,1.96532,0.831562,-0.039452,-0.09588,44.068726,-15.851062,0.674585,4.63583E+18,0.556256,-0.391558,0.723992,0.114443,-10.06332,-1.00888,-0.882258,-0.266956,0.154502,0.13964,42.328751,-12.55822,-6.751831,4.63583E+18,-0.174847,0.683802,-0.461051,-0.537843,-10.628769,-1.130818,-0.354585,1.505546,-0.001821,1.100212,40.433407,20.913791,7.984486,4.63583E+18,-0.59957,-0.312258,-0.615108,0.405775,0
-9.272708,-1.319674,1.738064,0.844613,0.000872,-0.113001,44.134198,-15.686997,0.836118,4.63583E+18,0.558286,-0.388975,0.72428,0.111507,-10.08113,-0.759091,-0.924391,-0.211032,0.126536,0.126823,42.177484,-12.299459,-6.712932,4.63583E+18,-0.174738,0.683531,-0.461275,-0.538031,-10.453986,-1.717069,-0.014717,1.70966,0.006918,1.186467,40.633722,20.571709,7.703715,4.63583E+18,-0.599309,-0.319558,-0.610671,0.407176,0
-9.430936,-1.265764,1.418432,0.84564,-0.046357,-0.109265,44.154179,-15.584043,1.029441,4.63583E+18,0.560443,-0.386345,0.724455,0.10865,-9.976831,-0.77898,-1.003243,-0.136859,0.10003,0.112552,42.853134,-12.660903,-6.765137,4.63583E+18,-0.17492,0.683177,-0.461601,-0.538142,-10.230932,-1.899085,0.169237,1.875,0.020634,1.244388,40.755518,20.286498,7.380798,4.63583E+18,-0.598843,-0.327415,-0.605861,0.408801,0
-9.661074,-1.191518,1.182905,0.842436,-0.085243,-0.124922,44.031893,-15.630284,1.008407,4.63583E+18,0.562705,-0.383746,0.724501,0.105827,-9.851433,-0.919968,-0.930057,-0.051497,0.074099,0.099047,43.659,-13.497771,-6.708571,4.63583E+18,-0.175425,0.682728,-0.462061,-0.538153,-10.167362,-1.918495,0.204189,1.947233,0.036386,1.266485,40.928877,20.13475,7.03928,4.63583E+18,-0.598222,-0.335506,-0.600883,0.410495,0
-9.858189,-1.181317,1.257572,0.84417,-0.104207,-0.149244,43.929637,-15.706329,0.9888,4.63583E+18,0.565023,-0.381202,0.724452,0.10297,-9.757039,-0.967708,-0.789071,0.011733,0.060594,0.09856,44.078634,-14.000742,-6.651885,4.63583E+18,-0.176136,0.682204,-0.462651,-0.538078,-10.113877,-2.237733,0.089666,1.932479,0.059739,1.21984,41.276217,19.849588,6.751571,4.63583E+18,-0.597429,-0.343452,-0.595997,0.412198,0
-10.022487,-1.080647,1.388049,0.825151,-0.169613,-0.144182,43.975873,-15.723135,1.139302,4.63583E+18,0.567491,-0.378652,0.724238,0.100282,-9.769245,-0.943367,-0.741329,0.052503,0.0572,0.10021,44.179749,-14.062928,-6.740652,4.63583E+18,-0.176962,0.68164,-0.463331,-0.537936,-9.845314,-3.01286,-0.013349,1.882622,0.066325,1.132759,41.542058,19.461147,6.507687,4.63583E+18,-0.596489,-0.351039,-0.591286,0.413948,0
-10.0589,-1.14389,1.538328,0.832437,-0.208568,-0.160747,44.117751,-15.591461,1.325198,4.63583E+18,0.57008,-0.376109,0.723898,0.09759,-9.781452,-0.834583,-0.742412,0.114151,0.047005,0.099344,44.120877,-14.106121,-6.785151,4.63583E+18,-0.177982,0.68101,-0.464138,-0.537702,-9.566227,-3.497997,0.366367,1.804751,0.054768,1.058015,41.51686,19.182321,6.280766,4.63583E+18,-0.595515,-0.3582,-0.586743,0.415676,0
-10.143545,-1.200126,1.612375,0.845412,-0.218812,-0.170746,44.220011,-15.495802,1.282585,4.63583E+18,0.572708,-0.373554,0.72351,0.094848,-9.787015,-0.804528,-0.775711,0.19067,0.034093,0.089048,44.126442,-14.221624,-6.637663,4.63583E+18,-0.179267,0.680311,-0.465077,-0.537348,-9.378629,-3.389808,0.941491,1.730076,0.051417,0.978304,41.519811,18.948726,5.880523,4.63583E+18,-0.59448,-0.36495,-0.582397,0.417395,0
-10.178172,-1.283773,1.661205,0.851401,-0.227445,-0.199129,44.239628,-15.478988,1.257362,4.63583E+18,0.575367,-0.37106,0.723047,0.09203,-9.761525,-0.873368,-0.776876,0.263588,0.021269,0.083802,44.094307,-14.201698,-6.353597,4.63583E+18,-0.180795,0.679536,-0.466157,-0.536882,-9.366673,-3.299344,1.44364,1.698209,0.052507,0.887369,41.75174,18.723737,5.391082,4.63583E+18,-0.593294,-0.371378,-0.578209,0.419232,0
-10.171569,-1.362622,1.757059,0.865549,-0.216485,-0.231909,44.296059,-15.347318,1.323197,4.63583E+18,0.578012,-0.368627,0.722553,0.089069,-9.717093,-0.894461,-0.75237,0.333513,0.016706,0.080504,43.988931,-14.14838,-6.113755,4.63583E+18,-0.182536,0.678699,-0.46738,-0.536288,-9.392759,-3.171521,1.873972,1.746887,0.055083,0.795347,41.9152,18.560276,5.091675,4.63583E+18,-0.591827,-0.377685,-0.574048,0.421382,0
-10.168767,-1.435853,1.866905,0.860422,-0.232307,-0.245847,44.378694,-15.242264,1.342814,4.63583E+18,0.580685,-0.366234,0.721985,0.08611,-9.753616,-0.93987,-0.81897,0.396231,0.009332,0.075548,43.919892,-14.194864,-6.069226,4.63583E+18,-0.184477,0.677803,-0.468721,-0.535585,-9.32597,-2.776319,2.196388,1.879026,0.071987,0.717332,41.99371,18.450166,4.98062,4.63583E+18,-0.589936,-0.384136,-0.569781,0.423987,0
-10.102953,-1.574907,2.108394,0.874176,-0.208581,-0.270845,44.398327,-15.16622,1.192382,4.63583E+18,0.583299,-0.363886,0.721428,0.08301,-9.854693,-0.967941,-0.847881,0.46846,-0.003194,0.073899,44.087452,-14.339195,-6.140324,4.63583E+18,-0.186644,0.676823,-0.470204,-0.534773,-9.160341,-2.234437,2.124331,2.07763,0.115799,0.668703,42.179209,18.228287,4.859506,4.63583E+18,-0.587492,-0.391007,-0.565305,0.427079,0
-9.961074,-1.545555,2.304562,0.906237,-0.161073,-0.310629,44.398327,-14.951921,1.288543,4.63583E+18,0.585816,-0.361585,0.720926,0.079639,-9.853623,-0.724841,-0.869938,0.54915,-0.014654,0.065176,44.136615,-14.372611,-6.140324,4.63583E+18,-0.189075,0.675767,-0.471829,-0.533824,-9.049041,-2.05131,1.503002,2.364121,0.166627,0.635173,42.486049,17.991569,4.489249,4.63583E+18,-0.584347,-0.398555,-0.560445,0.430806,0
-9.802403,-1.460117,2.287414,0.948061,-0.088668,-0.346768,44.398327,-14.770816,1.471626,4.63583E+18,0.588171,-0.359303,0.720547,0.075939,-9.820321,-0.56379,-0.999826,0.631517,-0.029982,0.042549,43.91239,-14.29605,-6.11377,4.63583E+18,-0.191814,0.674647,-0.473555,-0.532732,-8.963356,-2.101118,0.675787,2.734825,0.23262,0.620594,42.647403,17.945116,4.048338,4.63583E+18,-0.580336,-0.407042,-0.555036,0.435272,0
-9.756521,-1.374662,2.157757,0.968823,-0.074611,-0.364497,44.398327,-14.724934,1.588932,4.63583E+18,0.590502,-0.35702,0.72017,0.072109,-9.819133,-0.537126,-1.012279,0.679714,-0.056299,0.02574,43.811181,-14.28028,-6.016123,4.63583E+18,-0.194772,0.673454,-0.475317,-0.531599,-8.813288,-1.985993,-0.186846,3.132202,0.321165,0.6252,42.566758,17.993713,3.675193,4.63583E+18,-0.575363,-0.416596,-0.549026,0.440427,0
-9.791323,-1.39263,2.105284,0.983532,-0.075016,-0.393769,44.332512,-14.599902,1.677191,4.63583E+18,0.592844,-0.354777,0.719739,0.068159,-9.870216,-0.533809,-0.845763,0.685774,-0.076697,0.018553,43.896628,-14.424638,-5.918469,4.63583E+18,-0.197799,0.672214,-0.477049,-0.530498,-8.610815,-1.653385,-0.905129,3.467488,0.416664,0.636342,42.501137,17.85686,3.261624,4.63583E+18,-0.569496,-0.427072,-0.5425,0.446069,0
-9.840149,-1.347446,2.193682,0.966404,-0.066545,-0.41972,44.378681,-14.366013,1.837843,4.63583E+18,0.595121,-0.352645,0.719273,0.064179,-9.894632,-0.524918,-0.766812,0.65879,-0.091652,0.013015,43.938953,-14.501204,-5.873888,4.63583E+18,-0.200787,0.670963,-0.478689,-0.529481,-8.545628,-0.706147,-1.509791,3.661198,0.482273,0.642564,42.542801,17.576312,2.827644,4.63583E+18,-0.563016,-0.438045,-0.535633,0.451914,0
-9.879573,-1.396403,2.240546,0.956153,-0.062444,-0.43417,44.520519,-14.184884,2.011532,4.63583E+18,0.597355,-0.350572,0.71878,0.060183,-9.945578,-0.531552,-0.790165,0.62712,-0.108346,0.007779,43.862399,-14.540215,-5.998072,4.63583E+18,-0.203724,0.669705,-0.480222,-0.528562,-8.790221,0.638125,-1.768171,3.627883,0.488379,0.623534,42.537538,17.44438,2.449214,4.63583E+18,-0.556412,-0.448804,-0.528749,0.457608,0
-9.878598,-1.491252,2.048781,0.998512,-0.062775,-0.462368,44.622817,-14.082586,1.900458,4.63583E+18,0.599637,-0.348472,0.718239,0.05599,-10.031169,-0.55265,-0.801174,0.612827,-0.129709,0.00058,43.82338,-14.501197,-6.087257,4.63583E+18,-0.206673,0.668419,-0.481678,-0.52772,-9.09517,1.609324,-1.791343,3.399003,0.453848,0.578969,42.625327,17.418065,1.986597,4.63583E+18,-0.550102,-0.458767,-0.522186,0.462864,0
-9.903987,-1.39153,1.95221,1.029629,-0.099207,-0.451892,44.510886,-13.997135,1.70514,4.63583E+18,0.602048,-0.346247,0.717614,0.051781,-10.005697,-0.571489,-0.84457,0.612629,-0.151942,0.000976,43.928727,-14.540218,-5.891945,4.63583E+18,-0.209662,0.667073,-0.483112,-0.526933,-9.277839,1.991915,-1.773015,3.060179,0.403003,0.541182,42.850306,17.25179,1.539179,4.63583E+18,-0.544373,-0.467686,-0.516132,0.467478,0
-9.818421,-1.449013,1.940977,1.066287,-0.144561,-0.434972,44.537364,-13.723701,1.801193,4.63583E+18,0.60462,-0.343856,0.716892,0.047565,-9.94135,-0.604793,-0.811266,0.613895,-0.175927,-0.004747,44.044312,-14.477981,-5.749687,4.63583E+18,-0.21271,0.665677,-0.484505,-0.526198,-9.231738,2.317315,-1.437516,2.648997,0.346097,0.514626,42.987527,16.941343,1.379437,4.63583E+18,-0.539435,-0.475435,-0.510724,0.471309,0
-9.630572,-1.580474,1.922181,1.107695,-0.167216,-0.428242,44.679195,-13.459917,1.974889,4.63583E+18,0.607294,-0.341324,0.716115,0.043268,-9.838269,-0.612632,-0.810057,0.606155,-0.196618,-0.01349,44.021105,-14.501187,-5.776208,4.63583E+18,-0.215792,0.66425,-0.485833,-0.525521,-8.948822,2.915757,-1.101806,2.184888,0.297603,0.476258,42.95763,16.723921,1.300486,4.63583E+18,-0.535386,-0.481912,-0.506139,0.474284,0
-9.376089,-1.705342,2.038717,1.162503,-0.152815,-0.433014,44.837874,-13.337953,2.164566,4.63583E+18,0.609977,-0.338657,0.715358,0.038772,-9.691628,-0.579327,-0.854518,0.579361,-0.215249,-0.019899,43.962173,-14.609833,-5.847346,4.63583E+18,-0.218846,0.662812,-0.487061,-0.524936,-8.556225,3.341707,-1.109662,1.654394,0.261154,0.410552,42.903758,16.680578,1.03311,4.63583E+18,-0.532312,-0.486962,-0.502618,0.476326,0
-9.182686,-1.714657,2.216218,1.243456,-0.132604,-0.416646,44.874416,-13.252496,2.124964,4.63583E+18,0.612682,-0.335729,0.714666,0.034045,-9.662681,-0.554916,-0.814771,0.549458,-0.238851,-0.027755,43.967753,-14.71115,-5.873844,4.63583E+18,-0.221879,0.661357,-0.488175,-0.524464,-8.139517,3.254877,-1.410258,1.093519,0.241235,0.325398,42.896816,16.687521,0.775781,4.63583E+18,-0.530229,-0.490532,-0.50032,0.477405,0
-8.983605,-1.821795,2.352335,1.328572,-0.104334,-0.398082,44.75226,-13.044895,2.165449,4.63583E+18,0.615388,-0.332515,0.714063,0.029067,-9.68047,-0.537126,-0.661658,0.523318,-0.255851,-0.040954,43.982045,-14.648884,-5.968191,4.63583E+18,-0.224898,0.659909,-0.489171,-0.524073,-7.973567,3.318645,-1.623358,0.476829,0.218851,0.23689,42.896816,16.687521,0.720237,4.63583E+18,-0.529269,-0.492503,-0.499372,0.477433,0
-8.879449,-1.88371,2.267703,1.408013,-0.063497,-0.406478,44.715717,-12.735011,2.17573,4.63583E+18,0.61805,-0.32911,0.713537,0.02377,-9.683782,-0.550373,-0.510631,0.504398,-0.266259,-0.055436,44.047623,-14.691938,-6.056952,4.63583E+18,-0.227911,0.65848,-0.49007,-0.523729,-8.27799,4.218339,-1.190455,-0.267668,0.162472,0.139794,42.933666,16.687521,0.762352,4.63583E+18,-0.529759,-0.492517,-0.499978,0.47624,0
-8.862575,-1.798201,2.008482,1.470367,-0.077246,-0.38633,44.903612,-12.715446,2.248075,4.63583E+18,0.620799,-0.32547,0.71298,0.018358,-9.705921,-0.582645,-0.426223,0.480304,-0.266747,-0.061754,44.056519,-14.80758,-6.128117,4.63583E+18,-0.23087,0.657079,-0.490892,-0.523423,-8.559071,4.235403,-0.467835,-0.938634,0.111177,0.050492,43.019106,16.65068,0.89684,4.63583E+18,-0.531551,-0.490757,-0.501982,0.473947,0
-8.834391,-1.704311,1.922188,1.512429,-0.130418,-0.368506,45.016235,-12.610191,2.33634,4.63583E+18,0.623722,-0.321648,0.712282,0.012938,-9.744818,-0.596923,-0.387326,0.450467,-0.268286,-0.06293,44.030032,-14.718189,-6.078455,4.63583E+18,-0.233749,0.655699,-0.49164,-0.523174,-8.492555,2.332704,0.227381,-1.236255,0.127133,0.000385,43.072981,16.570492,1.169414,4.63583E+18,-0.533808,-0.488254,-0.5047,0.4711,0
-8.807165,-1.515537,2.057466,1.547345,-0.127761,-0.372704,44.40374,-11.681236,2.468752,4.63583E+18,0.626644,-0.317711,0.711563,0.007381,-9.753716,-0.669131,-0.365188,0.36958,-0.275093,-0.055471,43.958858,-14.434946,-5.997971,4.63583E+18,-0.236401,0.654362,-0.49222,-0.523111,-8.554681,0.976374,1.021687,-1.225269,0.19288,-0.017404,43.085188,16.560401,1.512691,4.63583E+18,-0.535855,-0.485854,-0.507566,0.468169,0
-8.876683,-1.258237,2.174819,1.550292,-0.162289,-0.35355,43.520115,-10.709429,2.634023,4.63583E+18,0.62963,-0.313669,0.710757,0.001889,-9.753716,-0.702441,-0.342837,0.249631,-0.279546,-0.040898,43.939003,-14.408636,-6.189963,4.63583E+18,-0.238699,0.653101,-0.492567,-0.523315,-8.917706,1.24345,1.649663,-1.191352,0.236263,-0.028895,43.097394,16.533669,1.793428,4.63583E+18,-0.537705,-0.483578,-0.510472,0.465236,0
-8.946157,-1.027267,2.356998,1.548814,-0.172464,-0.341395,43.06767,-10.629856,2.682813,4.63583E+18,0.632601,-0.309573,0.709907,-0.003559,-9.773571,-0.776495,-0.394976,0.14602,-0.29486,-0.028769,43.842594,-14.71507,-6.349909,4.63583E+18,-0.240719,0.651882,-0.492704,-0.523782,-9.188805,1.481324,2.017591,-1.200875,0.253335,-0.054548,43.141169,16.411805,2.037365,4.63583E+18,-0.539474,-0.481246,-0.513473,0.462293,0
-8.979017,-0.75119,2.526952,1.544705,-0.148962,-0.347889,43.23866,-10.669271,2.676237,4.63583E+18,0.635455,-0.305495,0.709076,-0.009041,-9.866667,-0.921145,-0.409686,0.076867,-0.31713,-0.010721,43.703756,-14.780529,-6.424403,4.63583E+18,-0.242556,0.650645,-0.492713,-0.524464,-9.106099,0.955775,1.989807,-1.153676,0.279504,-0.070185,43.158223,16.438527,2.311608,4.63583E+18,-0.541049,-0.479025,-0.516461,0.459423,0
-9.125525,-0.476996,2.59173,1.540186,-0.122341,-0.349531,43.631186,-10.415692,2.88004,4.63583E+18,0.638182,-0.301415,0.708281,-0.014549,-9.933754,-0.943042,-0.303137,0.119757,-0.326633,0.00583,43.63816,-14.434979,-6.433301,4.63583E+18,-0.244491,0.649308,-0.492845,-0.525097,-9.144356,0.684221,1.947722,-1.061527,0.320993,-0.06606,43.084984,16.591951,2.690012,4.63583E+18,-0.542346,-0.477089,-0.519346,0.456648,0
-9.280461,-0.30235,2.665919,1.5203,-0.128755,-0.336136,43.914753,-10.273928,3.082861,4.63583E+18,0.640862,-0.297334,0.707454,-0.019955,-9.783958,-1.05976,-0.182323,0.205271,-0.337824,0.00572,43.675571,-14.408596,-6.456456,4.63583E+18,-0.246679,0.647858,-0.493148,-0.525581,-9.224414,1.229911,1.702765,-1.038546,0.370494,-0.064862,43.080129,16.643748,2.984271,4.63583E+18,-0.543481,-0.475291,-0.522285,0.453811,0
-9.323639,-0.22161,2.723191,1.49327,-0.13245,-0.331372,43.905333,-10.188484,3.04997,4.63583E+18,0.643479,-0.293296,0.706593,-0.025264,-9.674878,-1.069922,-0.052137,0.255535,-0.336866,0.012797,43.866312,-14.625732,-6.571673,4.63583E+18,-0.248981,0.646341,-0.493575,-0.525961,-9.950603,1.494866,1.578921,-1.12257,0.322739,-0.065913,43.134017,16.533688,3.130553,4.63583E+18,-0.544872,-0.4732,-0.525265,0.450879,0
-9.279504,-0.367161,3.119461,1.475359,-0.116839,-0.352489,44.129763,-10.103035,2.877191,4.63583E+18,0.645986,-0.289356,0.705719,-0.030593,-9.705904,-1.025422,-0.06765,0.280968,-0.335087,0.027438,44.067457,-14.493998,-6.766974,4.63583E+18,-0.25131,0.644772,-0.494089,-0.526296,-12.335426,-0.098925,4.191168,-1.068151,0.115316,-0.046602,43.109409,16.406558,3.312352,4.63583E+18,-0.546635,-0.470875,-0.527623,0.448421,0
-9.415664,-0.123952,3.422768,1.437398,-0.098187,-0.343286,44.832159,-9.961241,3.029314,4.63583E+18,0.648355,-0.28548,0.704879,-0.035804,-9.784491,-1.018809,-0.10529,0.303532,-0.343743,0.047266,44.043798,-14.399655,-6.906084,4.63583E+18,-0.25367,0.643117,-0.49469,-0.526625,-12.938728,-1.119894,7.437877,-0.778139,0.086716,0.000887,43.036167,16.35792,3.557988,4.63583E+18,-0.547971,-0.469254,-0.529272,0.446542,0
-9.629722,0.329512,3.469722,1.38433,-0.089068,-0.336138,45.020905,-9.72747,3.304398,4.63583E+18,0.650598,-0.281709,0.704054,-0.040852,-9.959711,-0.964641,-0.251264,0.293564,-0.349551,0.061529,43.723108,-14.691862,-6.923631,4.63583E+18,-0.255984,0.641423,-0.495299,-0.526999,-11.102083,-0.618955,5.00338,-0.459228,0.284461,0.034493,42.962927,16.389467,3.746344,4.63583E+18,-0.548306,-0.468799,-0.53071,0.444899,0
-9.736795,0.7868,3.448128,1.316468,-0.116337,-0.320613,44.523374,-9.602552,3.378631,4.63583E+18,0.65281,-0.278065,0.703162,-0.045631,-10.172816,-0.827067,-0.500504,0.225366,-0.374513,0.082867,43.46294,-14.787751,-7.024586,4.63583E+18,-0.258119,0.639698,-0.495784,-0.527598,-10.401435,-1.659729,0.7221,-0.189553,0.366031,0.051499,42.958035,16.399619,3.936405,4.63583E+18,-0.547963,-0.469147,-0.531799,0.443653,0
-9.763104,0.938083,3.442488,1.258861,-0.13401,-0.341638,44.627401,-10.024072,3.400228,4.63583E+18,0.65497,-0.274641,0.702182,-0.050269,-10.302036,-0.710322,-0.434405,0.141225,-0.427567,0.107281,43.475625,-14.7773,-7.180722,4.63583E+18,-0.260083,0.637894,-0.496085,-0.528534,-10.664368,-1.435511,-0.683792,-0.064339,0.335914,0.085826,43.048739,16.35792,4.161563,4.63583E+18,-0.547504,-0.469801,-0.532519,0.442663,0
-9.869187,0.999116,3.404937,1.189029,-0.15233,-0.350106,45.144734,-10.222273,3.546681,4.63583E+18,0.657073,-0.271436,0.701132,-0.054697,-10.210249,-0.690224,-0.206788,0.065749,-0.469022,0.117472,43.653675,-14.893032,-7.435047,4.63583E+18,-0.261904,0.636059,-0.496192,-0.529744,-10.586503,0.468212,-0.432803,-0.089153,0.315743,0.110658,43.036001,16.321122,4.368732,4.63583E+18,-0.547183,-0.470414,-0.533189,0.4416,0
-9.872042,0.816079,3.515694,1.11426,-0.184124,-0.369245,44.892377,-9.481634,3.560814,4.63583E+18,0.659152,-0.268478,0.699975,-0.058935,-10.035776,-0.71794,-0.036906,-0.028578,-0.511945,0.130666,43.610729,-14.846784,-7.674301,4.63583E+18,-0.263532,0.634204,-0.49607,-0.531273,-10.358828,1.057949,0.000177,-0.154483,0.326409,0.100165,42.877303,16.240926,4.431287,4.63583E+18,-0.546946,-0.470874,-0.534022,0.440395,0
-9.872968,0.700542,3.552354,1.039497,-0.210335,-0.39381,44.645347,-8.934079,3.383402,4.63583E+18,0.66119,-0.265787,0.698724,-0.063001,-9.933807,-0.764472,0.097375,-0.075335,-0.546465,0.146022,43.452031,-14.702307,-8.012082,4.63583E+18,-0.26507,0.632292,-0.495836,-0.533003,-10.230999,0.838584,-0.019493,-0.165385,0.333737,0.067561,42.860527,16.199224,4.510121,4.63583E+18,-0.546653,-0.471249,-0.534955,0.439223,0
-9.735001,0.608527,3.589898,0.970478,-0.226442,-0.405236,44.981287,-9.157281,3.201218,4.63583E+18,0.663173,-0.263327,0.697415,-0.066872,-9.754292,-0.874048,0.248167,-0.00876,-0.55653,0.150923,43.359403,-14.738067,-8.177667,4.63583E+18,-0.266791,0.630271,-0.495743,-0.534621,-9.89768,0.658703,-0.393658,-0.156246,0.332625,0.053393,42.989384,16.230757,4.698485,4.63583E+18,-0.546317,-0.47161,-0.535896,0.438106,0
-9.45803,0.370079,3.638728,0.931929,-0.217333,-0.419283,44.840729,-8.999792,3.152332,4.63583E+18,0.665062,-0.261004,0.696113,-0.070682,-9.568301,-1.101359,0.486383,0.13389,-0.542471,0.143421,43.425035,-15.090738,-8.239997,4.63583E+18,-0.268874,0.628133,-0.495958,-0.535893,-9.573663,0.376065,-1.068636,-0.147375,0.3146,0.040397,43.036353,16.309257,4.846506,4.63583E+18,-0.54598,-0.471929,-0.536803,0.437072,0
-9.190389,0.164396,3.621856,0.906948,-0.21363,-0.414774,44.201394,-8.416772,3.280913,4.63583E+18,0.666891,-0.258718,0.694826,-0.074425,-9.621427,-1.401919,0.73805,0.267227,-0.520733,0.145066,43.414135,-15.393536,-8.292812,4.63583E+18,-0.271257,0.625884,-0.496493,-0.536828,-9.443276,0.16379,-1.517436,-0.127824,0.285125,0.0293,43.043304,16.289608,4.858385,4.63583E+18,-0.545648,-0.472212,-0.537629,0.436164,0
-8.896546,-0.084367,3.632159,0.904801,-0.214451,-0.407379,44.088405,-8.076739,3.235961,4.63583E+18,0.6687,-0.256407,0.693534,-0.078145,-9.712488,-1.713032,0.72684,0.403299,-0.497118,0.148849,43.314473,-15.324202,-8.488142,4.63583E+18,-0.273931,0.623522,-0.497358,-0.537418,-9.494119,0.101057,-1.403068,-0.090697,0.252339,0.039103,43.080084,16.1677,4.846496,4.63583E+18,-0.545334,-0.472541,-0.538292,0.435381,0
-8.657059,-0.334149,3.61904,0.928778,-0.207309,-0.405896,44.42437,-7.888902,3.1261,4.63583E+18,0.670495,-0.254019,0.692241,-0.081937,-9.835225,-1.911627,0.790853,0.569855,-0.478673,0.149569,43.166691,-15.13718,-8.657035,4.63583E+18,-0.276991,0.621002,-0.498606,-0.537609,-9.539088,-0.079083,-0.923333,-0.024575,0.233452,0.061382,43.128757,16.157496,4.93719,4.63583E+18,-0.544972,-0.473036,-0.538748,0.434733,0
-8.465474,-0.512616,3.725987,0.965254,-0.207547,-0.377161,44.698678,-7.661701,3.156978,4.63583E+18,0.672316,-0.251442,0.690952,-0.085753,-10.005783,-1.921192,0.879266,0.746921,-0.453675,0.139552,43.084546,-15.206461,-8.728293,4.63583E+18,-0.280473,0.618345,-0.500242,-0.537348,-9.507865,-0.438344,-0.421281,0.06808,0.238695,0.084881,43.060474,16.267506,5.076867,4.63583E+18,-0.544457,-0.473803,-0.539002,0.434228,0
-8.329289,-0.511806,3.834935,1.010271,-0.202542,-0.337316,44.686668,-7.539539,3.09887,4.63583E+18,0.674162,-0.248616,0.689688,-0.089593,-9.928258,-1.356728,0.692221,0.895964,-0.414531,0.129017,43.031097,-15.436413,-8.724995,4.63583E+18,-0.284273,0.615607,-0.502218,-0.536651,-9.61107,-0.589213,-0.039587,0.179045,0.260356,0.114816,42.975311,16.321151,5.266936,4.63583E+18,-0.543729,-0.474927,-0.539043,0.433861,0
-8.254126,-0.312873,3.820013,1.05891,-0.205737,-0.300011,44.54493,-7.397801,3.001213,4.63583E+18,0.676056,-0.245541,0.68842,-0.093467,-9.839167,-0.866726,0.362668,1.021753,-0.384479,0.101857,43.054172,-15.598383,-8.663342,4.63583E+18,-0.288384,0.612825,-0.504428,-0.535567,-9.823822,-0.339421,0.113277,0.310759,0.269931,0.142696,43.08729,16.172695,5.413267,4.63583E+18,-0.542767,-0.476429,-0.538812,0.433707,0
-8.174327,0.02509,3.771184,1.099015,-0.203116,-0.265336,44.376851,-7.173434,2.969225,4.63583E+18,0.677972,-0.242242,0.687163,-0.097363,-9.825976,-0.965653,0.089098,1.183014,-0.373361,0.068828,43.096762,-15.769301,-8.520767,4.63583E+18,-0.292946,0.609921,-0.506911,-0.53406,-10.012038,0.089647,-0.040557,0.431359,0.266727,0.146474,43.221164,16.040527,5.384911,4.63583E+18,-0.541577,-0.478204,-0.538345,0.433819,0
-8.154546,0.381898,3.675457,1.133114,-0.200238,-0.245112,44.468615,-6.985591,3.107105,4.63583E+18,0.679895,-0.238779,0.685904,-0.101303,-9.767257,-1.407699,0,1.460722,-0.375785,0.04094,43.000441,-15.894039,-8.547145,4.63583E+18,-0.298264,0.606703,-0.509916,-0.531917,-10.032518,0.464272,-0.365037,0.481585,0.262604,0.133186,43.140702,16.140285,5.15284,4.63583E+18,-0.54027,-0.480053,-0.537803,0.434081,0
-8.220206,0.726523,3.631253,1.159659,-0.198102,-0.242222,44.573852,-6.946012,3.299591,4.63583E+18,0.681813,-0.235226,0.684623,-0.105311,-9.662036,-1.863459,0.013185,1.940682,-0.374952,0.028028,42.884609,-15.917112,-8.592057,4.63583E+18,-0.304795,0.602876,-0.513918,-0.528705,-9.959533,0.594621,-0.615746,0.471319,0.250832,0.121459,43.043304,16.272469,5.076824,4.63583E+18,-0.538986,-0.481828,-0.537272,0.434366,0
-8.333786,1.133951,3.578704,1.159605,-0.211559,-0.259703,44.649918,-6.758434,3.185387,4.63583E+18,0.683733,-0.231722,0.683268,-0.109355,-9.424233,-1.861753,-0.03687,2.674054,-0.357434,0.038539,42.950532,-16.022341,-8.388922,4.63583E+18,-0.313066,0.598061,-0.519527,-0.523836,-9.952455,0.678713,-0.660911,0.436812,0.226866,0.113663,43.085291,16.240979,5.308857,4.63583E+18,-0.537808,-0.483463,-0.536764,0.434638,0
-8.352693,1.626849,3.517669,1.14146,-0.228075,-0.296084,44.845083,-6.382992,2.968488,4.63583E+18,0.685638,-0.228372,0.681821,-0.113436,-9.078037,-2.491734,-0.084002,3.661682,-0.332109,0.02176,43.108983,-16.230468,-7.927008,4.63583E+18,-0.323708,0.591919,-0.527184,-0.516644,-9.877392,0.959577,-0.605013,0.395626,0.20767,0.096104,43.140965,16.131007,5.510896,4.63583E+18,-0.536722,-0.48493,-0.53632,0.434894,0
-8.368619,2.130135,3.531657,1.112714,-0.241634,-0.340773,44.89883,-6.099263,2.908192,4.63583E+18,0.687504,-0.225228,0.680288,-0.117551,-9.277284,-4.560655,0.892778,4.769873,-0.330719,-0.060008,42.96985,-16.56895,-7.5397,4.63583E+18,-0.337134,0.584251,-0.536853,-0.506735,-9.793763,1.105516,-0.559828,0.37492,0.204016,0.062654,43.109479,15.972311,5.487864,4.63583E+18,-0.535624,-0.486267,-0.535971,0.435185,0
-8.486804,2.499345,3.652672,1.065329,-0.238862,-0.392446,44.655024,-6.230207,3.064773,4.63583E+18,0.689267,-0.222362,0.67872,-0.12168,-10.006015,-6.643779,2.053339,5.70725,-0.309165,-0.14488,42.738117,-16.901846,-6.999832,4.63583E+18,-0.352783,0.575186,-0.548057,-0.494307,-9.78691,0.997369,-0.578995,0.383643,0.200803,0.016885,43.03099,15.881832,5.34149,4.63583E+18,-0.534431,-0.487514,-0.535691,0.435602,0
-8.614539,2.660156,3.77103,1.016271,-0.20595,-0.445032,44.515795,-6.352452,3.122265,4.63583E+18,0.690838,-0.219765,0.677206,-0.125848,-10.091072,-7.124484,1.311446,6.386819,-0.205629,-0.16263,42.777645,-17.151402,-6.052948,4.63583E+18,-0.369607,0.564967,-0.560416,-0.479727,-9.877704,0.959238,-0.659399,0.39751,0.193326,-0.017117,42.914068,15.950029,5.285806,4.63583E+18,-0.533163,-0.488701,-0.535435,0.43614,0
-8.736613,2.64812,3.880896,0.970666,-0.151412,-0.49409,44.683526,-6.053442,2.956307,4.63583E+18,0.692164,-0.217404,0.675814,-0.130078,-9.804876,-6.425469,0.071035,6.979853,-0.095316,-0.139387,42.927407,-17.174446,-5.160009,4.63583E+18,-0.3872,0.553519,-0.57374,-0.463158,-9.908787,0.97478,-0.741123,0.391835,0.183555,-0.038629,42.886514,16.040527,5.243843,4.63583E+18,-0.531887,-0.489808,-0.535211,0.436731,0
-8.811801,2.589913,3.962632,0.911035,-0.074613,-0.521644,44.740131,-5.704031,2.961625,4.63583E+18,0.693209,-0.215386,0.674593,-0.134145,-9.916444,-5.269502,-0.523159,7.452329,-0.035249,-0.111092,43.023545,-17.394927,-4.142848,4.63583E+18,-0.405295,0.540811,-0.587611,-0.444941,-9.78147,0.819332,-0.636315,0.373376,0.170737,-0.052957,43.01202,15.972341,5.230108,4.63583E+18,-0.53065,-0.490818,-0.535019,0.437337,0
-8.938465,2.547634,3.857725,0.870744,-0.016985,-0.530699,44.608868,-5.430717,3.194254,4.63583E+18,0.694029,-0.213469,0.673544,-0.138178,-10.541094,-2.466692,-0.426776,7.631586,-0.06723,-0.04092,42.993108,-17.915008,-3.009525,4.63583E+18,-0.423302,0.526988,-0.601331,-0.426027,-9.657678,0.611992,-0.524918,0.371582,0.157919,-0.063955,43.031001,15.918549,5.327768,4.63583E+18,-0.529423,-0.491774,-0.534822,0.437989,0
-9.113077,2.529764,3.670907,0.822045,-0.012724,-0.516351,44.691112,-5.249374,3.184371,4.63583E+18,0.694784,-0.211647,0.672538,-0.142032,-11.294314,1.117564,0.953244,7.449568,-0.193849,0.008245,43.114763,-18.075739,-1.977199,4.63583E+18,-0.440679,0.512572,-0.614011,-0.407507,-9.710384,0.622747,-0.561625,0.383623,0.146479,-0.080126,42.982265,16.03021,5.420172,4.63583E+18,-0.528167,-0.492698,-0.534611,0.438725,0
-9.230558,2.386298,3.541218,0.776841,0.029346,-0.514924,44.981068,-4.959418,3.067961,4.63583E+18,0.695365,-0.209924,0.671673,-0.14579,-11.351245,3.099028,3.265254,6.947205,-0.326768,-0.0373,43.275246,-17.815266,-1.02173,4.63583E+18,-0.456964,0.498464,-0.624935,-0.390095,-9.957956,0.694022,-0.668044,0.416031,0.131361,-0.099208,42.982265,16.181931,5.468917,4.63583E+18,-0.526841,-0.493622,-0.534343,0.439605,0
-9.328199,2.212594,3.356384,0.71854,0.06405,-0.467525,45.113767,-4.761107,2.955283,4.63583E+18,0.695811,-0.208214,0.670978,-0.149273,-10.772308,3.609806,4.547319,6.251185,-0.416694,-0.134426,43.271954,-17.807851,-0.086999,4.63583E+18,-0.47181,0.485369,-0.633872,-0.374191,-10.062343,0.386561,-0.760381,0.602754,0.111224,-0.143502,42.908863,16.303927,5.432215,4.63583E+18,-0.525092,-0.494818,-0.533778,0.441038,0
-9.313375,2.041684,3.233215,0.657157,0.07952,-0.440591,45.008909,-4.658648,3.079758,4.63583E+18,0.696163,-0.206594,0.670384,-0.152518,-10.208584,4.226908,4.752065,5.380361,-0.507153,-0.253602,43.328844,-17.909644,0.665446,4.63583E+18,-0.485005,0.473837,-0.640649,-0.360303,-10.128861,0.139762,-0.734086,0.865496,0.084041,-0.195191,42.743204,16.345713,5.341521,4.63583E+18,-0.522761,-0.496419,-0.532772,0.443219,0
-9.311415,1.992641,3.154309,0.6135,0.104391,-0.413088,44.972073,-4.573202,3.340676,4.63583E+18,0.696413,-0.205006,0.669908,-0.15558,-9.91985,5.088675,5.180373,4.306088,-0.591892,-0.377703,43.526928,-17.755096,1.039537,4.63583E+18,-0.496258,0.464457,-0.64512,-0.349039,-10.280431,0.728098,-0.645195,0.971746,0.039784,-0.231067,42.647426,16.413864,5.201927,4.63583E+18,-0.520235,-0.498082,-0.531539,0.445799,0
-9.379858,2.074161,3.071694,0.561926,0.094685,-0.378012,45.037683,-4.487752,3.555829,4.63583E+18,0.696658,-0.203475,0.669462,-0.158384,-9.629665,5.064972,5.767598,3.12352,-0.623837,-0.463052,43.531087,-17.439627,1.160216,4.63583E+18,-0.505282,0.457569,-0.647468,-0.340742,-10.137021,0.996902,-0.715214,1.027164,0.005328,-0.289224,42.703367,16.640707,5.006612,4.63583E+18,-0.517552,-0.499663,-0.530239,0.44869,0
-9.3997,2.184018,2.901905,0.493267,0.091364,-0.352359,44.935696,-4.402308,3.591812,4.63583E+18,0.696862,-0.202073,0.669071,-0.160917,-9.227824,4.318989,5.935599,1.975606,-0.602595,-0.49406,43.44006,-17.218528,1.320287,4.63583E+18,-0.512024,0.453139,-0.648087,-0.335381,-9.858269,0.748451,-0.891211,0.964184,-0.014671,-0.306666,42.750256,16.884703,4.853235,4.63583E+18,-0.515002,-0.501024,-0.52904,0.451514,0
-9.409073,2.181423,2.744064,0.421448,0.08694,-0.347968,44.767615,-4.260617,3.439018,4.63583E+18,0.697012,-0.200868,0.668716,-0.163233,-8.851703,3.363888,5.748237,0.945921,-0.562787,-0.487275,43.621791,-17.033507,1.365334,4.63583E+18,-0.516668,0.450912,-0.647328,-0.332715,-9.865426,1.278792,-0.92949,0.682013,-0.046873,-0.256783,42.670056,16.93685,4.80275,4.63583E+18,-0.513199,-0.501821,-0.528191,0.453669,0
-9.430652,2.238519,2.663186,0.354807,0.057571,-0.317056,44.849757,-4.026958,3.309314,4.63583E+18,0.697203,-0.199789,0.668345,-0.165248,-8.488333,2.183495,5.549188,0.061353,-0.543644,-0.455724,43.819894,-16.77716,1.188756,4.63583E+18,-0.519541,0.450524,-0.64543,-0.332454,-9.928071,1.398107,-0.873629,0.369521,-0.086397,-0.218031,42.623012,16.926491,4.725865,4.63583E+18,-0.512207,-0.501958,-0.527764,0.455134,0
-9.408212,2.389552,2.649007,0.27572,0.015519,-0.28057,45.074026,-3.780003,3.349383,4.63583E+18,0.697465,-0.198867,0.667936,-0.166901,-8.225398,0.685259,5.334087,-0.573125,-0.518989,-0.42405,43.873409,-16.589861,0.87704,4.63583E+18,-0.521107,0.451456,-0.642758,-0.333912,-9.963095,0.607936,-0.765487,0.133696,-0.113537,-0.179566,42.616043,17.004977,4.572471,4.63583E+18,-0.51184,-0.501623,-0.527645,0.456054,0
-9.409072,2.429273,2.592781,0.198959,-0.010238,-0.264178,45.186995,-3.657662,3.43484,4.63583E+18,0.697742,-0.198142,0.667518,-0.16827,-7.96759,-0.320541,4.721503,-0.93503,-0.475517,-0.385324,43.896453,-16.566816,0.779352,4.63583E+18,-0.521817,0.453128,-0.639738,-0.336329,-10.057173,-0.066512,-0.701062,-0.001588,-0.117799,-0.129361,42.647484,17.085183,4.55866,4.63583E+18,-0.511859,-0.501102,-0.527668,0.456577,0
-9.449384,2.588547,2.650714,0.119281,-0.062502,-0.213329,45.204014,-3.572223,3.529647,4.63583E+18,0.698133,-0.197543,0.667046,-0.169226,-7.759097,0.195365,3.822389,-1.193541,-0.448861,-0.312928,43.955566,-16.438562,0.629012,4.63583E+18,-0.52186,0.455199,-0.636536,-0.339526,-10.013474,-0.179492,-0.671353,-0.070829,-0.117194,-0.076264,42.657851,17.1951,4.651075,4.63583E+18,-0.512123,-0.500551,-0.527714,0.456834,0
-9.385791,2.674272,2.823315,0.047943,-0.070349,-0.172444,45.147806,-3.496144,3.542986,4.63583E+18,0.698513,-0.197045,0.666634,-0.169859,-7.488659,1.067776,2.958121,-1.464514,-0.432182,-0.227321,43.903873,-16.237227,0.290006,4.63583E+18,-0.521211,0.457648,-0.633127,-0.34358,-9.910633,0.02802,-0.627816,-0.100414,-0.124216,-0.034622,42.610805,17.353786,4.69985,4.63583E+18,-0.512543,-0.500015,-0.527713,0.456951,0
-9.306868,2.723102,2.840635,-0.017959,-0.065902,-0.133345,45.065192,-3.347953,3.4652,4.63583E+18,0.698853,-0.196625,0.666314,-0.1702,-7.166581,1.084297,2.083388,-1.666379,-0.400738,-0.132863,43.771499,-16.240635,-0.177192,4.63583E+18,-0.519943,0.460322,-0.629646,-0.348293,-9.791971,0.083625,-0.603353,-0.114452,-0.128481,-0.008991,42.572405,17.407709,4.66318,4.63583E+18,-0.51305,-0.499496,-0.527676,0.456992,0
-9.224263,2.771927,2.897688,-0.069176,-0.052863,-0.105054,45.035952,-3.252003,3.292612,4.63583E+18,0.699135,-0.196268,0.666091,-0.170329,-6.973717,0.292723,1.210616,-1.68497,-0.337967,-0.029386,43.726917,-16.441986,-0.603875,4.63583E+18,-0.518306,0.462845,-0.626438,-0.353141,-9.659519,0.199045,-0.488208,-0.141477,-0.125125,0.013288,42.562021,17.296071,4.53059,4.63583E+18,-0.513648,-0.498975,-0.527651,0.456918,0
-9.101359,2.839482,2.936301,-0.107974,-0.052413,-0.076392,45.09867,-3.356717,3.181609,4.63583E+18,0.699405,-0.195947,0.665919,-0.170264,-7.041833,-0.695548,0.264657,-1.518568,-0.26571,0.076966,43.726917,-16.458366,-0.896827,4.63583E+18,-0.516628,0.464827,-0.623806,-0.357627,-9.663061,0.453408,-0.369691,-0.18786,-0.12024,0.026704,42.635256,17.175783,4.377187,4.63583E+18,-0.514357,-0.498393,-0.527697,0.456703,0
-9.023268,2.968931,2.960717,-0.154948,-0.079634,-0.041564,45.118561,-3.52479,3.161717,4.63583E+18,0.699738,-0.195691,0.665727,-0.169942,-7.268152,-1.801777,-0.476665,-1.231426,-0.202527,0.166521,43.703894,-16.310481,-1.216128,4.63583E+18,-0.515198,0.466046,-0.621888,-0.361425,-9.704885,0.43423,-0.46748,-0.235774,-0.11536,0.030827,42.677082,17.126987,4.321421,4.63583E+18,-0.515162,-0.497727,-0.527835,0.456363,0
-8.868577,2.993655,3.069422,-0.205148,-0.070379,-0.022459,45.062368,-3.499002,3.161717,4.63583E+18,0.700018,-0.195522,0.665611,-0.169432,-7.528763,-2.8135,-0.914688,-0.910996,-0.156268,0.216879,43.664496,-16.271083,-1.577178,4.63583E+18,-0.514187,0.466516,-0.620632,-0.364404,-9.746783,0.521528,-0.697631,-0.297285,-0.125442,0.037692,42.645658,17.095564,4.363318,4.63583E+18,-0.516129,-0.496923,-0.528054,0.455893,0
-8.722946,3.018907,3.128773,-0.246331,-0.046311,-0.008575,45.101503,-3.34801,3.152353,4.63583E+18,0.700208,-0.195418,0.665606,-0.16879,-7.889831,-3.246221,-1.09443,-0.58131,-0.122422,0.223404,43.772961,-16.356527,-1.75597,4.63583E+18,-0.513716,0.466315,-0.619952,-0.366477,-9.83396,0.657464,-0.817925,-0.375252,-0.144815,0.038605,42.572421,17.01709,4.382428,4.63583E+18,-0.5173,-0.495916,-0.528375,0.455289,0
-8.56994,3.055528,3.127939,-0.285603,-0.020925,-0.002063,45.249658,-3.308206,3.224422,4.63583E+18,0.700301,-0.195395,0.665705,-0.168038,-8.343343,-3.069128,-0.954461,-0.308689,-0.113721,0.195832,43.851779,-16.418957,-1.632001,4.63583E+18,-0.513795,0.465615,-0.61965,-0.367766,-9.87579,0.718515,-0.809149,-0.457796,-0.164195,0.034637,42.561998,16.936885,4.291754,4.63583E+18,-0.518676,-0.494683,-0.528818,0.45455,0
-8.467427,3.129606,2.994,-0.331679,-0.037896,-0.002707,45.223918,-3.373754,3.396992,4.63583E+18,0.700404,-0.195523,0.665783,-0.167146,-8.665894,-2.445603,-0.653078,-0.107427,-0.133601,0.13585,43.684173,-16.441973,-1.515607,4.63583E+18,-0.514408,0.464608,-0.619495,-0.368442,-9.776339,0.77604,-0.512605,-0.536834,-0.185861,0.028228,42.603836,16.895046,4.235969,4.63583E+18,-0.520247,-0.493222,-0.529374,0.453693,0
-8.466251,3.074599,2.83246,-0.380565,-0.103036,-0.006482,45.082283,-3.459206,3.451852,4.63583E+18,0.700646,-0.19585,0.6657,-0.166075,-9.186986,-2.086966,0.093838,0.046123,-0.162602,0.054231,43.591226,-16.524127,-1.662547,4.63583E+18,-0.515517,0.46344,-0.619352,-0.368603,-9.622914,0.685328,-0.141229,-0.565963,-0.196693,0.016324,42.60907,16.926448,4.356343,4.63583E+18,-0.521877,-0.491649,-0.529984,0.452817,0
-8.528122,2.845844,3.076414,-0.438713,-0.164126,0.001536,45.045319,-3.413562,3.229961,4.63583E+18,0.701016,-0.196368,0.665483,-0.164771,-9.740085,-3.531841,1.701501,0.49926,-0.12988,-0.025355,43.699697,-16.600665,-1.867733,4.63583E+18,-0.517532,0.461558,-0.619814,-0.367362,-9.69443,0.348765,-0.188355,-0.507214,-0.210273,-0.005189,42.652669,16.96829,4.600454,4.63583E+18,-0.523373,-0.490127,-0.530493,0.452143,0
-8.545182,2.539855,3.53623,-0.502049,-0.174036,0.009188,44.970415,-3.459198,2.87147,4.63583E+18,0.701367,-0.197059,0.665281,-0.16326,-8.85405,-3.851757,-0.319449,0.731099,0.19412,-0.06692,43.82129,-16.640097,-1.815142,4.63583E+18,-0.51921,0.459776,-0.621243,-0.364808,-9.910661,-0.071491,-0.484801,-0.374773,-0.233466,-0.022431,42.732885,16.973521,4.628356,4.63583E+18,-0.524614,-0.48881,-0.530736,0.451845,0
-8.638796,2.269307,3.659375,-0.532547,-0.192699,0.01232,44.825962,-3.544639,2.858179,4.63583E+18,0.701746,-0.197844,0.665043,-0.161641,-7.418701,1.009719,-4.382132,0.643209,0.312228,0.06778,43.81237,-16.534937,-1.570552,4.63583E+18,-0.5202,0.458007,-0.623045,-0.362543,-10.027509,-0.200556,-0.631293,-0.219746,-0.257574,-0.02945,42.701511,16.975267,4.396433,4.63583E+18,-0.525579,-0.487769,-0.530647,0.451953,0
-8.770227,2.087847,4.046022,-0.532364,-0.197037,0.015275,44.910656,-3.499035,2.871586,4.63583E+18,0.702139,-0.198625,0.66479,-0.160009,-8.449949,3.788937,-3.061613,0.787415,0.3602,0.172993,43.792655,-16.484674,-1.215124,4.63583E+18,-0.521171,0.455714,-0.625363,-0.360036,-10.050177,0.01914,-0.648739,-0.10011,-0.286261,-0.036774,42.603836,16.96829,4.152281,4.63583E+18,-0.526349,-0.48692,-0.530284,0.452399,0
-8.792177,1.863624,4.434194,-0.53005,-0.158861,0.023394,45.134879,-3.357417,2.859379,4.63583E+18,0.702433,-0.199352,0.664649,-0.158393,-7.685904,5.545066,-4.146327,0.373761,0.486057,0.306003,43.716127,-16.755099,-0.948439,4.63583E+18,-0.520819,0.454156,-0.627579,-0.358656,-10.071108,0.319131,-0.69233,-0.050356,-0.31434,-0.043031,42.703231,16.942134,3.9988,4.63583E+18,-0.527068,-0.486112,-0.529777,0.453025,0
-8.873569,1.582058,4.554179,-0.520792,-0.124473,0.036282,45.135646,-3.507611,2.875252,4.63583E+18,0.702649,-0.199997,0.664607,-0.15679,-8.728881,6.835428,-3.068351,0.050986,0.357664,0.368461,43.610977,-17.027904,-0.805689,4.63583E+18,-0.520093,0.45294,-0.629147,-0.358501,-10.003109,0.329615,-0.816143,-0.056,-0.344551,-0.042116,42.867162,16.970021,3.979606,4.63583E+18,-0.527866,-0.485235,-0.529211,0.453696,0
-8.964714,1.158055,4.668524,-0.532793,-0.080643,0.054263,44.987528,-3.630079,2.806071,4.63583E+18,0.702745,-0.200601,0.664712,-0.155138,-10.856139,-1.268708,-0.611966,-0.191441,0.225196,-0.021672,43.494976,-17.044383,-0.782698,4.63583E+18,-0.519837,0.453075,-0.629327,-0.358387,-9.828744,0.163961,-0.837099,-0.013911,-0.381779,-0.046689,42.877647,17.090347,4.033672,4.63583E+18,-0.52865,-0.48437,-0.528492,0.454545,0
-9.190534,0.432181,5.036753,-0.559388,-0.048139,0.094778,45.134827,-3.593863,2.558686,4.63583E+18,0.702754,-0.201152,0.664957,-0.153318,-13.357712,-8.650394,-1.052177,-0.345897,0.387217,-0.143026,43.514681,-16.91946,-0.64142,4.63583E+18,-0.519044,0.454104,-0.629397,-0.358109,-9.795519,0.010504,-0.755132,0.119896,-0.419314,-0.07049,42.830549,17.102595,3.956996,4.63583E+18,-0.529201,-0.483674,-0.527483,0.455815,0
-9.627535,-0.513857,5.494924,-0.605422,-0.0261,0.156514,45.247956,-3.576769,2.340581,4.63583E+18,0.702704,-0.201654,0.665342,-0.151208,-15.420757,-1.314914,-4.81807,-0.207862,0.665738,0.23996,43.568222,-16.942441,-0.374732,4.63583E+18,-0.517207,0.454245,-0.630998,-0.357769,-10.051827,-0.02096,-0.850947,0.211796,-0.454259,-0.087131,42.82357,17.053741,3.766906,4.63583E+18,-0.529609,-0.483076,-0.526255,0.457392,0
-10.087799,-1.596339,5.69679,-0.583813,-0.01563,0.243219,45.087227,-3.632924,2.379225,4.63583E+18,0.702695,-0.201846,0.66581,-0.148912,-16.530768,4.560499,-4.691205,0.057276,0.670303,0.204219,43.545241,-16.962235,-0.182696,4.63583E+18,-0.515908,0.453913,-0.632932,-0.356649,-10.421528,0.200453,-1.166589,0.174899,-0.498351,-0.07188,42.818342,17.158309,3.620394,4.63583E+18,-0.530215,-0.482344,-0.524965,0.458942,0
-10.586188,-2.314033,5.276122,-0.458968,-0.085118,0.342683,44.96761,-3.715515,2.404858,4.63583E+18,0.703045,-0.201439,0.666074,-0.146613,-15.565903,2.322821,0.595763,0.34476,0.336881,-0.216555,43.482769,-16.823239,-0.04883,4.63583E+18,-0.516651,0.453574,-0.633778,-0.354497,-10.770337,0.387159,-1.203398,0.07129,-0.552982,-0.037242,42.811363,17.261291,3.480908,4.63583E+18,-0.531212,-0.481352,-0.523681,0.460295,0
-10.808815,-2.790526,4.718269,-0.31353,-0.232895,0.435146,44.891521,-3.922598,2.414215,4.63583E+18,0.703982,-0.200441,0.665886,-0.144321,-12.181861,-0.070345,3.641394,0.247184,0.281463,-0.26199,43.505734,-16.78373,0.000381,4.63583E+18,-0.517417,0.453483,-0.634271,-0.352609,-10.969196,0.230316,-0.729196,0.030195,-0.586104,-0.016176,42.8375,17.113123,3.170612,4.63583E+18,-0.532402,-0.480248,-0.522357,0.461576,0
-10.5688,-3.042878,4.06595,-0.18733,-0.378573,0.51014,44.874416,-4.176126,2.351562,4.63583E+18,0.705471,-0.198954,0.665247,-0.142037,-8.487512,-0.274013,2.904143,-0.165986,0.412637,-0.164596,43.610848,-16.846216,0.186745,4.63583E+18,-0.516908,0.454217,-0.634624,-0.351775,-10.854295,0.148125,-0.078787,0.075971,-0.581847,-0.012668,42.835819,17.017081,2.701544,4.63583E+18,-0.533494,-0.479259,-0.520945,0.462938,0
-10.186809,-2.611383,3.541535,-0.154243,-0.484087,0.565068,44.996027,-4.301452,2.116456,4.63583E+18,0.707307,-0.197281,0.664312,-0.139595,-7.490245,-0.648998,2.365869,-0.611906,0.460324,-0.06436,43.769553,-16.800301,0.382074,4.63583E+18,-0.51528,0.455715,-0.634614,-0.352243,-10.378282,0.531663,0.540397,0.084856,-0.549807,-0.011443,42.75036,17.06595,2.387458,4.63583E+18,-0.534498,-0.478352,-0.519581,0.464249,0
-9.871034,-1.979504,3.205792,-0.151108,-0.582418,0.589895,45.089232,-4.443019,1.976014,4.63583E+18,0.709425,-0.195587,0.663092,-0.137008,-8.021169,-1.10285,3.131775,-0.966922,0.49043,0.029553,43.862669,-16.675312,0.498693,4.63583E+18,-0.512873,0.457557,-0.634472,-0.353621,-9.865489,0.918989,0.88065,0.062717,-0.505561,-0.02852,42.701496,17.06595,2.373424,4.63583E+18,-0.535415,-0.477441,-0.518389,0.465461,0
-9.727706,-1.531757,2.903432,-0.124415,-0.708777,0.585705,45.050227,-4.863664,1.90641,4.63583E+18,0.711902,-0.1939,0.661464,-0.134402,-8.050332,-1.308073,3.289613,-0.974496,0.571681,0.074311,43.757561,-16.721191,0.427259,4.63583E+18,-0.510165,0.459415,-0.634566,-0.354957,-9.603808,1.014924,0.717011,-0.000834,-0.448203,-0.044409,42.732846,17.196571,2.387475,4.63583E+18,-0.536301,-0.476464,-0.517479,0.466454,0
-9.517805,-0.982126,2.972428,-0.144256,-0.799157,0.543103,44.967632,-5.111577,1.52734,4.63583E+18,0.714578,-0.192439,0.659526,-0.131796,-8.360141,-1.955367,2.355582,-0.83613,0.629971,0.139129,43.621807,-16.888813,0.479686,4.63583E+18,-0.507345,0.461104,-0.634949,-0.356124,-9.648924,0.913996,0.258363,-0.13406,-0.394472,-0.033578,42.800864,17.439055,2.164426,4.63583E+18,-0.537355,-0.475315,-0.516924,0.467028,0
-9.161456,-0.65526,3.258395,-0.192844,-0.804858,0.48095,45.003775,-5.095409,1.041956,4.63583E+18,0.717185,-0.191295,0.657532,-0.129241,-9.548053,-2.428652,1.322226,-0.627763,0.609701,0.195993,43.587879,-17.027845,0.674994,4.63583E+18,-0.50489,0.462168,-0.635699,-0.356896,-9.907029,0.549597,0.073139,-0.224279,-0.35435,-0.005065,42.867123,17.430571,1.862614,4.63583E+18,-0.538555,-0.474102,-0.516577,0.467262,0
-8.929801,-0.598163,3.126848,-0.215724,-0.817479,0.428065,44.95543,-5.265347,0.787462,4.63583E+18,0.71977,-0.19037,0.655454,-0.126773,-10.427251,-1.875604,0.679932,-0.3614,0.569108,0.200991,43.641468,-17.090364,0.867052,4.63583E+18,-0.503161,0.462385,-0.636917,-0.356884,-10.072809,0.289516,0.118672,-0.265188,-0.306744,0.041626,42.877684,17.229989,1.757866,4.63583E+18,-0.539823,-0.472989,-0.516322,0.467209,0
-8.765406,-0.607515,2.933122,-0.21897,-0.879758,0.394482,45.00092,-5.453364,0.604363,4.63583E+18,0.722493,-0.189579,0.653147,-0.124349,-10.658862,-1.013472,0.121753,-0.254326,0.523932,0.187786,43.621807,-17.090364,1.027221,4.63583E+18,-0.501775,0.462345,-0.638169,-0.356651,-10.003262,0.221553,0.184637,-0.304535,-0.230951,0.081462,42.841,17.107854,1.799653,4.63583E+18,-0.541082,-0.47202,-0.516234,0.46683,0
-8.559953,-0.816119,3.257891,-0.232063,-0.910337,0.366461,45.077016,-5.558797,0.196804,4.63583E+18,0.725263,-0.18892,0.650715,-0.121951,-10.63859,-0.94833,0.017273,-0.239078,0.473996,0.190704,43.545292,-17.09364,1.124871,4.63583E+18,-0.500542,0.462191,-0.639342,-0.356482,-9.94191,1.197856,-0.928811,-0.458161,-0.087887,0.090811,42.91587,17.034619,1.975629,4.63583E+18,-0.542351,-0.471001,-0.516748,0.465817,0
-8.415049,-1.262328,3.930309,-0.231151,-0.878333,0.338692,44.963232,-5.653592,-0.120272,4.63583E+18,0.727921,-0.188316,0.648342,-0.119669,-10.273867,-1.410402,0.156613,-0.115463,0.443724,0.193986,43.436916,-17.102571,1.245454,4.63583E+18,-0.49962,0.461726,-0.640637,-0.356053,-10.198122,2.091908,-3.360921,-0.81919,0.020591,0.059699,43.043234,16.992706,2.178069,4.63583E+18,-0.544031,-0.469306,-0.518264,0.46388,0
-8.479982,-1.687975,4.279331,-0.220653,-0.826431,0.317468,44.923244,-5.863435,-0.398153,4.63583E+18,0.730427,-0.187712,0.646088,-0.117522,-9.971063,-1.185979,0.369779,0.013048,0.411838,0.191227,43.292221,-17.14841,1.408904,4.63583E+18,-0.49903,0.460953,-0.642048,-0.355339,-10.358927,0.906013,-3.978431,-1.187297,0.044526,0.044388,43.055576,17.060599,2.233955,4.63583E+18,-0.546339,-0.466781,-0.520567,0.461128,0
-8.564662,-1.894486,4.305577,-0.199084,-0.765657,0.302331,45.110253,-6.116949,-0.819197,4.63583E+18,0.73277,-0.187058,0.643981,-0.115524,-10.082992,-0.341566,0.506163,0.044735,0.383051,0.157725,43.28446,-17.31604,1.515496,4.63583E+18,-0.498624,0.460161,-0.643378,-0.354529,-10.036731,0.489509,-3.233818,-1.386792,0.104915,0.068035,43.011905,17.114848,2.312284,4.63583E+18,-0.548934,-0.463955,-0.523329,0.457759,0
-8.51635,-1.891367,4.390513,-0.181062,-0.719817,0.270445,45.092586,-6.242401,-1.226987,4.63583E+18,0.73498,-0.186413,0.641969,-0.11371,-10.367643,0.263469,0.393346,0.006699,0.343947,0.104866,43.452091,-17.432173,1.613156,4.63583E+18,-0.498323,0.459532,-0.644467,-0.353788,-9.513396,1.206095,-2.494438,-1.530538,0.166605,0.090625,42.992784,16.96675,2.625909,4.63583E+18,-0.551695,-0.460951,-0.526443,0.453888,0
-8.440255,-1.87059,4.288185,-0.159314,-0.685776,0.234699,44.826644,-6.262398,-1.383847,4.63583E+18,0.737092,-0.185779,0.640013,-0.112095,-10.500754,0.601707,0.013167,-0.040034,0.298151,0.038699,43.564949,-17.409259,1.736996,4.63583E+18,-0.498151,0.459112,-0.645263,-0.353126,-9.342039,2.208353,-1.553214,-1.585637,0.204734,0.110912,42.968292,16.797466,3.103739,4.63583E+18,-0.554492,-0.457916,-0.529688,0.449758,0
-8.385716,-1.877081,4.070561,-0.132546,-0.680728,0.190457,44.621466,-6.262398,-1.553422,4.63583E+18,0.739183,-0.185177,0.638016,-0.110696,-10.464137,0.767553,-0.379553,-0.095702,0.238586,-0.038637,43.513484,-17.369621,1.876669,4.63583E+18,-0.498143,0.458929,-0.645703,-0.352568,-9.34928,2.618407,-0.885832,-1.434363,0.22281,0.119037,42.982265,16.779872,3.494499,4.63583E+18,-0.556953,-0.455264,-0.532654,0.445889,0
-8.318192,-1.870592,3.922757,-0.109683,-0.702745,0.154911,44.646872,-6.327833,-1.664605,4.63583E+18,0.741327,-0.18461,0.635903,-0.109453,-10.417696,0.79738,-0.578784,-0.141899,0.159769,-0.123312,43.39732,-17.409266,1.867733,4.63583E+18,-0.498381,0.458957,-0.64575,-0.35211,-9.234114,0.53639,-0.249486,-1.067026,0.213922,0.101044,43.018789,16.759191,3.698744,4.63583E+18,-0.558688,-0.453395,-0.534936,0.442882,0
-8.207567,-1.877079,3.735268,-0.0965,-0.747688,0.11878,44.722968,-6.478704,-1.899596,4.63583E+18,0.743577,-0.184121,0.633607,-0.108323,-10.337919,0.649154,-0.636304,-0.167985,0.092924,-0.208181,43.420215,-17.323824,1.841566,4.63583E+18,-0.498872,0.459172,-0.645456,-0.351674,-8.868702,-1.724587,1.144409,-0.590942,0.270255,0.124566,43.072936,16.576184,3.872888,4.63583E+18,-0.559434,-0.452784,-0.536418,0.440768,0
-8.066791,-1.87994,3.593161,-0.071914,-0.804438,0.078939,44.674701,-6.528101,-2.404724,4.63583E+18,0.74597,-0.183688,0.631083,-0.107339,-10.214104,0.377111,-0.459293,-0.160755,0.033969,-0.288058,43.50239,-17.238377,1.743912,4.63583E+18,-0.499649,0.459504,-0.644896,-0.351164,-8.00748,-1.424045,1.857098,-0.194743,0.377253,0.205152,43.017316,16.438155,4.08239,4.63583E+18,-0.559337,-0.45347,-0.537267,0.439147,0
-7.892254,-1.87994,3.629997,-0.052888,-0.832924,0.035076,44.710767,-6.474874,-2.83827,4.63583E+18,0.748422,-0.183323,0.628418,-0.106524,-9.986066,-0.070672,0.017053,-0.123977,-0.013487,-0.355984,43.57564,-17.133295,1.724748,4.63583E+18,-0.500721,0.459875,-0.644159,-0.350503,-7.037889,-0.792145,1.205514,0.081309,0.454197,0.257696,42.860413,16.498974,4.060069,4.63583E+18,-0.558641,-0.455057,-0.537689,0.437875,0
-7.653103,-1.945359,3.491139,-0.021332,-0.839063,-0.017955,44.727924,-6.523135,-3.079306,4.63583E+18,0.750882,-0.183002,0.625668,-0.105954,-9.721018,-0.470421,0.48023,-0.084174,-0.035916,-0.406278,43.648879,-16.928837,1.916779,4.63583E+18,-0.501999,0.460268,-0.643337,-0.349669,-6.339659,-0.902422,1.033306,0.263566,0.487833,0.274659,42.79904,16.522064,4.033427,4.63583E+18,-0.557551,-0.457164,-0.537821,0.436906,0
-7.452832,-2.161635,3.330349,0.032155,-0.838747,-0.072678,44.71858,-6.608583,-3.340028,4.63583E+18,0.753347,-0.182658,0.622843,-0.105697,-9.65126,-0.42944,0.560886,-0.105689,-0.057203,-0.423349,43.725392,-16.664632,2.001797,4.63583E+18,-0.503313,0.460723,-0.642404,-0.348894,-5.803034,-1.314843,0.351129,0.419124,0.538645,0.282737,42.957491,16.332088,4.299962,4.63583E+18,-0.556062,-0.45974,-0.537768,0.436166,0
-7.288395,-2.361938,3.314691,0.117077,-0.827047,-0.119798,44.650297,-6.563198,-3.779706,4.63583E+18,0.755814,-0.182163,0.61997,-0.10582,-9.642768,-0.422223,0.6592,-0.169243,-0.075647,-0.435555,43.76507,-16.624954,1.815423,4.63583E+18,-0.504569,0.46132,-0.641314,-0.348295,-5.722358,-2.42206,-1.760528,0.430159,0.382701,0.220581,43.177333,16.167942,4.594945,4.63583E+18,-0.554783,-0.461914,-0.537449,0.435889,0
-7.185781,-2.451585,3.226961,0.198552,-0.796558,-0.156481,44.751755,-6.487097,-4.193209,4.63583E+18,0.758237,-0.181494,0.617121,-0.106296,-9.482749,-1.165833,0.610181,-0.179156,-0.088581,-0.458807,43.722111,-16.596019,1.620128,4.63583E+18,-0.50587,0.461984,-0.640136,-0.347695,-6.651454,-2.566154,3.200439,-0.234744,-0.023894,0.011832,43.207458,16.157266,4.705064,4.63583E+18,-0.555314,-0.461345,-0.537797,0.435388,0
-7.053607,-2.437861,3.431962,0.280613,-0.809553,-0.179213,44.788963,-6.404509,-4.359558,4.63583E+18,0.760733,-0.180627,0.614166,-0.107047,-9.587971,-1.894036,0.534892,-0.082818,-0.080307,-0.455798,43.798616,-16.303244,1.499964,4.63583E+18,-0.507326,0.462451,-0.639119,-0.346824,-7.100117,0.647227,6.648385,-1.015829,-0.010926,-0.227232,43.048766,16.267006,4.712058,4.63583E+18,-0.556877,-0.458451,-0.540046,0.43366,0
-6.832381,-2.083554,3.6904,0.363921,-0.820153,-0.185357,44.723556,-6.393816,-4.606708,4.63583E+18,0.763301,-0.179516,0.611126,-0.108026,-9.825412,-1.232943,0.738291,0.053288,-0.063367,-0.451285,43.8808,-16.18375,1.562548,4.63583E+18,-0.508988,0.462644,-0.638341,-0.345562,-7.181939,1.695023,0.197031,-1.160416,0.266198,-0.266543,42.926579,16.352708,4.83194,4.63583E+18,-0.55801,-0.455623,-0.543263,0.431159,0
-6.691038,-1.884187,3.523484,0.404716,-0.825492,-0.174415,44.638121,-6.331291,-4.899624,4.63583E+18,0.765904,-0.178248,0.608048,-0.109074,-9.874932,-0.454457,0.782665,0.128613,-0.054686,-0.483192,43.976903,-16.109488,1.614804,4.63583E+18,-0.510811,0.462776,-0.637625,-0.344012,-8.698273,1.657637,-3.375116,-1.024255,0.275692,-0.103697,42.952377,16.382204,5.112725,4.63583E+18,-0.559143,-0.453488,-0.545935,0.428559,0
-6.701948,-1.79129,3.748341,0.416857,-0.903828,-0.161268,44.608881,-6.191934,-5.262059,4.63583E+18,0.768703,-0.17694,0.604712,-0.110057,-9.783674,0.164199,0.527198,0.111662,-0.050625,-0.519143,44.112726,-15.842525,1.780716,4.63583E+18,-0.512637,0.463046,-0.636822,-0.342417,-13.082417,3.035239,0.355069,-1.064151,-0.073839,-0.010393,43.048517,16.39989,5.356998,4.63583E+18,-0.561301,-0.450838,-0.547678,0.426304,0
-6.732314,-1.386986,4.87602,0.422704,-0.980367,-0.145316,44.542004,-6.216379,-5.568836,4.63583E+18,0.771687,-0.175606,0.601126,-0.110949,-9.57613,0.618005,0.291119,0.002501,-0.047073,-0.551191,44.16312,-15.532489,1.817195,4.63583E+18,-0.514282,0.46364,-0.635807,-0.341031,-17.161398,-0.032817,7.83499,-1.175435,-0.389961,0.004847,43.055511,16.258903,5.390745,4.63583E+18,-0.564404,-0.447391,-0.548837,0.424343,0
-6.765846,-0.281558,5.926983,0.395328,-1.016003,-0.120248,44.520401,-6.301821,-5.849572,4.63583E+18,0.774732,-0.174313,0.59744,-0.111667,-9.47962,-0.109884,-0.022292,-0.15671,-0.055917,-0.574378,44.177033,-15.321851,1.745659,4.63583E+18,-0.515669,0.464624,-0.634499,-0.34003,-15.148784,-4.852676,8.478306,-0.523692,-0.140138,0.090974,43.055511,16.089494,5.244108,4.63583E+18,-0.565864,-0.446109,-0.549262,0.423197,0
-6.857192,0.906146,5.754321,0.372035,-1.039774,-0.103647,44.511281,-6.396398,-6.203323,4.63583E+18,0.777808,-0.173064,0.593685,-0.112258,-9.781781,-1.107406,-0.291281,-0.272463,-0.083275,-0.567598,44.259212,-15.259254,1.745659,4.63583E+18,-0.51689,0.465803,-0.632979,-0.339396,-11.705504,-5.986503,1.755808,0.385967,0.217349,0.22524,43.055511,16.009261,5.229835,4.63583E+18,-0.565049,-0.447906,-0.548674,0.42315,0
-6.848492,1.652364,5.031677,0.323549,-1.076043,-0.102002,44.380502,-6.238679,-6.745937,4.63583E+18,0.780917,-0.171981,0.589821,-0.112703,-10.225821,-1.821577,-0.06633,-0.25506,-0.118216,-0.556019,44.312874,-15.193976,1.693436,4.63583E+18,-0.518215,0.466866,-0.631428,-0.338804,-10.769631,-3.480645,-1.406705,0.741384,0.249704,0.332097,43.097192,15.899554,5.363955,4.63583E+18,-0.563681,-0.450838,-0.547332,0.4236,0
-6.580795,1.852294,4.815892,0.260816,-1.090296,-0.11132,44.328169,-5.994553,-7.261969,4.63583E+18,0.783991,-0.171127,0.585918,-0.11302,-10.165135,-1.867241,0.510663,-0.142359,-0.123471,-0.574748,44.332455,-14.926991,1.524232,4.63583E+18,-0.519795,0.46773,-0.629984,-0.337879,-9.810471,0.844457,-0.612181,0.703691,0.138119,0.430997,43.184432,15.808587,5.468917,4.63583E+18,-0.562805,-0.453704,-0.545601,0.423937,0
-6.248118,1.694466,4.672928,0.199123,-1.067709,-0.135038,44.325081,-5.941917,-7.668177,4.63583E+18,0.786935,-0.170519,0.582086,-0.113285,-9.613448,-1.121836,1.008473,-0.074982,-0.109863,-0.593043,44.425264,-14.594169,1.475515,4.63583E+18,-0.521489,0.468516,-0.628627,-0.336705,-8.633677,2.343066,0.189169,0.634595,0.094398,0.438778,43.257671,15.845053,5.349102,4.63583E+18,-0.562167,-0.456344,-0.543869,0.424176,0
-6.110023,1.453406,4.070329,0.109513,-1.102691,-0.164406,44.261245,-6.00884,-7.982771,4.63583E+18,0.789866,-0.170293,0.578145,-0.113405,-9.150524,-0.409095,1.105007,-0.097747,-0.085297,-0.601579,44.555437,-14.320869,1.512042,4.63583E+18,-0.523081,0.469409,-0.627271,-0.335518,-8.54556,1.03088,0.408367,0.692723,0.1117,0.403202,43.263194,15.789852,5.146472,4.63583E+18,-0.56131,-0.459065,-0.542137,0.424592,0
-6.228267,1.127216,3.827245,0.014174,-1.193875,-0.176759,44.048146,-6.030457,-8.266604,4.63583E+18,0.792923,-0.170451,0.573924,-0.113275,-8.912985,-0.122276,0.756657,-0.198028,-0.066722,-0.600373,44.660465,-14.235413,1.388281,4.63583E+18,-0.52442,0.470545,-0.625816,-0.334554,-9.196444,0.717194,0.301764,0.748799,0.111543,0.377553,43.219416,15.618635,5.132162,4.63583E+18,-0.560295,-0.461853,-0.540347,0.42519,0
-6.402255,0.864391,3.918124,-0.061471,-1.271682,-0.176785,43.91945,-5.97575,-8.766195,4.63583E+18,0.796089,-0.170894,0.569463,-0.112914,-9.046002,-0.755822,0.514381,-0.273286,-0.068866,-0.605501,44.838707,-14.061936,1.27124,4.63583E+18,-0.525618,0.471857,-0.624237,-0.333774,-9.622355,1.367862,0.244314,0.667769,0.117624,0.369864,43.288912,15.644352,5.188147,4.63583E+18,-0.559401,-0.464441,-0.538724,0.425607,0
-6.481976,0.586887,4.019016,-0.130097,-1.32914,-0.141943,43.824889,-5.902512,-9.421942,4.63583E+18,0.799333,-0.171507,0.56485,-0.112238,-9.667569,-1.816544,0.75221,-0.214443,-0.083036,-0.60984,45.005437,-13.646907,1.339554,4.63583E+18,-0.526969,0.473032,-0.622698,-0.332853,-9.982998,1.639552,0.169283,0.507516,0.115405,0.370976,43.409354,15.704101,5.104834,4.63583E+18,-0.55882,-0.466649,-0.537373,0.425662,0
-6.494339,0.193638,4.068,-0.165751,-1.349043,-0.099204,43.791047,-5.82927,-10.096419,4.63583E+18,0.802592,-0.172145,0.560196,-0.111325,-9.916505,-2.127568,1.283517,-0.107201,-0.093712,-0.612128,44.954104,-13.31987,1.304525,4.63583E+18,-0.528556,0.473965,-0.621277,-0.331663,-10.231596,1.385479,0.056163,0.409316,0.101631,0.364694,43.494811,15.495446,4.992828,4.63583E+18,-0.558447,-0.468588,-0.536173,0.425536,0
-6.558146,0.103682,3.840276,-0.18234,-1.397467,-0.073502,43.605651,-5.692225,-10.485192,4.63583E+18,0.805936,-0.172796,0.555384,-0.11026,-10.016634,-2.43487,1.368741,-0.012372,-0.090078,-0.623011,44.834533,-13.214881,1.259015,4.63583E+18,-0.530329,0.474723,-0.61997,-0.330192,-10.103051,1.230802,-0.241475,0.357685,0.098128,0.370318,43.549014,15.104849,5.039688,4.63583E+18,-0.558189,-0.47041,-0.535043,0.425287,0
-6.288079,0.283071,3.778112,-0.191441,-1.417148,-0.052408,43.416185,-5.588216,-10.778188,4.63583E+18,0.809299,-0.173433,0.550504,-0.109096,-10.038387,-1.714989,0.858356,0.037094,-0.08567,-0.610908,44.867958,-13.052911,1.327347,4.63583E+18,-0.532164,0.475346,-0.618762,-0.328604,-9.865745,1.202264,-0.557765,0.274251,0.078212,0.374779,43.524781,14.849591,5.102695,4.63583E+18,-0.558144,-0.472011,-0.534003,0.424878,0
-6.07977,0.387384,4.103329,-0.185359,-1.381014,-0.03344,43.309098,-5.575691,-11.280799,4.63583E+18,0.812563,-0.173988,0.545733,-0.107912,-9.481688,-0.427157,0.216321,-0.012215,-0.105045,-0.619467,45.026644,-12.839655,1.24019,4.63583E+18,-0.533957,0.476075,-0.617423,-0.327157,-9.540252,0.867435,-0.561895,0.219441,0.052355,0.375815,43.477563,14.80758,5.061043,4.63583E+18,-0.558265,-0.473439,-0.532997,0.424394,0
-6.05178,0.448419,4.302703,-0.17388,-1.363512,-0.016079,43.214533,-5.587898,-11.927449,4.63583E+18,0.815775,-0.174455,0.541007,-0.106712,-9.007473,-0.315031,-0.192061,-0.147707,-0.14385,-0.65271,45.16252,-12.552443,0.976567,4.63583E+18,-0.535618,0.477138,-0.615744,-0.326055,-9.320879,0.848383,-0.380599,0.232162,0.043057,0.389527,43.506999,14.708682,4.968599,4.63583E+18,-0.558404,-0.47491,-0.531917,0.423923,0
-6.036642,0.418307,4.388318,-0.187652,-1.325201,-0.006964,43.125987,-5.654795,-12.598856,4.63583E+18,0.818868,-0.17493,0.536403,-0.105478,-9.318414,-0.979231,-0.056047,-0.249597,-0.185724,-0.654417,45.216221,-12.381524,0.812988,4.63583E+18,-0.53718,0.478376,-0.613825,-0.325288,-9.672083,1.263378,-0.15929,0.257406,0.032675,0.400555,43.59244,14.507994,4.956008,4.63583E+18,-0.558533,-0.476443,-0.530745,0.423501,0
-6.15805,0.266137,4.242824,-0.163031,-1.206692,-0.01172,43.095226,-5.685557,-13.133496,4.63583E+18,0.821689,-0.17528,0.53217,-0.104405,-9.654445,-1.825559,0.309266,-0.271169,-0.217833,-0.650502,45.216221,-12.19108,0.680322,4.63583E+18,-0.538768,0.479611,-0.611809,-0.324641,-10.121144,1.60558,0.003403,0.246216,0.02504,0.402377,43.641468,14.484589,5.088291,4.63583E+18,-0.558702,-0.477939,-0.529569,0.423064,0
-5.390265,-0.017216,4.323841,-0.150353,-0.744865,-0.006709,43.02834,-5.624856,-13.393942,4.63583E+18,0.823481,-0.175373,0.529503,-0.103684,-9.707324,-2.494424,0.331219,-0.259268,-0.233571,-0.646228,45.232504,-11.901361,0.511073,4.63583E+18,-0.540408,0.480787,-0.609777,-0.323997,-10.249015,1.573943,-0.043231,0.202159,0.014989,0.403462,43.672688,14.57564,5.117098,4.63583E+18,-0.558981,-0.479316,-0.528443,0.422546,0
-5.670822,-0.261701,4.31557,-0.250016,-0.950369,0.012473,42.888207,-5.484723,-13.595279,4.63583E+18,0.82565,-0.175854,0.526179,-0.102533,-9.70978,-2.703492,0.372773,-0.179864,-0.261415,-0.628496,45.296799,-11.483053,0.43621,4.63583E+18,-0.542247,0.481703,-0.607821,-0.323241,-10.117082,0.905564,-0.227978,0.150408,0.010053,0.407545,43.751148,14.50797,4.885312,4.63583E+18,-0.55938,-0.48057,-0.527387,0.421912,0
-6.552092,-0.517864,3.677367,-0.240274,-1.526086,0.050849,42.775088,-5.508288,-14.003258,4.63583E+18,0.82908,-0.176461,0.52088,-0.100854,-9.741501,-2.107765,0.78292,-0.084382,-0.285837,-0.614328,45.370037,-11.150239,0.401213,4.63583E+18,-0.544312,0.482334,-0.605962,-0.322316,-9.646976,-0.323178,-0.36443,0.136963,0.031359,0.430092,43.800163,14.317993,4.765928,4.63583E+18,-0.559796,-0.481879,-0.526357,0.421152,0
-5.757664,-0.576843,3.949837,-0.189501,-1.520211,0.073115,42.622759,-5.666633,-14.616012,4.63583E+18,0.832509,-0.176841,0.51557,-0.099213,-9.61048,-1.163018,1.139347,-0.064016,-0.292244,-0.627995,45.427001,-11.093277,0.277548,4.63583E+18,-0.546446,0.482946,-0.604083,-0.321314,-9.261836,-1.048713,-0.315935,0.186481,0.078015,0.474753,43.873073,14.086053,4.863587,4.63583E+18,-0.560087,-0.483481,-0.525257,0.420302,0
-5.043401,-0.418844,4.359918,-0.149407,-1.333945,0.099231,42.397182,-5.713065,-15.211428,4.63583E+18,0.835547,-0.176947,0.510885,-0.097708,-9.52512,-0.812287,1.132083,-0.082594,-0.299222,-0.658895,45.432703,-10.973748,0.108264,4.63583E+18,-0.548594,0.483669,-0.602097,-0.320295,-9.643928,-0.273098,-0.221526,0.21248,0.117011,0.52393,44.007517,13.890575,4.919583,4.63583E+18,-0.560324,-0.485317,-0.524101,0.419313,0
-5.04712,-0.511979,4.352397,-0.092898,-1.200776,0.119568,42.262395,-5.658406,-15.721304,4.63583E+18,0.838327,-0.176756,0.506637,-0.096356,-9.271923,-0.711123,0.907505,-0.148716,-0.310043,-0.69557,45.462769,-10.581472,-0.012155,4.63583E+18,-0.550676,0.48462,-0.599917,-0.319372,-10.18762,0.806065,0.037176,0.168577,0.129984,0.549311,44.025279,13.702444,4.961235,4.63583E+18,-0.560662,-0.487125,-0.522998,0.418139,0
-5.34554,-0.361142,3.838642,-0.056981,-1.230468,0.152599,42.173852,-5.767347,-16.118481,4.63583E+18,0.841185,-0.176381,0.502278,-0.094945,-9.384116,-1.568483,0.605588,-0.265244,-0.319451,-0.721563,45.6125,-10.294155,-0.172498,4.63583E+18,-0.552572,0.485891,-0.597503,-0.318691,-10.200547,1.68908,0.428692,0.088439,0.148566,0.569558,43.988478,13.463515,5.058889,4.63583E+18,-0.561154,-0.48882,-0.522033,0.416704,0
-5.496058,-0.438722,3.592447,-0.048609,-1.332896,0.179893,41.787803,-5.874487,-16.348067,4.63583E+18,0.844248,-0.175958,0.497557,-0.093385,-9.598323,-2.808502,0.497946,-0.254261,-0.313676,-0.735739,45.728931,-10.080968,-0.2474,4.63583E+18,-0.554486,0.487179,-0.595082,-0.317929,-10.012243,2.139218,0.372177,-0.032519,0.149921,0.584906,44.06835,13.20036,5.114902,4.63583E+18,-0.561913,-0.490265,-0.521247,0.414964,0
-5.381127,-0.770642,3.846908,-0.045676,-1.391901,0.200203,41.536355,-5.959931,-16.749753,4.63583E+18,0.847414,-0.175503,0.492622,-0.091721,-9.378674,-2.46074,0.978772,-0.131975,-0.316108,-0.747761,45.748436,-9.793657,-0.308367,4.63583E+18,-0.556661,0.488211,-0.592787,-0.316832,-9.587869,1.117946,0.011327,-0.08693,0.13578,0.580004,44.166386,12.926393,5.120108,4.63583E+18,-0.562801,-0.491545,-0.520529,0.413144,0
-5.143376,-0.784757,4.161573,-0.057613,-1.384149,0.228195,41.483855,-5.926982,-17.444409,4.63583E+18,0.850534,-0.175027,0.487717,-0.089943,-9.070175,-1.19258,1.463301,-0.106713,-0.295814,-0.788912,45.802177,-9.622759,-0.552434,4.63583E+18,-0.558882,0.489311,-0.590481,-0.315527,-9.126114,0.096227,-0.469612,-0.036884,0.14632,0.591847,44.202827,12.725683,5.16355,4.63583E+18,-0.563581,-0.492982,-0.519722,0.41138,0
-4.978096,-0.738644,4.390798,-0.063546,-1.313361,0.257577,41.171098,-5.799092,-18.076861,4.63583E+18,0.853487,-0.174482,0.483066,-0.088108,-8.97481,-0.597373,1.36565,-0.187946,-0.280923,-0.839118,45.821673,-9.40963,-0.885341,4.63583E+18,-0.560955,0.490743,-0.587995,-0.314265,-9.15337,-0.138718,-0.920184,0.020756,0.141501,0.623714,44.324699,12.504554,5.254196,4.63583E+18,-0.564304,-0.494612,-0.518736,0.409674,0
-5.089702,-0.595847,4.707583,-0.064089,-1.261112,0.279243,40.756085,-5.82564,-18.498847,4.63583E+18,0.856315,-0.173873,0.478597,-0.08624,-9.150542,-0.766243,1.326477,-0.272423,-0.27808,-0.881836,45.891669,-9.057285,-0.985641,4.63583E+18,-0.562893,0.492477,-0.585311,-0.313095,-9.249809,-0.112854,-0.975385,0.084701,0.131978,0.659276,44.391519,12.194187,5.273796,4.63583E+18,-0.564972,-0.496449,-0.517541,0.408038,0
-5.239484,-0.148664,4.751979,-0.07126,-1.301795,0.32556,40.769033,-6.038574,-18.947014,4.63583E+18,0.859208,-0.173213,0.474,-0.084162,-9.43288,-1.723719,1.458294,-0.300881,-0.269957,-0.929771,45.955952,-8.642247,-0.819569,4.63583E+18,-0.564804,0.494404,-0.582503,-0.311853,-9.447317,0.81446,-0.831905,0.102333,0.117445,0.688745,44.318279,11.91323,5.266392,4.63583E+18,-0.565681,-0.498363,-0.516217,0.406398,0
-5.055051,0.197233,4.244743,-0.077686,-1.313585,0.380307,40.754711,-6.222081,-19.277404,4.63583E+18,0.86211,-0.172471,0.46938,-0.081868,-9.689431,-2.940862,1.587746,-0.262079,-0.268889,-0.947741,46.029191,-8.249966,-0.808824,4.63583E+18,-0.566802,0.49628,-0.579702,-0.310462,-9.835155,1.772863,-0.724248,0.059013,0.075175,0.698744,44.44794,11.717712,5.358846,4.63583E+18,-0.566582,-0.50012,-0.514842,0.404726,0
-4.98062,0.559888,4.049961,-0.028061,-1.195383,0.364673,40.42657,-6.271502,-19.558125,4.63583E+18,0.864783,-0.171539,0.465138,-0.079818,-9.586285,-3.308206,1.480682,-0.231572,-0.266116,-0.934492,46.060212,-7.917119,-1.033372,4.63583E+18,-0.568826,0.498053,-0.576968,-0.309011,-9.763508,1.800483,-0.566942,0.026581,0.048539,0.693228,44.814386,11.534789,5.40788,4.63583E+18,-0.567595,-0.501739,-0.513465,0.403048,0
-5.262853,0.996058,4.732575,-0.019444,-1.182025,0.360201,40.193594,-6.338335,-20.130239,4.63583E+18,0.86741,-0.170579,0.46092,-0.077814,-9.222527,-3.236755,0.800654,-0.241029,-0.266312,-0.923105,46.016981,-7.601293,-1.335309,4.63583E+18,-0.570804,0.499818,-0.574236,-0.3076,-9.356899,1.372074,-0.524918,0.019682,0.042131,0.701421,44.965274,11.302872,5.371464,4.63583E+18,-0.568644,-0.503345,-0.512063,0.401347,0
-5.568457,1.365804,5.505587,-0.035178,-1.183815,0.30554,40.086417,-6.487522,-20.646888,4.63583E+18,0.869987,-0.169782,0.456644,-0.075976,-8.861121,-2.880502,-0.059244,-0.268585,-0.294495,-0.909278,46.090227,-7.331163,-1.602305,4.63583E+18,-0.572761,0.501576,-0.571424,-0.306335,-9.068949,0.7118,-0.431308,0.012559,0.034358,0.728836,44.829634,11.03456,5.447241,4.63583E+18,-0.569766,-0.504974,-0.510593,0.399578,0
-5.830995,1.388956,6.025481,-0.014828,-1.183761,0.228911,39.882626,-6.722135,-20.974174,4.63583E+18,0.87253,-0.169058,0.45229,-0.074456,-8.677781,-2.425244,-0.149191,-0.287695,-0.342913,-0.916313,46.13749,-6.904935,-1.774885,4.63583E+18,-0.574789,0.503332,-0.568448,-0.30519,-8.920218,0.365567,-0.013954,0.011692,0.052047,0.769565,44.708711,10.717167,5.620606,4.63583E+18,-0.570914,-0.506713,-0.509076,0.39767,0
-5.887073,1.33992,6.504451,-0.01756,-1.128022,0.149617,39.511042,-6.914761,-21.318658,4.63583E+18,0.874919,-0.168476,0.448069,-0.073259,-8.808673,-2.477833,0.256864,-0.279855,-0.391271,-0.93555,46.139046,-6.310719,-1.855525,4.63583E+18,-0.57696,0.505049,-0.565318,-0.304069,-9.335991,0.933906,0.30043,0.019562,0.085591,0.803347,44.746918,10.43619,5.424815,4.63583E+18,-0.572024,-0.508592,-0.507549,0.395622,0
-5.975,0.984686,6.610414,0.024039,-1.014747,0.047203,39.278052,-6.95822,-21.76681,4.63583E+18,0.877074,-0.1679,0.444163,-0.072596,-9.123463,-2.925213,0.662177,-0.271333,-0.424963,-0.937346,46.235016,-5.960594,-1.832801,4.63583E+18,-0.579215,0.506704,-0.562105,-0.302983,-9.935017,1.673081,0.24211,0.003719,0.088656,0.809993,44.825358,10.271854,5.151524,4.63583E+18,-0.573166,-0.510447,-0.506035,0.393515,0
-6.060655,0.49354,6.904574,0.065007,-0.917389,-0.043692,39.17088,-6.721565,-22.115427,4.63583E+18,0.879033,-0.16731,0.440528,-0.072416,-9.537864,-3.466762,1.066561,-0.233893,-0.446473,-0.922608,46.370985,-5.724777,-1.796041,4.63583E+18,-0.581568,0.508202,-0.558909,-0.301878,-9.891844,2.075925,0.237597,-0.01082,0.089566,0.811891,44.879615,10.094628,5.312696,4.63583E+18,-0.574333,-0.512267,-0.504537,0.391365,0
-6.161202,-0.01605,7.252796,0.093612,-0.782815,-0.128073,38.967109,-6.640827,-22.265873,4.63583E+18,0.880725,-0.16673,0.437311,-0.072697,-9.616503,-3.526552,1.380365,-0.183546,-0.452557,-0.915173,46.398796,-5.287048,-1.922895,4.63583E+18,-0.584017,0.50955,-0.555768,-0.300674,-9.783561,2.198031,-0.19661,-0.040268,0.074872,0.829455,44.89702,9.67848,5.618328,4.63583E+18,-0.575616,-0.514023,-0.503009,0.389139,0
-6.362086,-0.537863,7.454972,0.111555,-0.598758,-0.205289,38.722961,-6.704539,-22.354431,4.63583E+18,0.88206,-0.166169,0.434704,-0.073422,-9.351643,-2.969969,1.246084,-0.143511,-0.436305,-0.937522,46.301136,-4.809258,-2.153135,4.63583E+18,-0.586528,0.510868,-0.55266,-0.299277,-9.62716,1.588254,-0.591631,-0.066743,0.057501,0.846979,44.983804,9.233137,5.73748,4.63583E+18,-0.577013,-0.515717,-0.501439,0.386847,0
-6.776018,-0.889822,7.549949,0.10899,-0.420027,-0.254571,38.651746,-6.726279,-22.448975,4.63583E+18,0.883047,-0.165653,0.432718,-0.074448,-9.41669,-1.969573,1.115055,-0.119363,-0.44609,-0.975877,46.252144,-4.416942,-2.472047,4.63583E+18,-0.589145,0.512198,-0.549466,-0.297739,-9.46255,1.115116,-0.583666,-0.059478,0.053925,0.873048,45.149508,9.026707,5.732282,4.63583E+18,-0.578437,-0.517472,-0.499785,0.38451,0
-7.188391,-0.645876,7.286482,0.095667,-0.332989,-0.255345,38.64864,-6.598876,-22.619433,4.63583E+18,0.883862,-0.165161,0.431054,-0.075514,-9.364425,-2.174991,1.002726,-0.104261,-0.466681,-1.036035,46.311646,-4.106843,-2.836689,4.63583E+18,-0.591899,0.513599,-0.546102,-0.296049,-9.526495,1.391166,-0.669834,-0.06759,0.037565,0.896748,45.277019,8.787139,5.73047,4.63583E+18,-0.579943,-0.519222,-0.498048,0.38213,0
-7.569928,-0.209517,7.481369,0.091064,-0.264958,-0.245713,38.64864,-6.564476,-22.960355,4.63583E+18,0.88455,-0.16465,0.429647,-0.076581,-8.961183,-2.59841,0.923755,-0.102593,-0.441129,-1.089912,46.299438,-3.808314,-3.055094,4.63583E+18,-0.594646,0.515142,-0.542676,-0.294155,-9.579678,1.437339,-0.67116,-0.057608,0.029771,0.916543,45.362463,8.323305,5.701105,4.63583E+18,-0.581466,-0.521018,-0.496226,0.379733,0
-7.811836,0.12982,8.063053,0.098754,-0.222857,-0.193379,38.639541,-6.567583,-23.196271,4.63583E+18,0.885182,-0.164004,0.428427,-0.077497,-8.93713,-1.993466,0.869208,-0.122034,-0.459418,-1.118381,46.329372,-3.351172,-3.041368,4.63583E+18,-0.597409,0.516768,-0.539108,-0.292258,-9.483594,1.819168,-0.709847,-0.05393,0.023976,0.934311,45.479072,7.958187,5.568912,4.63583E+18,-0.583013,-0.522843,-0.494338,0.377308,0
-7.84337,0.544181,8.264185,0.121378,-0.127918,-0.102999,38.581839,-6.503891,-23.251995,4.63583E+18,0.885686,-0.163084,0.427611,-0.078185,-9.094738,-3.728712,0.929803,-0.145078,-0.477746,-1.135414,46.475848,-2.796918,-3.056378,4.63583E+18,-0.600165,0.518459,-0.535418,-0.290396,-9.583576,2.657813,-0.690628,-0.105493,0.010296,0.943583,45.611789,7.726258,5.581367,4.63583E+18,-0.584706,-0.524532,-0.49247,0.374778,0
-7.991832,0.595508,8.513188,0.159227,-0.005121,-0.003137,38.499494,-6.482131,-23.246004,4.63583E+18,0.886027,-0.161806,0.427303,-0.078656,-8.814413,-4.722447,1.259403,-0.159648,-0.4825,-1.102783,46.564008,-2.383907,-3.375279,4.63583E+18,-0.602839,0.520101,-0.531757,-0.288643,-9.698402,2.467788,-0.496636,-0.16956,0.012247,0.956878,45.641926,7.390444,5.832789,4.63583E+18,-0.586546,-0.526086,-0.49067,0.372074,0
-8.299384,0.355429,9.32174,0.191326,0.09436,0.090087,38.595992,-6.545807,-23.170123,4.63583E+18,0.886241,-0.160212,0.427414,-0.078904,-8.498372,-3.99595,1.582503,-0.110561,-0.487531,-1.08659,46.48429,-2.193576,-3.662221,4.63583E+18,-0.605593,0.52157,-0.528165,-0.286818,-9.711108,1.685413,-0.311671,-0.211355,0.037203,0.997851,45.612051,6.852018,5.908647,4.63583E+18,-0.588481,-0.527652,-0.488898,0.369124,0
-8.568381,0.217107,9.952584,0.219366,0.203442,0.167338,38.881989,-6.50392,-23.081573,4.63583E+18,0.886303,-0.158342,0.427967,-0.078988,-8.831162,-2.826685,1.709558,-0.087152,-0.472186,-1.098707,46.40931,-1.858801,-3.642793,4.63583E+18,-0.608358,0.523017,-0.524602,-0.284864,-9.856567,1.901616,-0.506697,-0.26121,0.036819,1.052078,45.593102,6.328175,5.823205,4.63583E+18,-0.590598,-0.529196,-0.487073,0.365932,0
-8.830735,0.195318,10.45623,0.243956,0.330746,0.220079,38.96603,-6.600372,-22.914256,4.63583E+18,0.886168,-0.156245,0.429014,-0.079001,-9.017528,-2.623628,1.285002,-0.085909,-0.472775,-1.145688,46.397102,-1.272794,-3.692625,4.63583E+18,-0.611162,0.524554,-0.520924,-0.282775,-9.806465,1.598215,-0.548337,-0.27693,0.032929,1.076572,45.594376,5.968699,5.779294,4.63583E+18,-0.592782,-0.530733,-0.485198,0.36265,0
-8.96286,0.195318,11.056747,0.244376,0.423127,0.235767,38.793229,-6.768154,-22.782614,4.63583E+18,0.885868,-0.154088,0.430409,-0.079013,-8.983897,-3.636809,0.903097,-0.050727,-0.478181,-1.183748,46.362225,-0.709528,-4.109158,4.63583E+18,-0.614078,0.526069,-0.517179,-0.28051,-9.952583,0.768971,-0.835653,-0.235591,0.024823,1.119411,45.679829,5.625338,5.703227,4.63583E+18,-0.594944,-0.532435,-0.483135,0.359354,0
-8.893705,0.195318,11.427774,0.249631,0.501372,0.222009,38.734089,-6.993619,-22.599995,4.63583E+18,0.885421,-0.151912,0.432078,-0.079129,-9.465194,-3.861729,1.044104,0.007584,-0.51611,-1.169339,46.287237,-0.212306,-4.522948,4.63583E+18,-0.617164,0.52735,-0.513422,-0.278223,-10.17116,1.680075,-1.663409,-0.217239,-0.006309,1.15371,45.76527,5.174278,5.554653,4.63583E+18,-0.597164,-0.534192,-0.480881,0.356072,0
-8.726159,0.277168,11.663073,0.267202,0.626296,0.179433,38.797751,-7.110446,-22.401563,4.63583E+18,0.884739,-0.149706,0.434171,-0.079506,-9.544494,-4.32163,1.039381,0.040083,-0.529495,-1.155806,46.297692,0.211239,-4.649535,4.63583E+18,-0.620311,0.528493,-0.509686,-0.275916,-9.840907,2.689079,-1.759896,-0.206465,-0.043482,1.155173,45.855907,4.728789,5.588584,4.63583E+18,-0.599423,-0.535911,-0.478503,0.352881,0
-8.734024,0.468864,12.119213,0.292269,0.766484,0.14117,39.010501,-7.25643,-22.133515,4.63583E+18,0.883796,-0.147429,0.436743,-0.080148,-9.041511,-4.911475,1.073707,0.082377,-0.552096,-1.112556,46.32885,0.45538,-4.632808,4.63583E+18,-0.623527,0.529399,-0.506022,-0.273666,-9.478715,3.364516,-1.224017,-0.173545,-0.082306,1.124483,45.948376,4.454746,5.783902,4.63583E+18,-0.601627,-0.537582,-0.476037,0.349912,0
-9.034589,0.752241,12.24714,0.346819,0.908794,0.130859,39.321407,-7.418235,-21.840548,4.63583E+18,0.882613,-0.144923,0.439808,-0.081005,-8.617251,-5.85617,1.258687,0.09262,-0.594469,-1.073875,46.24341,0.744798,-4.888844,4.63583E+18,-0.626788,0.530139,-0.502331,-0.271573,-9.174716,3.703677,-0.912488,-0.16965,-0.113709,1.093329,46.002685,4.119023,5.896176,4.63583E+18,-0.603826,-0.539143,-0.473547,0.34709,0
-9.622156,1.066519,12.22584,0.415682,1.032035,0.10008,39.46915,-7.513281,-21.411176,4.63583E+18,0.881216,-0.142174,0.443275,-0.082166,-8.465896,-6.396802,0.860437,0.12484,-0.641412,-0.996988,46.154727,1.182471,-5.230934,4.63583E+18,-0.630111,0.530573,-0.498711,-0.269703,-8.746891,3.494676,-0.619191,-0.16655,-0.142759,1.0741,46.014893,3.611834,5.823532,4.63583E+18,-0.606035,-0.54062,-0.471012,0.344381,0
-10.64497,1.238414,12.601468,0.485378,1.095947,0.055516,39.618236,-7.522876,-20.862395,4.63583E+18,0.879707,-0.139225,0.446917,-0.08365,-8.634605,-6.798935,0.334895,0.22166,-0.712763,-0.88332,46.079711,1.618289,-5.435236,4.63583E+18,-0.633648,0.530427,-0.495251,-0.268075,-8.614474,3.697363,-0.213603,-0.1458,-0.174247,1.036207,45.990774,3.166262,5.64743,4.63583E+18,-0.608192,-0.54202,-0.468444,0.341873,0
-11.683334,1.342302,12.914151,0.508666,1.106078,0.011178,40.27098,-7.89251,-20.561409,4.63583E+18,0.878154,-0.13627,0.450551,-0.085326,-8.656821,-6.851368,0.094735,0.350628,-0.786459,-0.777775,46.112789,1.85198,-5.679056,4.63583E+18,-0.637483,0.529633,-0.49196,-0.266609,-8.738373,4.233579,-0.161458,-0.129432,-0.230939,1.01311,46.016123,2.861087,5.500649,4.63583E+18,-0.610379,-0.543324,-0.465752,0.339576,0
-12.584334,1.303589,13.04011,0.466026,1.051439,-0.052503,40.916139,-8.502111,-20.344791,4.63583E+18,0.876635,-0.133614,0.453951,-0.087098,-8.48727,-6.234017,0.025566,0.446296,-0.855633,-0.692113,46.229435,2.042291,-6.06072,4.63583E+18,-0.641417,0.528577,-0.48849,-0.265647,-8.910485,4.66811,-0.59205,-0.135254,-0.306557,0.981976,46.179994,2.452169,5.408186,4.63583E+18,-0.612669,-0.544436,-0.462938,0.337512,0
-13.378259,1.09997,12.752849,0.381558,0.932678,-0.116631,41.074794,-8.976329,-19.852367,4.63583E+18,0.875253,-0.131433,0.456903,-0.08886,-8.126483,-6.202091,0.620046,0.554769,-0.906017,-0.630692,46.206796,2.309071,-6.451345,4.63583E+18,-0.645604,0.527036,-0.485125,-0.264729,-8.990446,4.962923,-1.28819,-0.181025,-0.400636,0.901623,46.278267,1.970273,5.281227,4.63583E+18,-0.615121,-0.545134,-0.460121,0.335772,0
-13.865512,0.992179,13.06501,0.330787,0.856157,-0.19608,41.259711,-9.009588,-19.420959,4.63583E+18,0.873945,-0.129614,0.459546,-0.090764,-7.733658,-5.934105,2.010406,0.609748,-0.936297,-0.557063,46.121356,2.573977,-6.841935,4.63583E+18,-0.64987,0.52515,-0.481886,-0.263953,-8.722847,5.182071,-1.743195,-0.256667,-0.502286,0.809876,46.247146,1.678231,5.098138,4.63583E+18,-0.617801,-0.54531,-0.457351,0.334347,0
-13.97436,1.112942,13.71745,0.308787,0.920443,-0.261648,41.68566,-8.675589,-19.124339,4.63583E+18,0.872461,-0.127972,0.46239,-0.092896,-6.986192,-4.92242,2.981141,0.514334,-0.95505,-0.4877,46.03914,2.659424,-7.23255,4.63583E+18,-0.653868,0.523348,-0.478628,-0.263588,-8.525632,4.54381,-1.388793,-0.333303,-0.582077,0.760501,46.236137,1.48843,4.832065,4.63583E+18,-0.620728,-0.545075,-0.454587,0.333079,0
-14.141077,1.286948,13.710247,0.287721,1.001526,-0.309257,41.9376,-8.505975,-18.919423,4.63583E+18,0.870775,-0.126464,0.465506,-0.095196,-6.526281,-4.859796,3.081575,0.361182,-0.957373,-0.416379,45.940029,2.790139,-7.623209,4.63583E+18,-0.657438,0.521807,-0.475337,-0.263719,-8.644035,3.491175,-0.36273,-0.343903,-0.616614,0.736143,46.345683,1.225374,4.53661,4.63583E+18,-0.623698,-0.544708,-0.451795,0.331926,0
-14.433512,1.057951,13.611523,0.265291,1.024057,-0.33794,41.981258,-8.547765,-18.509105,4.63583E+18,0.869003,-0.125081,0.468691,-0.097559,-6.535996,-5.829739,2.442544,0.292106,-0.941006,-0.33348,45.791762,3.020618,-8.013811,4.63583E+18,-0.660718,0.520298,-0.472182,-0.264169,-8.899408,3.398615,0.124236,-0.305169,-0.641143,0.734243,46.40585,0.915019,4.39499,4.63583E+18,-0.626614,-0.544395,-0.448882,0.330901,0
-14.596399,0.773526,13.317303,0.230931,1.086656,-0.335196,42.117588,-8.67866,-17.957189,4.63583E+18,0.867073,-0.123791,0.472109,-0.099863,-6.881035,-5.343246,2.151745,0.270619,-0.912511,-0.271215,45.728931,3.159924,-8.375362,4.63583E+18,-0.663812,0.518748,-0.469206,-0.264764,-9.136322,4.159231,0.081775,-0.325319,-0.690918,0.723281,46.33261,0.504329,4.268069,4.63583E+18,-0.629641,-0.543929,-0.445883,0.329973,0
-14.806218,0.471756,13.038869,0.189301,1.215015,-0.303569,42.34612,-8.716086,-17.519803,4.63583E+18,0.864862,-0.122534,0.476015,-0.102025,-7.51616,-5.296214,2.950588,0.310673,-0.860111,-0.231946,45.732163,3.203367,-8.633505,4.63583E+18,-0.666833,0.51706,-0.466493,-0.265268,-9.086316,4.424264,0.270584,-0.340665,-0.756647,0.685442,46.259367,0.034601,4.084958,4.63583E+18,-0.632761,-0.543252,-0.44281,0.329258,0
-15.13211,0.327035,12.74932,0.130679,1.292415,-0.25399,42.590239,-8.588882,-17.074697,4.63583E+18,0.862463,-0.121353,0.48024,-0.103921,-9.061241,-5.486595,4.332534,0.37297,-0.799487,-0.145627,45.71853,3.14951,-8.8288,4.63583E+18,-0.669761,0.515091,-0.464193,-0.265755,-9.397851,4.493493,0.581605,-0.328536,-0.866969,0.631569,46.144655,-0.219398,3.824099,4.63583E+18,-0.635969,-0.542344,-0.439542,0.328951,0
-15.322586,0.468746,12.062476,0.089644,1.350074,-0.209325,42.843488,-8.290755,-16.538095,4.63583E+18,0.859922,-0.120199,0.484702,-0.105597,-10.054874,-4.989599,3.995355,0.370812,-0.725286,-0.05728,45.655689,3.168885,-9.046712,4.63583E+18,-0.672431,0.513034,-0.462279,-0.266329,-9.90907,4.676253,0.319306,-0.341073,-0.95678,0.562246,46.212181,-0.398137,3.447536,4.63583E+18,-0.639261,-0.541141,-0.4362,0.328999,0
-15.702181,0.733896,11.971506,0.068459,1.472421,-0.18357,43.036226,-8.076172,-16.049275,4.63583E+18,0.857105,-0.11901,0.48961,-0.107189,-8.548953,-5.184099,2.954468,0.342842,-0.655474,-0.010782,45.63308,3.222754,-9.279051,4.63583E+18,-0.674845,0.511037,-0.460621,-0.266933,-9.732526,4.664611,-0.280079,-0.401976,-0.985195,0.507552,46.468057,-0.568566,3.062101,4.63583E+18,-0.642652,-0.539625,-0.432979,0.329139,0
-16.411358,1.005572,11.875801,0.030699,1.595947,-0.19746,43.143526,-8.09607,-15.712607,4.63583E+18,0.853979,-0.117925,0.494951,-0.108799,-7.336471,-5.678671,3.846688,0.354343,-0.578278,0.043774,45.573464,3.203387,-9.428342,4.63583E+18,-0.677066,0.508985,-0.459302,-0.267502,-9.402614,4.545623,0.134479,-0.463545,-1.000532,0.454082,46.199354,-0.312858,2.730345,4.63583E+18,-0.64612,-0.537813,-0.429911,0.329338,0
-17.259353,1.255964,11.192982,-0.009393,1.674215,-0.220711,43.356176,-8.172437,-15.137975,4.63583E+18,0.850623,-0.116992,0.500558,-0.110429,-6.834754,-5.374672,5.027616,0.333799,-0.442578,0.126274,45.563089,3.104349,-9.743849,4.63583E+18,-0.678885,0.506982,-0.458512,-0.268052,-8.84214,4.806422,1.405089,-0.446546,-0.993926,0.38213,45.52912,0.252337,2.37374,4.63583E+18,-0.649423,-0.535914,-0.426988,0.329738,0
-18.098675,1.236649,11.192458,-0.029559,1.728234,-0.228037,43.666987,-7.991332,-14.403104,4.63583E+18,0.847101,-0.116115,0.506341,-0.112055,-6.933869,-4.958925,5.025971,0.278504,-0.281255,0.218511,45.531781,2.978606,-10.099698,4.63583E+18,-0.68017,0.505137,-0.458306,-0.268628,-8.451256,5.436827,2.67205,-0.421272,-0.984347,0.28826,45.222888,0.364699,1.861391,4.63583E+18,-0.65251,-0.533917,-0.424257,0.330408,0
-18.874231,0.945135,11.421839,-0.01245,1.826912,-0.216663,43.942071,-7.731869,-13.646292,4.63583E+18,0.84334,-0.115099,0.512445,-0.113711,-7.72276,-4.704016,5.039865,0.274614,-0.181278,0.274782,45.59465,2.959254,-10.263649,4.63583E+18,-0.681188,0.503307,-0.458495,-0.26916,-8.665408,5.690097,3.234212,-0.415314,-0.956766,0.177631,45.233976,-0.161312,1.387929,4.63583E+18,-0.655369,-0.531769,-0.421829,0.331321,0
