Accelerometer-X,Accelerometer-Y,Accelerometer-Z,Gyroscope-X,Gyroscope-Y,Gyroscope-Z,Magnetometer-X,Magnetometer-Y,Magnetometer-Z,Barometer-pressure,Orientation-S,Orientation-X,Orientation-Y,Orientation-Z,Accelerometer-X,Accelerometer-Y,Accelerometer-Z,Gyroscope-X,Gyroscope-Y,Gyroscope-Z,Magnetometer-X,Magnetometer-Y,Magnetometer-Z,Barometer-pressure,Orientation-S,Orientation-X,Orientation-Y,Orientation-Z,Accelerometer-X,Accelerometer-Y,Accelerometer-Z,Gyroscope-X,Gyroscope-Y,Gyroscope-Z,Magnetometer-X,Magnetometer-Y,Magnetometer-Z,Barometer-pressure,Orientation-S,Orientation-X,Orientation-Y,Orientation-Z,jump
-10.309525,-1.148451,1.455069,1.327439,-0.39744,-0.349663,46.142314,-9.297953,6.307884,4.63583E+18,0.800354,-0.180683,0.532024,0.209133,-9.456157,-1.143545,0.833465,-0.048307,0.076934,-0.22164,44.792934,-15.051728,1.223178,4.63583E+18,-0.555075,0.498061,-0.51953,-0.417031,-10.051128,-0.549374,-0.073244,0.058474,-0.155177,0.220419,40.831566,19.409771,9.752576,4.63583E+18,0.606308,0.345443,0.628442,-0.343686,0
-10.243444,-1.147496,1.452681,1.377997,-0.464417,-0.379676,46.132017,-8.966681,6.095792,4.63583E+18,0.80273,-0.176454,0.531424,0.205128,-9.476306,-1.436207,0.896939,-0.060057,0.096214,-0.192158,44.681221,-14.970543,1.305287,4.63583E+18,-0.555064,0.498772,-0.5193,-0.416483,-10.077779,-0.722507,-0.026615,0.136164,-0.153422,0.190413,40.858177,19.4564,9.654921,4.63583E+18,0.606785,0.346063,0.627575,-0.343805,0
-10.146274,-1.219299,1.596287,1.371649,-0.481419,-0.40958,46.048007,-8.720891,5.804282,4.63583E+18,0.80513,-0.172296,0.530716,0.201045,-9.568776,-1.525925,0.909147,-0.077896,0.110313,-0.156242,44.502393,-14.805437,1.545465,4.63583E+18,-0.554923,0.499471,-0.519145,-0.416026,-10.041122,-1.011084,-0.046629,0.428531,-0.171981,0.14982,40.858177,19.483015,9.619433,4.63583E+18,0.60683,0.347288,0.626299,-0.344817,0
-10.060582,-1.148937,1.802611,1.32124,-0.462886,-0.459384,46.046326,-8.476743,5.786549,4.63583E+18,0.807464,-0.168427,0.529973,0.196883,-9.589834,-1.589699,0.822794,-0.098402,0.12652,-0.119582,44.611935,-14.640962,1.601619,4.63583E+18,-0.55464,0.500166,-0.519068,-0.415665,-10.367519,-1.943432,0.354139,1.05343,-0.228305,0.068245,41.005819,19.436392,9.432939,4.63583E+18,0.605992,0.349794,0.624093,-0.347743,0
-10.094802,-1.039792,1.722926,1.266827,-0.459367,-0.512728,46.285669,-8.232595,5.678605,4.63583E+18,0.809765,-0.164857,0.529139,0.192652,-9.611182,-1.608036,0.610098,-0.107829,0.14241,-0.077981,44.78071,-14.626583,1.55034,4.63583E+18,-0.55423,0.500819,-0.519098,-0.415386,-11.107747,-2.59134,1.616043,1.743019,-0.287145,-0.056049,41.074579,19.565173,8.961263,4.63583E+18,0.604101,0.35362,0.620896,-0.35285,0
-10.203214,-0.858144,1.529792,1.23958,-0.531547,-0.553565,46.278509,-7.820955,5.652511,4.63583E+18,0.812211,-0.161403,0.527992,0.18838,-9.760399,-1.724244,0.424531,-0.126197,0.137714,-0.042356,44.790805,-14.791076,1.596715,4.63583E+18,-0.553731,0.50143,-0.519159,-0.415239,-11.670335,-1.610025,3.059811,2.028326,-0.307918,-0.137701,40.941384,19.848171,8.395285,4.63583E+18,0.601684,0.357899,0.617308,-0.358909,0
-10.217354,-0.866482,1.789139,1.198223,-0.62199,-0.573212,46.038982,-7.405954,5.544349,4.63583E+18,0.814817,-0.158042,0.526479,0.184163,-9.974323,-1.881786,0.342422,-0.229456,0.123613,0.002151,44.711769,-14.805475,1.647999,4.63583E+18,-0.552969,0.502158,-0.519101,-0.415448,-11.451616,0.875795,4.034041,1.641798,-0.236636,-0.069615,40.761618,20.005719,7.833787,4.63583E+18,0.599727,0.361468,0.614336,-0.363675,0
-10.074026,-1.010296,2.30895,1.14505,-0.59972,-0.596627,46.261439,-7.409651,5.25502,4.63583E+18,0.8173,-0.155006,0.524941,0.180085,-10.060134,-1.611505,0.457097,-0.348442,0.126678,0.061618,44.626321,-14.797468,1.601637,4.63583E+18,-0.551848,0.503035,-0.518968,-0.416043,-10.963348,1.863291,4.464586,1.217391,-0.174399,0.055838,40.800473,19.939126,7.505329,4.63583E+18,0.598417,0.364378,0.611951,-0.366934,0
-9.772002,-1.156785,2.319407,1.083268,-0.538512,-0.607563,46.182309,-7.170609,4.962042,4.63583E+18,0.819617,-0.152167,0.523565,0.175935,-10.005513,-1.488298,0.702466,-0.341564,0.143767,0.11006,44.627794,-15.002512,1.556135,4.63583E+18,-0.550618,0.503821,-0.518986,-0.416698,-10.935618,0.568156,4.89518,1.300816,-0.172555,0.208098,40.951403,19.94024,7.37216,4.63583E+18,0.597193,0.367877,0.609194,-0.370013,0
-9.466853,-1.398959,2.044263,1.029697,-0.499596,-0.603589,45.450877,-5.957504,4.908355,4.63583E+18,0.821787,-0.149527,0.522268,0.171885,-9.95027,-1.601025,0.725183,-0.307356,0.161872,0.161297,44.638534,-15.13718,1.516191,4.63583E+18,-0.549331,0.504447,-0.519211,-0.417358,-10.809118,-0.433893,5.774043,1.745713,-0.156631,0.395301,41.043506,20.017917,7.088084,4.63583E+18,0.595509,0.372965,0.605477,-0.373716,0
-9.161633,-1.738849,1.871138,1.001408,-0.466372,-0.578379,45.268458,-5.202982,4.680057,4.63583E+18,0.823825,-0.146949,0.521065,0.167956,-9.721807,-1.493012,0.564631,-0.314488,0.177042,0.205051,44.628412,-15.056055,1.505451,4.63583E+18,-0.547919,0.50502,-0.519549,-0.418101,-10.476205,-0.520491,6.257944,2.277433,-0.111578,0.55853,41.112308,20.052323,6.705231,4.63583E+18,0.593095,0.379826,0.600743,-0.378257,0
-8.808673,-1.877234,1.963423,0.995621,-0.429081,-0.528677,45.743507,-5.355606,4.484054,4.63583E+18,0.825722,-0.144308,0.520002,0.164182,-9.590051,-1.352334,0.483124,-0.335434,0.177584,0.238124,44.666889,-14.966276,1.596686,4.63583E+18,-0.546403,0.505569,-0.519919,-0.418961,-9.862548,-0.584829,5.54228,2.720437,-0.07322,0.670108,41.232156,19.95579,6.264664,4.63583E+18,0.589991,0.388077,0.595159,-0.383527,0
-8.394805,-2.059381,2.13287,1.039477,-0.293298,-0.479515,45.753349,-5.275311,4.480117,4.63583E+18,0.827297,-0.141499,0.519453,0.160396,-9.681094,-1.102213,0.429127,-0.358282,0.168424,0.267271,44.632134,-15.04737,1.647999,4.63583E+18,-0.544805,0.506089,-0.520288,-0.419956,-9.202267,-0.841148,4.015424,3.025727,-0.040207,0.735168,41.425231,19.859236,5.672118,4.63583E+18,0.586327,0.397232,0.588971,-0.389282,0
-8.123305,-2.445859,1.98078,1.116788,-0.136665,-0.419913,45.597831,-5.034343,4.659558,4.63583E+18,0.828517,-0.138397,0.519517,0.156551,-9.62193,-1.024974,0.286386,-0.323478,0.151319,0.263817,44.518352,-15.253015,1.607457,4.63583E+18,-0.543321,0.506505,-0.520669,-0.420901,-8.852632,-0.936646,2.205508,3.233147,-0.00331,0.782263,41.497405,19.83703,5.129433,4.63583E+18,0.5822,0.406997,0.582352,-0.395301,0
-8.177729,-2.872334,1.654644,1.179054,-0.090607,-0.353824,46.144873,-5.268677,4.483808,4.63583E+18,0.829608,-0.134965,0.519805,0.152767,-9.802214,-1.124962,0.101421,-0.241514,0.11595,0.244538,44.434948,-15.381329,1.562548,4.63583E+18,-0.54212,0.506714,-0.521072,-0.421699,-8.847014,-0.003646,0.555215,3.326979,0.014079,0.84586,41.586152,19.689482,4.777595,4.63583E+18,0.577863,0.417091,0.575395,-0.401286,0
-8.370318,-3.395221,1.229404,1.226349,-0.098096,-0.292839,46.790065,-5.524755,4.288759,4.63583E+18,0.830548,-0.131688,0.520001,0.149822,-10.192074,-0.837482,-0.056648,-0.168619,0.07621,0.226886,44.47548,-15.421859,1.608869,4.63583E+18,-0.541189,0.506727,-0.521475,-0.422381,-8.956873,1.441159,-0.993888,3.305255,0.043199,0.914121,41.934513,19.41097,4.186256,4.63583E+18,0.57349,0.427259,0.568308,-0.406922,0
-8.649388,-3.728819,1.196818,1.278586,-0.157926,-0.242414,46.647689,-5.278767,4.368527,4.63583E+18,0.83172,-0.127645,0.520148,0.146269,-10.287552,-0.549959,-0.198607,-0.134299,0.043492,0.206248,44.560936,-15.507316,1.752862,4.63583E+18,-0.540438,0.506648,-0.52182,-0.423012,-9.284133,2.811692,-3.511367,3.04299,0.012551,0.97384,41.98687,19.354254,3.487101,4.63583E+18,0.56965,0.436807,0.561376,-0.411772,0
-8.834446,-3.890944,1.531201,1.376964,-0.226129,-0.211053,45.926897,-4.556007,4.44201,4.63583E+18,0.833051,-0.123127,0.520124,0.142607,-10.224014,-0.652931,-0.285307,-0.145965,0.015106,0.189282,44.60585,-15.633295,1.855525,4.63583E+18,-0.539753,0.506582,-0.522044,-0.423688,-9.673692,2.806853,-3.865712,2.503855,-0.113753,1.002598,41.45437,19.719218,3.014243,4.63583E+18,0.567049,0.44486,0.55493,-0.41546,0
-8.598964,-3.882202,2.100245,1.426071,-0.141704,-0.195774,45.266215,-3.811604,4.419575,4.63583E+18,0.834185,-0.118453,0.52041,0.138842,-10.130765,-1.105445,-0.311604,-0.134104,-0.010582,0.18479,44.571119,-15.79839,1.768694,4.63583E+18,-0.539156,0.506454,-0.522221,-0.424383,-9.468723,2.340614,-2.848034,1.914744,-0.144411,0.973978,40.970406,19.956854,2.585942,4.63583E+18,0.565505,0.451355,0.549427,-0.417868,0
-8.378735,-3.774316,2.028162,1.430185,0.024371,-0.202796,45.324603,-3.641025,4.311441,4.63583E+18,0.834935,-0.113872,0.521253,0.134956,-9.99397,-1.592225,-0.033149,-0.003674,-0.040719,0.181244,44.497879,-15.922348,1.62611,4.63583E+18,-0.538906,0.505986,-0.522553,-0.424849,-8.974915,2.451286,-4.400848,1.241775,-0.156412,0.937266,41.047779,19.68857,2.114355,4.63583E+18,0.565155,0.456131,0.545101,-0.418819,0
-8.637332,-3.676432,1.368796,1.444897,0.018356,-0.205041,46.127206,-4.116085,4.416826,4.63583E+18,0.835674,-0.109239,0.522062,0.131026,-9.943247,-1.432511,0.471119,0.161845,-0.060323,0.174781,44.459362,-15.967283,1.574755,4.63583E+18,-0.539059,0.505126,-0.52312,-0.424982,-8.234896,2.513664,-5.962382,0.491244,-0.233099,0.889117,41.11679,19.271247,1.824544,4.63583E+18,0.566305,0.458882,0.54198,-0.418312,0
-8.750454,-3.43529,0.996315,1.419048,-0.055077,-0.194622,46.789657,-4.604378,4.718002,4.63583E+18,0.836455,-0.104912,0.52253,0.127667,-9.832656,-0.832453,0.539567,0.22189,-0.056327,0.170959,44.418853,-15.886262,1.528457,4.63583E+18,-0.539335,0.504146,-0.523793,-0.424965,-7.79397,1.756253,-5.694656,-0.251206,-0.342813,0.81572,40.740837,19.175572,1.765628,4.63583E+18,0.568984,0.459516,0.540024,-0.416504,0
-8.645096,-3.023746,1.096412,1.433148,-0.027317,-0.177663,46.803185,-4.5307,4.616653,4.63583E+18,0.837208,-0.100253,0.523144,0.123905,-9.740242,-0.612361,0.233114,0.211264,-0.055829,0.167304,44.333401,-15.802167,1.471309,4.63583E+18,-0.539594,0.503197,-0.52444,-0.424963,-7.052054,1.955956,-5.142865,-0.957438,-0.412766,0.744052,40.688252,19.101348,1.770074,4.63583E+18,0.573037,0.458184,0.539255,-0.413401,0
-8.559163,-2.740286,1.098666,1.486799,0.050699,-0.150117,46.719505,-4.289866,4.423134,4.63583E+18,0.837767,-0.095384,0.52405,0.120083,-9.841148,-0.771047,0.03916,0.209135,-0.065441,0.165001,44.28846,-15.843307,1.557473,4.63583E+18,-0.539873,0.502241,-0.525056,-0.424979,-6.486775,1.461422,-4.159258,-1.588676,-0.39438,0.645247,41.703857,18.376239,1.933021,4.63583E+18,0.57806,0.455135,0.539783,-0.409064,0
-8.521523,-2.62686,0.680227,1.524543,0.126612,-0.116066,46.873154,-4.213066,4.311481,4.63583E+18,0.838125,-0.090347,0.525231,0.116264,-9.860975,-0.871876,0.057223,0.222742,-0.073535,0.162525,44.328961,-15.962833,1.758566,4.63583E+18,-0.540201,0.501244,-0.525672,-0.424977,-5.197443,2.062763,-3.511503,-2.075744,-0.304319,0.451729,43.01345,17.310977,2.197113,4.63583E+18,0.583435,0.4506,0.54169,-0.403899,0
-8.556629,-2.493098,0.838763,1.532637,0.150143,-0.057831,46.721026,-4.127876,4.596109,4.63583E+18,0.83837,-0.085163,0.526498,0.112615,-9.634122,-0.983713,0.348355,0.258675,-0.075894,0.159154,44.373913,-16.052734,1.821447,4.63583E+18,-0.540615,0.500169,-0.526339,-0.424892,-3.725387,-4.591712,-2.541378,-1.947209,-0.181012,0.024521,43.404048,16.818602,2.30275,4.63583E+18,0.587529,0.445589,0.544444,-0.399802,0
-8.796469,-2.394679,1.451963,1.457482,0.192448,-0.001175,46.64601,-4.197826,4.793455,4.63583E+18,0.838436,-0.080137,0.527876,0.109312,-9.616955,-1.225319,0.690101,0.325301,-0.071733,0.156623,44.29291,-16.012234,1.6775,4.63583E+18,-0.541162,0.498956,-0.527126,-0.424646,-3.651744,-16.825851,-4.350628,-0.884032,0.338287,-0.368451,43.178945,16.861623,2.4934,4.63583E+18,0.58779,0.443135,0.547406,-0.398097,0
-9.184019,-2.285078,1.524651,1.420327,0.207977,0.044971,46.56082,-3.960296,4.976797,4.63583E+18,0.838409,-0.075117,0.529292,0.106196,-9.888684,-1.032332,0.695772,0.375036,-0.066843,0.153813,44.127801,-16.007778,1.661531,4.63583E+18,-0.541805,0.497644,-0.528005,-0.424273,-5.824619,-8.392656,-6.785755,-0.677643,0.586445,-0.238733,43.021173,17.01255,2.894959,4.63583E+18,0.58731,0.441887,0.550384,-0.396081,0
-9.777918,-1.971982,1.657419,1.336937,0.136117,0.075218,45.9972,-3.058653,5.136021,4.63583E+18,0.838472,-0.070288,0.53041,0.103387,-10.154061,-0.635422,0.405981,0.382453,-0.068194,0.145714,44.125302,-16.09323,1.804147,4.63583E+18,-0.54248,0.496329,-0.528876,-0.423867,-10.195761,5.619417,-6.219927,-1.410041,0.331318,-0.036224,43.056521,17.019415,3.366541,4.63583E+18,0.589083,0.438879,0.55356,-0.392349,0
-10.077198,-1.547053,1.91121,1.250471,0.07079,0.098847,45.662571,-2.800593,5.127364,4.63583E+18,0.838619,-0.06568,0.531254,0.100866,-10.425798,-0.761403,0.225518,0.39955,-0.085738,0.138241,44.371393,-16.172894,1.815035,4.63583E+18,-0.543239,0.49496,-0.52972,-0.423442,-11.758416,5.290989,-3.451249,-1.837531,0.207198,-0.066511,43.146428,17.039244,3.718543,4.63583E+18,0.591845,0.434528,0.55716,-0.387914,0
-10.023552,-1.203463,2.14366,1.169181,0.065246,0.101429,45.906692,-3.524598,5.162967,4.63583E+18,0.838733,-0.061346,0.53203,0.098532,-10.506071,-1.175818,0.353396,0.482534,-0.123741,0.138915,44.429143,-16.292402,1.816342,4.63583E+18,-0.54425,0.493331,-0.530623,-0.422912,-10.956668,-0.240882,1.037519,-1.763165,0.352158,-0.162357,43.239626,17.06595,4.061323,4.63583E+18,0.593947,0.430348,0.561138,-0.383604,0
-10.034231,-0.83775,2.399505,1.100552,0.073524,0.091016,45.589326,-3.301097,5.151779,4.63583E+18,0.838795,-0.057278,0.532791,0.096307,-10.50287,-1.7078,0.63867,0.677231,-0.1758,0.131718,44.22548,-16.463306,1.914002,4.63583E+18,-0.545786,0.491182,-0.531734,-0.422039,-10.371134,-2.400964,2.790189,-1.423226,0.462356,-0.174436,43.127902,17.011665,4.385464,4.63583E+18,0.595133,0.427136,0.564842,-0.379901,0
-10.08229,-0.483522,2.548271,1.035335,0.033965,0.088701,45.1044,-2.399669,5.306888,4.63583E+18,0.838914,-0.053428,0.533376,0.094225,-10.482949,-2.041204,0.921333,0.923325,-0.216777,0.116372,44.141972,-16.553238,1.919134,4.63583E+18,-0.547936,0.48843,-0.533145,-0.420664,-9.481979,-0.742177,2.066343,-1.062866,0.452844,-0.101284,42.95024,16.879677,4.616411,4.63583E+18,0.595797,0.424962,0.567804,-0.376871,0
-10.035517,-0.595585,2.981533,0.981688,-0.021258,0.085519,45.416787,-2.703083,5.417767,4.63583E+18,0.839129,-0.049749,0.533737,0.092261,-10.309495,-1.539525,1.101869,1.10777,-0.225043,0.088098,44.101501,-16.478081,1.913984,4.63583E+18,-0.550519,0.485294,-0.534794,-0.418825,-12.364611,-0.512339,4.23255,-0.824044,0.187856,-0.038406,42.850288,16.821802,4.811715,4.63583E+18,0.596753,0.423106,0.569612,-0.374712,0
-9.962779,-0.68182,3.887139,0.925137,-0.053802,0.072903,45.662768,-3.439055,5.360332,4.63583E+18,0.839396,-0.046284,0.53395,0.090383,-10.08269,-0.637401,1.0672,1.219256,-0.224648,0.040482,43.975579,-16.313602,2.005862,4.63583E+18,-0.553395,0.481998,-0.536528,-0.416616,-14.316978,-2.935045,7.890776,-0.36477,0.128993,-0.036001,42.877849,16.969127,5.177612,4.63583E+18,0.597038,0.422303,0.570548,-0.373739,0
-10.056837,0.09311,4.061714,0.854939,-0.064931,0.041266,45.27356,-3.215703,5.347101,4.63583E+18,0.839675,-0.043131,0.534084,0.08855,-10.112185,-0.27822,0.854552,1.260022,-0.227572,-0.017138,43.960765,-16.264104,2.050844,4.63583E+18,-0.556445,0.478718,-0.538197,-0.414178,-12.451731,-4.231199,4.49542,0.248837,0.418849,-0.005121,42.862498,17.247591,5.525184,4.63583E+18,0.595601,0.42355,0.571193,-0.373636,0
-10.393488,1.101681,3.276394,0.755165,-0.15926,-0.000188,45.253104,-2.636967,5.41854,4.63583E+18,0.84015,-0.040385,0.533836,0.086809,-10.572766,0.029454,0.541705,1.223831,-0.229482,-0.072848,44.084772,-16.309092,2.050844,4.63583E+18,-0.559506,0.47563,-0.539672,-0.411684,-11.907805,-5.008142,-1.452877,0.609156,0.519583,0.084251,42.835777,17.265891,5.449293,4.63583E+18,0.593422,0.426057,0.571365,-0.373988,0
-10.639699,1.684711,2.554352,0.664169,-0.37459,-0.055439,45.575482,-2.636541,5.312541,4.63583E+18,0.8411,-0.038002,0.532787,0.085111,-11.144587,0.321874,0.306483,1.153337,-0.243476,-0.127713,44.164439,-16.228182,2.097078,4.63583E+18,-0.56254,0.472792,-0.540871,-0.409238,-12.242866,-1.589652,-2.069115,0.636339,0.444852,0.202872,42.835777,17.065158,5.346843,4.63583E+18,0.591552,0.428792,0.571093,-0.374241,0
-10.549271,1.887999,2.694466,0.589069,-0.525557,-0.128749,45.570495,-2.792125,4.951776,4.63583E+18,0.842391,-0.035992,0.531165,0.083346,-11.407493,0.088203,0.338555,1.06363,-0.277535,-0.16112,44.243457,-16.138187,2.240959,4.63583E+18,-0.565517,0.470172,-0.541759,-0.406973,-11.333749,2.698945,-0.195524,0.435099,0.412406,0.201398,42.843529,16.926234,5.525138,4.63583E+18,0.590111,0.430974,0.571052,-0.374073,0
-10.212649,1.784615,2.972643,0.544617,-0.58937,-0.239042,45.486598,-2.807443,4.657244,4.63583E+18,0.843844,-0.034361,0.52928,0.0813,-11.194341,-0.346209,0.755329,0.946981,-0.325038,-0.153877,44.28846,-16.097738,2.343822,4.63583E+18,-0.568349,0.46772,-0.542341,-0.405074,-10.338458,2.867659,0.70418,0.227266,0.390889,0.12256,42.855736,16.895046,5.813651,4.63583E+18,0.588968,0.432421,0.57142,-0.373642,0
-9.942531,1.41189,3.086139,0.534278,-0.62205,-0.325038,45.568421,-2.568741,4.543488,4.63583E+18,0.845386,-0.032945,0.527257,0.078977,-10.649522,-0.390698,1.55782,0.816046,-0.388784,-0.146615,44.282681,-15.896696,2.251354,4.63583E+18,-0.571048,0.465446,-0.542556,-0.403605,-9.629299,1.239689,0.036203,0.115663,0.360881,0.073939,42.805936,16.84854,5.858582,4.63583E+18,0.58802,0.43343,0.571974,-0.373117,0
-9.709839,0.925984,3.10042,0.50585,-0.643637,-0.385392,45.641918,-2.240995,4.242487,4.63583E+18,0.846979,-0.031755,0.525133,0.076507,-10.563702,-0.395675,2.904007,0.719613,-0.47956,-0.157238,44.316696,-15.723135,2.148503,4.63583E+18,-0.573776,0.463266,-0.542365,-0.4025,-9.437294,0.267192,-1.248869,0.068598,0.289991,0.050135,42.774742,16.721038,5.644657,4.63583E+18,0.587289,0.434156,0.572469,-0.372666,0
-9.561525,0.581049,3.27988,0.457149,-0.631549,-0.412803,45.559855,-2.162275,3.94925,4.63583E+18,0.848536,-0.030802,0.523025,0.074043,-10.915301,-0.618033,4.171556,0.659405,-0.527949,-0.156853,44.361702,-15.838716,2.148503,4.63583E+18,-0.576488,0.461142,-0.541951,-0.40162,-9.8837,0.126331,-1.883996,0.016314,0.205784,0.037301,42.72824,16.709605,5.728164,4.63583E+18,0.586832,0.434593,0.572861,-0.372274,0
-9.72563,0.14372,3.152394,0.411155,-0.548704,-0.39874,45.629702,-2.16071,3.84743,4.63583E+18,0.849892,-0.030007,0.52119,0.071718,-10.842752,0.361668,3.884556,0.539138,-0.516759,-0.118678,44.32701,-15.932591,2.009732,4.63583E+18,-0.578874,0.459234,-0.54143,-0.401077,-10.181934,-0.208825,-1.838107,-0.020361,0.155614,0.036215,42.755744,16.837094,6.005629,4.63583E+18,0.586559,0.434859,0.57319,-0.371887,0
-10.207108,0.002884,2.815045,0.387174,-0.594971,-0.375425,45.786561,-1.921807,3.737825,4.63583E+18,0.851329,-0.029233,0.519181,0.069532,-10.657708,1.561903,2.939463,0.333282,-0.49641,-0.09956,44.282679,-15.691688,1.763022,4.63583E+18,-0.580783,0.457809,-0.540647,-0.401002,-10.16335,-0.41176,-1.695869,-0.000648,0.127536,0.043488,42.786949,16.895046,6.103702,4.63583E+18,0.586328,0.435147,0.573406,-0.371581,0
-10.289259,0.083606,2.819646,0.382489,-0.635739,-0.341477,45.861631,-1.594081,3.436872,4.63583E+18,0.852834,-0.028391,0.517024,0.067481,-10.517681,0.67875,2.139014,0.107969,-0.464481,-0.131097,44.310936,-15.391631,1.654426,4.63583E+18,-0.582241,0.457052,-0.539501,-0.401296,-10.116648,-0.046407,-1.613715,0.018344,0.108394,0.03954,42.740456,16.840806,6.11145,4.63583E+18,0.586103,0.435442,0.573552,-0.371364,0
-9.980305,0.455707,2.807966,0.35836,-0.640796,-0.301026,45.779609,-1.431694,3.048082,4.63583E+18,0.854326,-0.027547,0.514842,0.065625,-10.278021,-0.88968,1.182961,-0.06879,-0.449015,-0.20102,44.395741,-15.423697,1.561289,4.63583E+18,-0.583442,0.456904,-0.537961,-0.401786,-10.092234,0.174192,-1.602459,0.027752,0.093051,0.027113,42.760193,16.863831,6.232131,4.63583E+18,0.585878,0.435706,0.573669,-0.371229,0
-9.651045,0.989279,2.962934,0.312902,-0.659696,-0.243729,45.694176,-1.511852,2.956058,4.63583E+18,0.855828,-0.026737,0.51258,0.064072,-10.168767,-3.86104,0.783817,-0.080532,-0.513528,-0.331433,44.487615,-15.552232,1.239469,4.63583E+18,-0.58498,0.456967,-0.535995,-0.402106,-10.060071,0.082386,-1.595881,0.067298,0.067249,0.019719,42.887674,16.949283,6.291272,4.63583E+18,0.585632,0.43601,0.573675,-0.371252,0
-9.309466,1.61006,3.038052,0.272191,-0.630857,-0.192312,45.69231,-1.430122,2.858654,4.63583E+18,0.857242,-0.025971,0.510411,0.062785,-10.353702,-7.104989,2.357114,0.182097,-0.650913,-0.416237,44.601958,-15.390414,0.896332,4.63583E+18,-0.587463,0.456345,-0.533967,-0.401891,-9.938246,0.171593,-1.416545,0.124867,0.041988,0.005958,42.945644,16.980497,6.286813,4.63583E+18,0.58532,0.436381,0.573555,-0.371493,0
-9.146792,2.18487,2.991874,0.232647,-0.554971,-0.141041,45.835617,-1.117768,2.3669,4.63583E+18,0.858471,-0.025257,0.508504,0.061757,-10.270443,-6.854037,3.83195,0.496294,-0.690494,-0.453833,44.719551,-15.129516,0.787702,4.63583E+18,-0.590686,0.454965,-0.53229,-0.400955,-9.860297,0.411278,-1.17897,0.158536,0.013169,-0.010557,42.899169,16.879799,6.294559,4.63583E+18,0.58499,0.436751,0.573342,-0.371907,0
-9.131406,2.555514,2.763966,0.170151,-0.580463,-0.109631,45.994009,-1.110874,1.878453,4.63583E+18,0.859733,-0.024695,0.50649,0.060977,-9.481029,-4.491424,2.775606,0.692319,-0.654489,-0.5478,44.683659,-15.004854,0.781274,4.63583E+18,-0.594347,0.453362,-0.530841,-0.399277,-9.921094,0.663183,-1.005707,0.147939,-0.026045,-0.027545,42.771694,16.721095,6.182821,4.63583E+18,0.584746,0.436993,0.573081,-0.372408,0
-8.987866,2.730705,2.699177,0.119667,-0.619726,-0.114175,45.913921,-1.278024,1.784158,4.63583E+18,0.861068,-0.024313,0.504318,0.060289,-8.613615,-2.988957,2.080174,0.795647,-0.679324,-0.698096,44.587866,-14.804521,0.688842,4.63583E+18,-0.598495,0.451784,-0.529206,-0.397035,-10.030952,0.780096,-0.913449,0.10187,-0.067412,-0.049091,42.705958,16.709579,5.991978,4.63583E+18,0.584651,0.437007,0.57283,-0.372926,0
-8.662249,2.937451,2.769481,0.071548,-0.627908,-0.141457,45.840398,-1.198192,1.877807,4.63583E+18,0.862416,-0.024159,0.502098,0.059606,-7.574904,-3.194249,2.286044,0.752977,-0.67745,-0.845592,44.616103,-14.428025,0.487734,4.63583E+18,-0.602784,0.450627,-0.527212,-0.394505,-9.993665,0.654085,-0.844675,0.053397,-0.09851,-0.066489,42.747963,16.88349,5.858637,4.63583E+18,0.584692,0.436812,0.572609,-0.373428,0
-8.344625,3.037499,2.842717,0.006771,-0.610311,-0.175494,45.82686,-0.873963,1.772486,4.63583E+18,0.863722,-0.024315,0.499919,0.058934,-6.36308,-2.926472,1.967557,0.598587,-0.650054,-0.930558,44.729783,-14.088099,0.332213,4.63583E+18,-0.606846,0.450076,-0.524859,-0.392037,-9.871597,0.550517,-0.585585,0.019091,-0.118047,-0.074276,42.87541,16.976034,5.822931,4.63583E+18,0.58483,0.436485,0.572408,-0.373903,0
-8.086931,3.063522,2.963718,-0.068832,-0.553499,-0.209674,45.826591,-0.950301,1.399955,4.63583E+18,0.864906,-0.024828,0.497919,0.05829,-5.620761,-1.81425,1.701951,0.370275,-0.638763,-0.961161,44.928903,-13.837536,0.23456,4.63583E+18,-0.610489,0.450175,-0.52209,-0.389959,-9.819217,0.513897,-0.27359,-0.004327,-0.123228,-0.078548,42.879237,16.972755,5.760989,4.63583E+18,0.585016,0.436083,0.572239,-0.374341,0
-7.830605,3.040183,2.656014,-0.162419,-0.509405,-0.242807,45.910158,-1.119308,1.200638,4.63583E+18,0.865991,-0.025758,0.496049,0.057717,-4.997109,-1.623888,1.83677,0.182199,-0.633631,-0.921576,45.126841,-13.547178,0.050256,4.63583E+18,-0.613689,0.450664,-0.51909,-0.388372,-9.837979,0.345659,-0.256068,-0.017847,-0.118095,-0.079434,42.747336,16.96829,5.671076,4.63583E+18,0.585212,0.435653,0.572104,-0.37474,0
-7.705581,3.123198,2.505769,-0.285649,-0.457261,-0.274871,45.900108,-0.967908,1.005343,4.63583E+18,0.866958,-0.027212,0.49433,0.057277,-4.432074,-2.231725,2.236845,0.011439,-0.590295,-0.800972,45.204014,-13.211166,-0.282478,4.63583E+18,-0.616268,0.45139,-0.516142,-0.387374,-9.789437,0.209902,-0.367123,-0.016621,-0.105198,-0.071591,42.689289,16.96829,5.577882,4.63583E+18,0.585388,0.435264,0.571985,-0.375099,0
-7.607369,3.125095,2.311513,-0.403301,-0.386114,-0.301696,45.816272,-0.892758,0.618997,4.63583E+18,0.867766,-0.029164,0.492835,0.056975,-3.69065,-2.711069,3.145496,-0.047823,-0.561417,-0.671928,45.198239,-12.916235,-0.534495,4.63583E+18,-0.618456,0.45203,-0.513407,-0.386775,-9.482769,0.121181,-0.054485,-0.019305,-0.082404,-0.049682,42.735738,16.96829,5.542161,4.63583E+18,0.585548,0.434957,0.571885,-0.375357,0
-7.652964,3.244474,2.08038,-0.557358,-0.345884,-0.284528,45.886013,-0.72401,0.323862,4.63583E+18,0.868461,-0.031647,0.491447,0.057046,-2.651415,-3.437961,3.722745,0.121424,-0.26679,-0.412296,45.191807,-12.740727,-0.585955,4.63583E+18,-0.619909,0.45215,-0.512188,-0.385924,-9.179399,0.18607,0.479302,-0.03259,-0.052994,-0.025977,42.716095,17.115348,5.59634,4.63583E+18,0.585699,0.43472,0.571835,-0.375472,0
-7.833088,2.901013,2.660143,-0.699688,-0.362767,-0.231905,45.971183,-0.481508,0.400947,4.63583E+18,0.86915,-0.034533,0.489966,0.057602,-0.693108,3.114617,-4.844691,0.175699,0.208672,0.182084,45.19758,-12.816942,-0.632143,4.63583E+18,-0.619492,0.451624,-0.513403,-0.385595,-9.489268,0.321551,0.400499,-0.046581,-0.036917,-0.003259,42.689289,17.200232,5.689535,4.63583E+18,0.585873,0.434528,0.571805,-0.37547,0
-7.968453,2.236653,2.70923,-0.80624,-0.358993,-0.159698,45.97308,-0.392534,0.307353,4.63583E+18,0.869789,-0.037658,0.488479,0.058636,-2.674142,17.155094,-8.774955,-0.035202,0.083916,0.56481,45.163605,-12.952055,-0.637434,4.63583E+18,-0.618328,0.450621,-0.514675,-0.386939,-10.034427,-0.074949,-0.38278,-0.068879,-0.032826,0.016854,42.844086,17.006735,5.84137,4.63583E+18,0.58611,0.434335,0.571783,-0.375357,0
-8.508507,1.851764,3.533555,-0.839917,-0.457063,-0.072453,45.805992,-0.474182,0.030681,4.63583E+18,0.870587,-0.040704,0.486634,0.060071,-7.452497,10.247285,-2.87414,-0.247414,0.055957,0.293369,45.078153,-12.952055,-0.539774,4.63583E+18,-0.61726,0.4507,-0.515021,-0.388089,-10.287251,-0.639172,-1.000049,-0.081075,-0.051683,0.058036,42.879261,16.895046,5.792294,4.63583E+18,0.586477,0.434182,0.571659,-0.375149,0
-8.699791,0.816915,4.041686,-0.829145,-0.463481,0.020357,45.873789,-0.23739,0.000545,4.63583E+18,0.871364,-0.043519,0.484778,0.061821,-10.365844,-11.483088,-5.959094,0.13191,0.261837,-0.023139,45.073514,-12.952055,-0.442121,4.63583E+18,-0.616973,0.450815,-0.515914,-0.387225,-10.281027,-0.841114,-1.232628,-0.059223,-0.074533,0.104385,42.747374,16.995657,5.725272,4.63583E+18,0.586932,0.434156,0.571362,-0.374921,0
-8.739683,-0.018094,3.993183,-0.767269,-0.421804,0.115374,45.875423,-0.076787,-0.083544,4.63583E+18,0.87203,-0.045929,0.4831,0.063784,-13.677786,-12.668124,-6.602385,0.687555,0.327757,0.082471,45.118561,-13.032861,-0.298287,4.63583E+18,-0.617415,0.449378,-0.518068,-0.385311,-10.060759,-0.614628,-1.250824,-0.033742,-0.103524,0.137237,42.789887,17.053741,5.787179,4.63583E+18,0.58746,0.434225,0.570894,-0.374726,0
-9.098505,-1.039036,4.588495,-0.67293,-0.436513,0.205207,45.791888,-0.240313,-0.45539,4.63583E+18,0.87271,-0.04781,0.481405,0.065886,-13.586193,-2.714737,-3.207769,1.209439,0.488608,0.249169,45.118561,-13.082555,-0.022162,4.63583E+18,-0.618205,0.446487,-0.521775,-0.38239,-9.972247,-0.089196,-1.016288,-0.030089,-0.153667,0.150113,42.948578,16.95315,5.815193,4.63583E+18,0.588121,0.434255,0.570274,-0.374598,0
-9.309592,-1.825785,4.578324,-0.556981,-0.404503,0.261518,46.02864,-0.566351,-0.642883,4.63583E+18,0.873324,-0.049164,0.479865,0.067954,-11.670534,1.222058,-1.172196,1.442884,0.474044,0.165275,45.11279,-13.0779,0.401724,4.63583E+18,-0.619573,0.443138,-0.525642,-0.37876,-9.869588,0.10333,-0.720908,-0.018503,-0.179916,0.140844,43.014421,16.802192,5.756559,4.63583E+18,0.588809,0.43425,0.569588,-0.374567,0
-9.600652,-2.416124,4.720978,-0.417581,-0.400627,0.292001,46.11765,-0.812417,-0.718593,4.63583E+18,0.873943,-0.049951,0.478382,0.069853,-11.122887,0.171393,1.075889,1.080227,0.465829,0.115838,45.146742,-13.203734,0.797671,4.63583E+18,-0.620346,0.440806,-0.528807,-0.375798,-9.66328,0.170558,-0.607104,0.00692,-0.188069,0.129848,42.964731,16.74082,5.787167,4.63583E+18,0.589452,0.434268,0.568862,-0.374638,0
-9.726561,-3.03788,4.53333,-0.261991,-0.39429,0.287452,45.880902,-0.90143,-0.720237,4.63583E+18,0.874578,-0.050182,0.476963,0.071424,-11.709515,-1.119131,2.917824,0.850792,0.472159,0.180804,45.232196,-13.293862,0.90602,4.63583E+18,-0.620569,0.438924,-0.531737,-0.373491,-9.559602,0.436352,-0.41249,0.022506,-0.202706,0.121694,42.933437,16.736349,5.822931,4.63583E+18,0.590089,0.434282,0.568089,-0.374793,0
-9.812825,-3.57686,4.49315,-0.137382,-0.381618,0.258098,45.720304,-0.903348,-0.624781,4.63583E+18,0.875218,-0.05002,0.47562,0.072637,-12.796664,1.136443,5.295193,0.603656,0.379263,0.187476,45.27726,-13.293862,0.854518,4.63583E+18,-0.620527,0.437515,-0.534047,-0.371914,-9.507507,0.662114,-0.018939,0.023605,-0.205972,0.10841,42.925701,16.744086,5.521212,4.63583E+18,0.59071,0.434261,0.56733,-0.374987,0
-10.124947,-3.958824,5.100783,-0.003052,-0.416822,0.246984,45.871824,-1.070376,-0.706091,4.63583E+18,0.875957,-0.04938,0.474185,0.073551,-15.166453,4.625538,7.719623,0.22406,0.274996,0.160069,45.242645,-13.409242,1.039125,4.63583E+18,-0.620063,0.436985,-0.535446,-0.371298,-9.500623,0.69703,0.177431,0.008894,-0.204016,0.093743,42.967642,16.748558,5.223075,4.63583E+18,0.591329,0.434172,0.566625,-0.37518,0
-10.358825,-4.528141,5.472818,0.1545,-0.361274,0.24361,46.030519,-1.396376,-1.077876,4.63583E+18,0.876615,-0.048188,0.472999,0.074129,-15.016786,5.201066,5.519925,-0.269748,0.39883,0.063903,45.088635,-13.584162,1.377841,4.63583E+18,-0.618571,0.438135,-0.536224,-0.371309,-9.726145,0.575326,0.07156,-0.001639,-0.213492,0.085272,42.994473,16.648004,5.09738,4.63583E+18,0.591977,0.434022,0.565928,-0.375385,0
-10.399868,-4.755852,4.896668,0.291676,-0.278559,0.203878,45.950624,-1.403851,-1.456217,4.63583E+18,0.877148,-0.0466,0.472148,0.074275,-12.959832,2.304037,0.180931,-0.495138,0.458839,-0.060993,44.879101,-13.595287,1.479774,4.63583E+18,-0.616723,0.440236,-0.536577,-0.37139,-10.060217,0.296133,-0.193373,0.005594,-0.208141,0.081285,42.901654,16.489308,5.073807,4.63583E+18,0.592592,0.433888,0.56524,-0.375607,0
-10.233701,-4.414946,4.310368,0.414845,-0.263081,0.152846,45.948666,-1.332277,-1.560321,4.63583E+18,0.877686,-0.044666,0.471379,0.073987,-12.016363,-1.278775,-0.932537,-0.397069,0.361378,-0.097799,44.904315,-13.469472,1.382126,4.63583E+18,-0.615326,0.442012,-0.536759,-0.371334,-10.041762,0.20184,-0.444397,0.028953,-0.189699,0.079434,42.793848,16.531707,5.016408,4.63583E+18,0.593118,0.433836,0.564563,-0.375854,0
-9.800358,-3.488335,4.058425,0.498018,-0.191786,0.109925,45.865161,-1.330607,-1.467115,4.63583E+18,0.878108,-0.042535,0.470887,0.073366,-10.335777,-2.256865,0.458632,-0.266346,0.341394,-0.120942,45.067707,-13.338952,1.422863,4.63583E+18,-0.614247,0.443473,-0.537048,-0.370961,-9.767905,0.583206,-0.362516,0.044935,-0.175887,0.074983,42.801201,16.736797,4.918753,4.63583E+18,0.593575,0.433833,0.563903,-0.376126,0
-9.432508,-2.32185,3.933581,0.542684,-0.105593,0.065117,45.791649,-1.485666,-1.452961,4.63583E+18,0.878378,-0.040355,0.470712,0.072476,-9.174099,-1.385151,1.482238,-0.250278,0.354834,-0.144795,45.065993,-13.293862,1.710438,4.63583E+18,-0.613203,0.444965,-0.537349,-0.370464,-9.447253,0.963617,-0.013359,0.022353,-0.170618,0.053687,42.877705,16.775402,4.875228,4.63583E+18,0.594027,0.433733,0.56333,-0.376386,0
-9.173636,-1.638974,3.656449,0.55308,-0.06082,0.021299,45.706476,-1.40581,-1.548102,4.63583E+18,0.878571,-0.038236,0.470695,0.071397,-8.611633,-1.69588,1.618144,-0.288639,0.368097,-0.135652,45.020905,-13.33422,1.962685,4.63583E+18,-0.612042,0.446554,-0.53764,-0.370051,-9.156361,0.814633,0.242524,-0.005377,-0.159688,0.015665,43.009533,16.648047,4.932607,4.63583E+18,0.594444,0.433492,0.562895,-0.376656,0
-8.893425,-0.955639,3.459172,0.540777,-0.039987,-0.013102,45.621023,-1.248793,-1.562268,4.63583E+18,0.878726,-0.036237,0.470742,0.070212,-8.68724,-2.548602,1.362498,-0.251467,0.368423,-0.092665,45.055487,-13.304384,2.054569,4.63583E+18,-0.61088,0.44795,-0.538067,-0.369663,-9.050162,0.454926,0.297454,-0.01823,-0.151107,-0.008795,43.121839,16.543472,4.968413,4.63583E+18,0.594825,0.433175,0.562546,-0.376941,0
-8.648466,-0.140917,3.34736,0.500828,-0.056218,-0.034757,45.702549,-1.161672,-1.288246,4.63583E+18,0.878909,-0.034422,0.470711,0.069028,-9.008015,-2.659224,1.128531,-0.149908,0.348872,-0.057208,45.053806,-13.139934,2.145778,4.63583E+18,-0.609896,0.448976,-0.538665,-0.369172,-9.262182,0.298672,0.26205,-0.028805,-0.146158,-0.016592,43.14544,16.563009,4.844701,4.63583E+18,0.595201,0.432821,0.56224,-0.377211,0
-8.452023,0.45038,3.46409,0.450847,-0.10044,-0.050902,45.859556,-1.243186,-1.281777,4.63583E+18,0.879173,-0.032809,0.4705,0.067887,-9.339267,-2.148963,0.8295,-0.094475,0.319323,-0.041392,45.008698,-13.090051,2.197333,4.63583E+18,-0.609056,0.44978,-0.539301,-0.368652,-9.603937,0.327151,0.174577,-0.037847,-0.142171,-0.010718,43.086853,16.643971,4.657143,4.63583E+18,0.595593,0.432465,0.561947,-0.377437,0
-8.161296,0.881296,3.514607,0.375599,-0.158869,-0.053358,45.863213,-1.412121,-1.639561,4.63583E+18,0.879538,-0.031461,0.470052,0.066893,-9.708217,-1.702291,0.391402,-0.079906,0.270906,-0.033796,45.089369,-13.210076,2.151234,4.63583E+18,-0.60834,0.450454,-0.539849,-0.368208,-9.81433,0.253525,0.064712,-0.034502,-0.132879,-0.005056,43.055511,16.721693,4.589983,4.63583E+18,0.595966,0.432144,0.561661,-0.377641,0
-7.927976,1.236957,3.634979,0.30603,-0.210306,-0.050277,45.779742,-1.499532,-1.934192,4.63583E+18,0.879992,-0.030347,0.469394,0.066052,-9.962236,-1.50696,0.042753,-0.052019,0.211975,-0.037028,45.214179,-13.218942,2.237988,4.63583E+18,-0.607812,0.450974,-0.540285,-0.367803,-9.871313,0.257163,-0.107004,-0.024888,-0.120737,-0.001567,42.962746,16.748558,4.651828,4.63583E+18,0.596299,0.431874,0.561384,-0.377837,0
-7.624488,1.447874,3.733203,0.238687,-0.261577,-0.034552,45.69429,-1.334565,-2.036375,4.63583E+18,0.880531,-0.029436,0.468531,0.065407,-10.070423,-1.288617,-0.079006,-0.011135,0.161479,-0.056398,45.212513,-13.094834,2.525171,4.63583E+18,-0.607505,0.451356,-0.540618,-0.367352,-9.837142,0.408922,-0.353162,-0.045711,-0.113723,0.003382,42.808539,16.648073,4.695372,4.63583E+18,0.59666,0.431576,0.561148,-0.377958,0
-7.390851,1.512304,3.771239,0.166177,-0.285719,-0.013313,45.775784,-1.092114,-1.859766,4.63583E+18,0.8811,-0.028744,0.467561,0.064984,-10.071794,-0.986898,-0.02209,0.007981,0.11511,-0.08461,45.132831,-13.090035,2.719503,4.63583E+18,-0.607381,0.451682,-0.540809,-0.366874,-9.791565,0.445172,-0.351196,-0.078752,-0.108774,0.004664,42.850805,16.589861,4.630289,4.63583E+18,0.597071,0.431205,0.560974,-0.37799,0
-7.302027,1.346813,4.070133,0.129027,-0.291479,-0.0003,45.777763,-1.15799,-1.760151,4.63583E+18,0.881672,-0.028161,0.46656,0.064681,-10.064661,-0.672503,0.129482,-0.013634,0.064017,-0.117544,45.094147,-13.09484,2.678907,4.63583E+18,-0.607382,0.452059,-0.540776,-0.366457,-9.739489,0.519997,-0.07659,-0.107982,-0.10411,0.00833,43.055858,16.597589,4.528158,4.63583E+18,0.59753,0.430778,0.56085,-0.377936,0
-7.228488,1.152044,4.136888,0.106269,-0.264479,0.005216,45.861223,-1.171627,-1.948637,4.63583E+18,0.882185,-0.027659,0.465652,0.06444,-10.059586,-0.462233,0.254299,-0.091886,0.013573,-0.160919,45.088386,-12.969061,2.483587,4.63583E+18,-0.607415,0.452654,-0.540414,-0.366202,-9.624373,0.473301,0.16473,-0.122621,-0.093753,0.005273,43.233684,16.602068,4.430511,4.63583E+18,0.597985,0.430323,0.560781,-0.377837,0
-7.298314,0.861373,4.090622,0.088013,-0.223149,-0.007177,46.006277,-1.171911,-2.239307,4.63583E+18,0.882618,-0.027259,0.464889,0.064184,-9.93725,-0.228665,0.327539,-0.17839,-0.02429,-0.219243,45.08194,-12.878811,2.380444,4.63583E+18,-0.607459,0.453542,-0.539713,-0.366064,-9.501069,0.291434,0.116049,-0.095228,-0.07446,-0.006652,43.19474,16.594342,4.518283,4.63583E+18,0.598327,0.429939,0.560738,-0.377797,0
-7.454991,0.580351,4.017958,0.074029,-0.19297,-0.026252,45.854738,-1.255353,-2.520329,4.63583E+18,0.882996,-0.026956,0.464231,0.063881,-9.74563,-0.141679,0.539027,-0.210305,-0.05565,-0.288996,45.162583,-12.83849,2.380444,4.63583E+18,-0.607618,0.454618,-0.538752,-0.365881,-9.507094,0.150198,-0.005253,-0.046877,-0.069605,-0.003637,43.140965,16.643943,4.528174,4.63583E+18,0.598576,0.42969,0.560626,-0.377853,0
-7.744844,0.418766,4.016236,0.060141,-0.188094,-0.036092,45.612571,-1.424266,-2.610384,4.63583E+18,0.883365,-0.026725,0.463586,0.063567,-9.81801,-0.370168,0.968583,-0.217601,-0.09386,-0.360174,45.327719,-12.718486,2.380444,4.63583E+18,-0.607957,0.455813,-0.537546,-0.365605,-9.503081,0.264371,0.079256,0.005634,-0.079677,0.017291,43.179589,16.675312,4.368721,4.63583E+18,0.598787,0.429604,0.560368,-0.377997,0
-7.990136,0.307756,3.956627,0.061903,-0.204684,-0.038403,45.690311,-1.499797,-2.51701,4.63583E+18,0.883765,-0.026488,0.462879,0.063244,-10.135382,-0.703438,1.469055,-0.209638,-0.12701,-0.415934,45.290608,-12.51373,2.420755,4.63583E+18,-0.608468,0.45706,-0.536161,-0.365232,-9.338384,0.493059,0.100141,0.058079,-0.075597,0.034815,43.109304,16.574892,4.420601,4.63583E+18,0.598923,0.429697,0.560006,-0.378213,0
-8.079291,0.138301,3.943278,0.075512,-0.215515,-0.040539,45.847273,-1.346547,-2.431283,4.63583E+18,0.884188,-0.026202,0.462136,0.062888,-10.366394,-1.110661,1.842867,-0.20045,-0.131301,-0.464647,45.114874,-12.343755,2.419826,4.63583E+18,-0.609078,0.458385,-0.534683,-0.364721,-9.330459,0.581473,0.204564,0.072851,-0.089423,0.046956,43.063236,16.470269,4.554122,4.63583E+18,0.599083,0.429834,0.559564,-0.378458,0
-8.081301,-0.044501,3.883397,0.094611,-0.263739,-0.030161,45.767576,-1.342814,-2.608056,4.63583E+18,0.884703,-0.025814,0.46122,0.062538,-10.506426,-1.216138,2.109342,-0.25055,-0.09815,-0.520248,45.2252,-12.258998,2.235802,4.63583E+18,-0.6096,0.460008,-0.533104,-0.364115,-9.52976,0.416033,0.798261,0.081311,-0.118653,0.064112,43.21447,16.443373,4.466404,4.63583E+18,0.599323,0.429985,0.559005,-0.378732,0
-8.05746,-0.120351,4.036917,0.128442,-0.297234,-0.01322,45.682113,-1.426256,-2.88655,4.63583E+18,0.885279,-0.02526,0.460191,0.062189,-10.578062,-0.918825,2.356925,-0.358014,-0.040276,-0.567161,45.433872,-12.132568,2.133518,4.63583E+18,-0.609855,0.462093,-0.531416,-0.363516,-9.820237,0.340562,1.114113,0.040284,-0.138707,0.099949,43.29966,16.397034,4.340603,4.63583E+18,0.59974,0.430085,0.558397,-0.378856,0
-8.044967,-0.157831,4.183677,0.130289,-0.341815,0.009083,45.763536,-1.344834,-3.095775,4.63583E+18,0.885934,-0.024645,0.458999,0.061924,-10.444969,-0.807973,2.447932,-0.433121,0.014746,-0.600074,45.432282,-11.968117,2.179369,4.63583E+18,-0.609888,0.464521,-0.529686,-0.36289,-10.09129,-0.819912,1.007233,0.000654,-0.100274,0.137377,43.152919,16.262003,4.370999,4.63583E+18,0.600197,0.430234,0.557879,-0.378726,0
-8.068517,-0.21829,4.342084,0.136571,-0.353304,0.023171,45.837067,-1.18787,-3.017249,4.63583E+18,0.886605,-0.023978,0.457766,0.061699,-10.222457,-0.994064,2.556612,-0.39543,0.025861,-0.624259,45.421665,-11.722377,1.988708,4.63583E+18,-0.610001,0.46692,-0.527989,-0.362094,-10.366309,-2.096126,0.129131,0.082108,-0.042337,0.198867,43.067719,16.152891,4.345094,4.63583E+18,0.60047,0.43082,0.557268,-0.378526,0
-8.219912,-0.068915,4.624269,0.137738,-0.33833,0.041771,45.838799,-1.416146,-3.003627,4.63583E+18,0.887241,-0.023274,0.45659,0.061539,-10.005518,-0.984942,2.858302,-0.320151,0.000166,-0.653679,45.494905,-11.387042,1.782281,4.63583E+18,-0.610356,0.469148,-0.526279,-0.361104,-10.528004,-1.646142,-1.02132,0.179463,-0.063363,0.284946,43.214432,16.079649,4.193387,4.63583E+18,0.600753,0.431816,0.556294,-0.378375,0
-8.33204,0.170631,4.476646,0.139818,-0.36186,0.074146,45.688215,-1.590434,-3.257856,4.63583E+18,0.887912,-0.022496,0.45533,0.061497,-10.208929,-0.467489,3.374174,-0.358831,-0.05059,-0.668461,45.568149,-11.09128,1.868618,4.63583E+18,-0.610764,0.471426,-0.524347,-0.360258,-10.227369,-0.489162,-1.400615,0.228449,-0.111519,0.339253,43.345991,16.052734,4.002555,4.63583E+18,0.601143,0.432984,0.555024,-0.378287,0
-8.244978,0.530653,4.66485,0.173378,-0.417908,0.102194,45.749613,-1.367475,-3.468524,4.63583E+18,0.888682,-0.021527,0.453871,0.0615,-11.079453,0.859777,4.144076,-0.465149,-0.104007,-0.674841,45.566573,-10.841391,1.919351,4.63583E+18,-0.611082,0.473904,-0.522101,-0.359728,-9.748816,0.31603,-1.252669,0.291394,-0.152389,0.346692,43.32658,16.052734,3.99255,4.63583E+18,0.601523,0.43426,0.553537,-0.378398,0
-7.938828,0.920002,4.976604,0.197474,-0.385376,0.116786,45.753349,-1.273938,-3.571777,4.63583E+18,0.889386,-0.020449,0.45254,0.061508,-11.632956,1.684992,4.429562,-0.551556,-0.106358,-0.758942,45.59046,-10.590806,1.867733,4.63583E+18,-0.611354,0.476774,-0.519547,-0.359172,-9.52877,0.618816,-0.955743,0.369758,-0.193369,0.322327,43.345982,16.006414,3.966681,4.63583E+18,0.601816,0.43561,0.551865,-0.378823,0
-7.702548,1.160027,4.656951,0.220971,-0.354076,0.114456,45.602781,-1.431717,-3.657843,4.63583E+18,0.89003,-0.019296,0.451328,0.06146,-12.048664,0.744901,4.914978,-0.617098,-0.124268,-0.900869,45.817507,-10.260344,1.908013,4.63583E+18,-0.611736,0.480083,-0.516557,-0.358425,-9.705807,0.697801,-0.922747,0.399095,-0.249496,0.292199,43.573631,15.886848,3.807259,4.63583E+18,0.602133,0.436873,0.550057,-0.379492,0
-7.679082,1.345639,4.569322,0.237376,-0.368703,0.095037,45.432505,-1.521547,-4.021259,4.63583E+18,0.890705,-0.018116,0.450063,0.06131,-12.661482,-0.750771,6.113718,-0.612709,-0.161045,-1.006249,45.985287,-9.959689,1.769069,4.63583E+18,-0.612349,0.483542,-0.513258,-0.357465,-9.94275,0.550411,-1.022908,0.411645,-0.30992,0.286044,43.63626,15.732651,3.68143,4.63583E+18,0.602554,0.438056,0.548087,-0.380312,0
-7.562624,1.412938,4.403403,0.22198,-0.383769,0.073726,45.342664,-1.525925,-4.04065,4.63583E+18,0.89141,-0.017029,0.448735,0.06111,-12.554546,-1.394312,6.489148,-0.519207,-0.169087,-1.065287,45.904748,-9.71471,1.286411,4.63583E+18,-0.613242,0.486865,-0.509946,-0.356162,-10.07954,0.166078,-0.926336,0.3944,-0.368948,0.316767,43.404155,15.620274,3.534232,4.63583E+18,0.603186,0.439169,0.545935,-0.381121,0
-7.463738,1.392898,4.209376,0.215027,-0.410879,0.046288,45.338295,-1.525925,-3.948006,4.63583E+18,0.892169,-0.016013,0.447301,0.060824,-11.875142,-0.887777,6.273764,-0.442029,-0.174047,-1.133746,45.923689,-9.257846,1.062885,4.63583E+18,-0.614389,0.490116,-0.506585,-0.354521,-10.112218,-0.077188,-0.707861,0.363376,-0.414581,0.368383,43.380078,15.542541,3.22762,4.63583E+18,0.604056,0.440245,0.54362,-0.38181,0
-7.43556,1.380062,4.176183,0.199497,-0.39305,0.025607,45.488857,-1.606998,-4.220954,4.63583E+18,0.892896,-0.015098,0.445926,0.060487,-11.279409,-0.454492,6.199952,-0.503795,-0.187254,-1.206216,46.155604,-8.712217,1.245975,4.63583E+18,-0.615527,0.493644,-0.502936,-0.352842,-10.076858,0.055437,-0.483656,0.404881,-0.433054,0.392858,43.534273,15.422995,2.903244,4.63583E+18,0.604926,0.441448,0.541142,-0.382562,0
-7.387987,1.437339,3.931742,0.190569,-0.370731,0.024567,45.49699,-1.611377,-4.594964,4.63583E+18,0.893578,-0.014225,0.44463,0.060162,-10.927659,-0.448844,5.765782,-0.607057,-0.204837,-1.26019,46.272517,-8.292275,1.296815,4.63583E+18,-0.61655,0.497509,-0.498963,-0.351265,-10.035748,0.536846,-0.263932,0.415153,-0.449985,0.428978,43.592636,15.268795,2.741474,4.63583E+18,0.605867,0.442727,0.538534,-0.383273,0
-7.177032,1.521536,3.536423,0.19013,-0.407071,0.028621,45.41593,-1.541895,-4.614398,4.63583E+18,0.894324,-0.013336,0.443198,0.059854,-10.664139,-1.242243,5.036436,-0.531704,-0.237028,-1.348367,46.294809,-7.882176,1.147407,4.63583E+18,-0.617903,0.501299,-0.494817,-0.349359,-9.790758,0.448165,0.063844,0.486142,-0.439328,0.45605,43.685244,15.164121,2.586566,4.63583E+18,0.606691,0.444259,0.535784,-0.384052,0
-6.853112,1.560662,3.399942,0.174933,-0.368574,0.052143,45.492592,-1.538133,-4.614398,4.63583E+18,0.894989,-0.012471,0.441905,0.05966,-10.483246,-3.317092,5.694389,-0.107211,-0.340042,-1.436617,46.396085,-7.341457,0.991635,4.63583E+18,-0.620462,0.504008,-0.49082,-0.346552,-9.617474,0.515488,0.192093,0.500315,-0.437105,0.488054,43.839439,15.13718,2.329531,4.63583E+18,0.607528,0.445895,0.532952,-0.384773,0
-6.61612,1.539387,3.196792,0.159922,-0.291392,0.06658,45.647537,-1.619195,-4.984969,4.63583E+18,0.895505,-0.011655,0.440896,0.059543,-10.39638,-4.987983,8.035505,0.564145,-0.486742,-1.442926,46.508075,-6.755539,0.934222,4.63583E+18,-0.624713,0.504762,-0.487381,-0.342649,-9.749336,0.975551,0.321997,0.339562,-0.456391,0.556827,43.890108,14.990578,1.990271,4.63583E+18,0.60881,0.447242,0.530194,-0.384993,0
-6.523142,1.271783,3.139811,0.161181,-0.234641,0.096679,45.72517,-1.704647,-5.271385,4.63583E+18,0.895909,-0.010792,0.440099,0.059533,-10.341092,-4.079341,9.769669,1.199569,-0.606047,-1.384676,46.575571,-6.169583,0.830039,4.63583E+18,-0.630426,0.503545,-0.484634,-0.337839,-9.723443,0.056465,0.379699,0.22097,-0.446418,0.621909,43.98591,14.712366,1.732086,4.63583E+18,0.610389,0.448442,0.527524,-0.384764,0
-6.356667,1.037388,3.183613,0.154199,-0.197345,0.132713,45.578423,-1.79008,-5.193185,4.63583E+18,0.896233,-0.0099,0.439441,0.059668,-10.32675,-1.187069,10.074715,1.633828,-0.731838,-1.335493,46.642348,-5.623924,0.582307,4.63583E+18,-0.637187,0.500871,-0.482235,-0.33252,-9.656056,-1.419112,-0.150643,0.184893,-0.438504,0.700683,44.1986,14.453481,1.598492,4.63583E+18,0.612137,0.449731,0.52478,-0.384236,0
-6.046835,0.689675,3.116667,0.148748,-0.160015,0.171056,45.50077,-1.863953,-5.002907,4.63583E+18,0.896478,-0.008967,0.438922,0.059955,-10.270716,1.168494,10.481948,1.893221,-0.905059,-1.316711,46.600664,-5.203902,0.375543,4.63583E+18,-0.64475,0.497183,-0.479728,-0.327058,-9.87206,-1.981499,-0.675392,0.196495,-0.444802,0.777411,44.28846,14.175253,1.446831,4.63583E+18,0.613992,0.451201,0.521849,-0.383543,0
-5.83364,0.486168,2.892916,0.143407,-0.129721,0.210522,45.566457,-1.78669,-4.992828,4.63583E+18,0.896656,-0.007989,0.438515,0.060397,-9.934567,1.949617,11.199341,2.055394,-1.080053,-1.289622,46.464232,-4.834052,0.179465,4.63583E+18,-0.652888,0.492708,-0.476974,-0.321671,-10.298726,-0.653264,-0.705401,0.133363,-0.474554,0.86968,44.342461,13.862354,1.202005,4.63583E+18,0.616168,0.452655,0.518762,-0.382527,0
-5.637714,0.267719,2.846219,0.152248,-0.130204,0.23991,45.419748,-1.944346,-5.166469,4.63583E+18,0.896827,-0.006925,0.438109,0.060933,-9.299071,2.261312,11.588428,2.148868,-1.228137,-1.21887,46.487249,-4.338576,-0.251407,4.63583E+18,-0.661333,0.487577,-0.474027,-0.316552,-10.358264,0.66323,-0.299927,-0.000705,-0.506476,0.938687,44.420187,13.552722,1.044678,4.63583E+18,0.618764,0.453855,0.515667,-0.381096,0
-5.315023,0.314242,2.960099,0.164901,-0.151588,0.27787,45.261036,-2.265774,-5.060165,4.63583E+18,0.897027,-0.005739,0.437627,0.061587,-8.670092,3.027509,11.622164,2.13893,-1.359761,-1.108728,46.640189,-3.712439,-0.88329,4.63583E+18,-0.669785,0.482017,-0.470866,-0.311982,-10.020907,0.632751,-0.059097,-0.093898,-0.526038,1.000531,44.555128,13.14728,0.897528,4.63583E+18,0.621664,0.454906,0.512542,-0.379335,0
-4.939111,0.155308,3.128484,0.190889,-0.077781,0.30822,45.252846,-2.444869,-5.227527,4.63583E+18,0.897082,-0.004419,0.437427,0.062305,-8.226328,3.904264,11.557531,2.029156,-1.481341,-0.981619,46.792425,-3.155943,-1.474976,4.63583E+18,-0.678003,0.476292,-0.467418,-0.308186,-9.69404,-0.061454,0.171453,-0.126937,-0.538006,1.074367,44.672003,12.683624,0.714506,4.63583E+18,0.624755,0.456,0.509286,-0.377325,0
-4.676515,0.181213,3.009981,0.24088,0.026564,0.340146,45.322292,-2.291642,-5.526343,4.63583E+18,0.896937,-0.002881,0.43763,0.063049,-7.842915,4.197917,11.418956,1.880449,-1.581107,-0.854021,46.876431,-2.889568,-1.91152,4.63583E+18,-0.685874,0.470552,-0.463693,-0.3052,-9.55651,-0.223085,-0.007391,-0.130429,-0.561094,1.134676,44.757423,12.320044,0.523764,4.63583E+18,0.627979,0.457163,0.505847,-0.375184,0
-4.674804,0.275719,2.991445,0.259744,0.093831,0.361052,45.407121,-2.444848,-5.437978,4.63583E+18,0.896662,-0.001253,0.438087,0.063835,-7.428612,3.872677,11.075766,1.766914,-1.646764,-0.715299,46.836227,-2.769662,-2.433504,4.63583E+18,-0.693394,0.464731,-0.459856,-0.302923,-9.441567,0.215469,-0.42955,-0.131267,-0.592069,1.187293,44.89678,11.960964,0.513284,4.63583E+18,0.631334,0.458374,0.502214,-0.372951,0
-4.768021,0.246051,2.608897,0.312274,0.154923,0.382355,45.411541,-2.60414,-5.247123,4.63583E+18,0.896266,0.000595,0.438786,0.064604,-7.179392,3.457582,10.440957,1.728577,-1.68673,-0.561162,46.790977,-2.605212,-3.111418,4.63583E+18,-0.700647,0.458624,-0.456104,-0.30121,-9.164131,0.689132,-0.36579,-0.147951,-0.633157,1.232617,45.059993,11.423957,0.433801,4.63583E+18,0.634857,0.459556,0.498395,-0.370631,0
-4.981385,0.452439,2.287105,0.36978,0.142898,0.38954,45.49254,-2.762816,-5.144402,4.63583E+18,0.895886,0.002674,0.439452,0.065293,-7.279877,3.502735,9.713617,1.75565,-1.713745,-0.416159,46.716323,-2.434328,-3.742551,4.63583E+18,-0.707746,0.452079,-0.452536,-0.299887,-9.172094,1.550788,-0.005422,-0.198121,-0.674086,1.259725,45.272578,10.809147,0.019684,4.63583E+18,0.63858,0.460583,0.494478,-0.368199,0
-5.143277,0.556465,2.351588,0.413289,0.105609,0.358482,45.578002,-3.083552,-5.03516,4.63583E+18,0.895577,0.004869,0.439989,0.065785,-7.57713,4.229262,9.149184,1.760067,-1.737619,-0.301429,46.557637,-2.303629,-4.328465,4.63583E+18,-0.714678,0.445225,-0.44907,-0.298907,-9.722898,2.003891,0.265177,-0.268662,-0.706752,1.27895,45.408909,10.437523,-0.360206,4.63583E+18,0.642513,0.461394,0.490526,-0.365619,0
-5.139951,0.619406,2.263444,0.444876,0.097534,0.301066,45.513007,-3.332142,-4.925292,4.63583E+18,0.895293,0.007078,0.440503,0.066004,-7.768929,5.204511,8.993245,1.665896,-1.762817,-0.214773,46.473583,-2.25837,-5.092478,4.63583E+18,-0.7213,0.438411,-0.445526,-0.298377,-10.275088,1.14085,0.210896,-0.33361,-0.733967,1.315698,45.435955,10.251769,-0.579392,4.63583E+18,0.646656,0.462046,0.486511,-0.362846,0
-4.954192,0.530015,2.339362,0.490019,0.092139,0.219046,45.428208,-3.194414,-5.012146,4.63583E+18,0.895036,0.009307,0.44101,0.065832,-7.633311,5.52143,9.155494,1.53653,-1.776769,-0.124438,46.553961,-2.252628,-5.781176,4.63583E+18,-0.727527,0.431757,-0.4419,-0.298354,-10.098516,-0.370761,-0.012024,-0.339523,-0.739388,1.385603,45.489858,9.700363,-0.816399,4.63583E+18,0.650899,0.462796,0.482334,-0.359866,0
-4.712567,0.374488,2.806683,0.547092,0.160711,0.125597,45.423748,-3.186132,-4.832098,4.63583E+18,0.894672,0.011557,0.441788,0.065209,-7.332436,5.14019,9.230977,1.475366,-1.775452,-0.001997,46.644489,-2.286345,-6.119396,4.63583E+18,-0.733421,0.425023,-0.43838,-0.298784,-9.684636,-1.460301,-0.228539,-0.279534,-0.753863,1.471603,45.582997,8.926881,-1.092629,4.63583E+18,0.655155,0.463838,0.477841,-0.356784,0
-4.66514,0.400933,3.167654,0.60679,0.293069,0.048821,45.504741,-3.336545,-4.636801,4.63583E+18,0.894075,0.013853,0.443077,0.064194,-7.08682,5.062387,9.031423,1.455769,-1.766531,0.146416,46.50096,-2.41199,-6.728154,4.63583E+18,-0.739012,0.41805,-0.435086,-0.299659,-9.612291,-0.703073,-0.25899,-0.253315,-0.787978,1.55852,45.719156,8.296377,-1.373408,4.63583E+18,0.659523,0.465049,0.473023,-0.353565,0
-4.975585,0.63422,3.475351,0.670648,0.437818,-0.010812,45.59018,-3.42581,-4.534056,4.63583E+18,0.893215,0.016237,0.44492,0.062847,-6.964687,5.374747,8.649452,1.406649,-1.761814,0.311086,46.230233,-2.617326,-7.594897,4.63583E+18,-0.744236,0.410897,-0.431993,-0.301096,-9.312838,1.076933,0.075976,-0.253267,-0.827775,1.616741,45.885533,7.708613,-1.584867,4.63583E+18,0.664019,0.46629,0.467956,-0.350242,0
-5.559761,1.075085,3.375617,0.70336,0.520334,-0.06653,45.44424,-3.34929,-4.436386,4.63583E+18,0.892203,0.018617,0.447077,0.061235,-6.946741,5.380722,8.205001,1.352856,-1.761001,0.484992,46.072924,-2.861459,-8.225436,4.63583E+18,-0.749081,0.403562,-0.429094,-0.30314,-9.665405,2.766151,0.787437,-0.290471,-0.891259,1.620007,46.002544,7.0906,-1.825027,4.63583E+18,0.668675,0.467315,0.462735,-0.34694,0
-6.076937,1.480481,3.068419,0.704978,0.537622,-0.138272,45.285544,-3.414249,-4.153604,4.63583E+18,0.891164,0.020865,0.449297,0.059352,-6.870669,4.988714,7.718161,1.336062,-1.75114,0.666825,45.925065,-3.185962,-8.794087,4.63583E+18,-0.753583,0.395929,-0.426471,-0.305738,-10.116502,3.126131,0.929336,-0.376274,-0.95739,1.613577,45.987937,6.560384,-2.0981,4.63583E+18,0.673576,0.467962,0.457437,-0.343596,0
-6.404453,1.617184,2.866773,0.724208,0.556565,-0.207853,45.439202,-3.418073,-3.87226,4.63583E+18,0.890093,0.023048,0.451591,0.057175,-6.782307,4.351961,7.320259,1.360046,-1.733174,0.855749,45.739049,-3.641163,-9.413077,4.63583E+18,-0.75778,0.387871,-0.424206,-0.308827,-9.939217,2.059609,0.268302,-0.439635,-1.021915,1.632153,46.007049,6.092027,-2.497473,4.63583E+18,0.678705,0.468344,0.451983,-0.340183,0
-6.733446,1.797114,3.284571,0.743493,0.653737,-0.272228,45.598553,-3.337093,-3.591461,4.63583E+18,0.888837,0.025158,0.454248,0.05473,-6.76864,3.287375,7.172215,1.456055,-1.701771,1.045931,45.52444,-4.22197,-10.026956,4.63583E+18,-0.761756,0.379174,-0.422428,-0.312266,-9.467132,1.298248,-0.191858,-0.466478,-1.095266,1.674459,46.134158,5.535822,-2.965845,4.63583E+18,0.684038,0.468593,0.446245,-0.336717,0
-7.305991,2.095913,3.319775,0.738425,0.706623,-0.306962,45.618426,-3.321052,-3.206571,4.63583E+18,0.887471,0.02717,0.457094,0.05217,-6.803796,2.007749,7.010833,1.640547,-1.654529,1.243015,45.253698,-4.807277,-10.645956,4.63583E+18,-0.765596,0.369563,-0.421303,-0.315895,-8.877467,1.98762,0.054643,-0.477903,-1.186986,1.713888,46.246682,4.817717,-3.483594,4.63583E+18,0.689566,0.468717,0.440152,-0.333271,0
-8.146263,2.53982,3.308848,0.813991,0.705202,-0.329947,45.700027,-3.239452,-2.920116,4.63583E+18,0.886087,0.029417,0.459942,0.049378,-6.962354,1.315599,6.669781,1.8494,-1.605205,1.448652,44.993089,-5.341436,-11.265561,4.63583E+18,-0.7693,0.358941,-0.420872,-0.319696,-7.996431,3.012266,0.675089,-0.49346,-1.269885,1.71468,46.33983,4.090311,-3.863629,4.63583E+18,0.695222,0.468645,0.433805,-0.329928,0
-9.127994,3.361592,3.840231,0.854633,0.670569,-0.340234,45.854871,-3.003647,-2.743441,4.63583E+18,0.884745,0.0318,0.462662,0.046464,-7.271074,1.492569,6.384607,2.007919,-1.554757,1.638176,44.768951,-6.042125,-11.747656,4.63583E+18,-0.772784,0.347492,-0.421034,-0.323704,-6.840281,4.10976,1.312485,-0.482783,-1.355305,1.667573,46.429786,3.486875,-4.136684,4.63583E+18,0.700888,0.468361,0.427252,-0.326879,0
-10.047399,4.388955,4.124193,0.857667,0.629192,-0.369075,45.712859,-2.759499,-2.560972,4.63583E+18,0.883469,0.034146,0.465222,0.043429,-7.630825,1.958652,6.240185,2.079479,-1.495197,1.787057,44.593778,-6.918123,-12.021956,4.63583E+18,-0.77594,0.335574,-0.42163,-0.327926,-6.561453,5.758267,1.907484,-0.501073,-1.475842,1.567797,46.399817,2.945219,-4.705353,4.63583E+18,0.706609,0.467642,0.420531,-0.324296,0
-10.881899,5.229872,4.21926,0.852663,0.586527,-0.41517,45.554182,-2.503814,-2.285367,4.63583E+18,0.882264,0.036389,0.467619,0.040227,-7.87657,2.299846,6.161208,2.063893,-1.425591,1.893826,44.346112,-7.874513,-12.388751,4.63583E+18,-0.778672,0.323557,-0.422507,-0.332368,-7.065305,6.188443,2.262572,-0.553057,-1.591009,1.435665,46.263701,2.446618,-5.388377,4.63583E+18,0.712395,0.466343,0.413763,-0.322207,0
-11.688961,6.036933,4.431944,0.82101,0.520521,-0.474318,45.626783,-2.328391,-2.004566,4.63583E+18,0.881184,0.038411,0.469766,0.036857,-7.860263,2.326051,5.995483,1.983948,-1.336716,1.970931,44.013028,-8.834521,-12.8067,4.63583E+18,-0.780901,0.311731,-0.423593,-0.337025,-7.676957,5.299676,2.128433,-0.56148,-1.684119,1.314991,46.10502,2.070574,-5.866079,4.63583E+18,0.718136,0.464646,0.40693,-0.320614,0
-12.355865,6.622877,4.3741,0.805101,0.479539,-0.544254,45.550314,-2.400367,-1.897281,4.63583E+18,0.88018,0.040242,0.471761,0.033253,-7.74745,1.911418,5.635962,1.901549,-1.225593,2.023475,43.628911,-9.716308,-13.132746,4.63583E+18,-0.782624,0.300186,-0.424924,-0.3418,-8.52897,4.70152,1.6097,-0.545619,-1.76363,1.227184,46.138635,1.568563,-6.413742,4.63583E+18,0.723802,0.462701,0.399974,-0.319436,0
-13.142108,7.173369,4.462754,0.822527,0.428898,-0.615748,45.626764,-2.393295,-1.614636,4.63583E+18,0.879263,0.042002,0.473573,0.029342,-7.955837,1.098971,5.062454,1.8507,-1.103962,2.065501,43.324284,-10.586485,-13.499483,4.63583E+18,-0.783885,0.288858,-0.426564,-0.346595,-9.022261,4.932926,1.141,-0.58692,-1.841759,1.134921,46.185123,0.950547,-7.306814,4.63583E+18,0.729493,0.460333,0.39298,-0.31859,0
-14.29416,7.734322,5.011428,0.831637,0.372562,-0.689345,45.793173,-2.080417,-1.252243,4.63583E+18,0.878445,0.043655,0.475182,0.025133,-8.33096,0.194715,4.361683,1.762032,-0.977054,2.099327,43.111037,-11.501989,-13.917485,4.63583E+18,-0.784645,0.277898,-0.428467,-0.351454,-8.740774,5.603892,1.331679,-0.643792,-1.911095,1.016242,46.019116,0.574126,-8.213587,4.63583E+18,0.735185,0.457466,0.386045,-0.318116,0
-15.454382,8.353617,5.365419,0.847263,0.31798,-0.741792,45.871556,-1.669912,-1.071067,4.63583E+18,0.877716,0.045265,0.476589,0.020689,-8.195335,-0.540701,3.652915,1.532075,-0.844234,2.099125,42.856916,-12.457658,-14.151879,4.63583E+18,-0.784793,0.267847,-0.430407,-0.356521,-7.956262,6.137722,1.933469,-0.696844,-1.965366,0.859811,45.855046,0.488296,-8.997517,4.63583E+18,0.740793,0.454071,0.379278,-0.318109,0
-16.486886,8.918376,5.48753,0.868344,0.233152,-0.75664,45.794482,-1.335803,-1.16611,4.63583E+18,0.877132,0.046927,0.477678,0.016132,-7.560767,-1.906387,2.871113,1.19569,-0.712089,2.032932,42.563937,-13.424283,-14.2316,4.63583E+18,-0.784334,0.259179,-0.432154,-0.361786,-7.463648,6.632799,2.764939,-0.768924,-2.04208,0.662565,45.706745,0.434476,-9.808138,4.63583E+18,0.746331,0.449999,0.37271,-0.318714,0
-17.153788,9.398923,5.435524,0.882623,0.169909,-0.736073,45.78997,-1.087171,-1.010051,4.63583E+18,0.876649,0.048684,0.47852,0.011608,-7.102706,-4.277512,2.187085,0.897707,-0.584922,1.89013,42.265247,-14.266023,-14.224607,4.63583E+18,-0.783465,0.25191,-0.433673,-0.366949,-7.819178,7.205172,3.443474,-0.870954,-2.121551,0.437627,45.482033,0.256772,-10.588908,4.63583E+18,0.751816,0.445113,0.366417,-0.319978,0
-17.419252,9.80564,5.247313,0.907637,0.226317,-0.693409,45.951828,-0.912392,-0.827587,4.63583E+18,0.876025,0.050613,0.479548,0.0072,-7.13462,-6.742385,1.849283,0.631669,-0.48295,1.664743,41.954331,-14.936173,-14.121217,4.63583E+18,-0.782422,0.246054,-0.434849,-0.371725,-8.411887,6.707113,3.468669,-0.970446,-2.183026,0.211498,45.225678,0.117087,-11.156734,4.63583E+18,0.757204,0.439444,0.360449,-0.32188,0
-17.605592,10.42815,5.051994,0.924168,0.337895,-0.629383,45.879946,-0.75305,-0.817896,4.63583E+18,0.875152,0.052725,0.480958,0.003016,-7.440293,-9.534281,1.871723,0.264807,-0.450802,1.347234,41.642686,-15.481984,-14.194722,4.63583E+18,-0.781398,0.242008,-0.435216,-0.37608,-9.35187,6.148445,2.892642,-1.025583,-2.255381,-0.001916,45.123082,0.139262,-11.751262,4.63583E+18,0.762438,0.433138,0.35468,-0.324471,0
-17.661522,11.097543,4.717978,0.935131,0.389461,-0.56221,45.875423,-0.432532,-0.748536,4.63583E+18,0.874151,0.055008,0.482528,-0.000935,-7.625395,-12.749363,2.203292,-0.135289,-0.438749,0.95828,41.371898,-15.948079,-14.435369,4.63583E+18,-0.780537,0.239982,-0.43459,-0.379872,-10.266905,5.97484,2.450966,-1.024116,-2.295252,-0.220284,44.94177,0.316949,-12.591744,4.63583E+18,0.76735,0.426412,0.349138,-0.327793,0
-17.664112,11.826745,4.468652,0.992341,0.413252,-0.505032,46.025701,-0.102935,-0.663732,4.63583E+18,0.873068,0.057612,0.484159,-0.004789,-7.472687,-15.690859,2.806666,-0.405473,-0.378412,0.513235,41.248817,-16.249291,-14.493182,4.63583E+18,-0.779989,0.239732,-0.433281,-0.38264,-10.055196,6.32034,2.555904,-0.983521,-2.298772,-0.454029,44.56873,0.541219,-13.531785,4.63583E+18,0.771791,0.419424,0.343906,-0.331891,0
-17.560098,12.639923,4.155217,1.127987,0.483206,-0.436298,45.953218,0.145691,-0.4974,4.63583E+18,0.871789,0.060848,0.486011,-0.00865,-7.096043,-16.741934,2.330574,-0.747344,-0.242229,0.078866,41.208716,-16.299133,-14.533018,4.63583E+18,-0.779539,0.241593,-0.43143,-0.384473,-9.642944,6.878196,3.073104,-0.943689,-2.323815,-0.714117,44.087714,0.914653,-14.410165,4.63583E+18,0.775749,0.412107,0.338954,-0.336886,0
-17.496455,12.960893,3.595067,1.327599,0.497189,-0.366862,45.879318,0.239605,-0.210896,4.63583E+18,0.870405,0.064946,0.487871,-0.01266,-6.927041,-15.169697,1.712125,-1.397547,-0.061478,-0.358859,41.163364,-16.139975,-14.774147,4.63583E+18,-0.778793,0.246636,-0.428675,-0.385862,-9.63977,6.852903,3.561815,-0.865525,-2.377573,-1.009334,43.77486,1.378493,-15.144809,4.63583E+18,0.779138,0.404499,0.334183,-0.342996,0
-17.435425,12.941799,3.287193,1.576031,0.411801,-0.313619,45.794523,0.475289,-0.021963,4.63583E+18,0.869092,0.070046,0.489371,-0.017007,-6.384958,-12.723057,-1.469302,-2.600682,0.176799,-0.859467,41.306562,-15.648773,-15.067125,4.63583E+18,-0.777127,0.256839,-0.424208,-0.387499,-9.972505,6.188321,3.595774,-0.680153,-2.461321,-1.303235,43.625652,1.842374,-15.992974,4.63583E+18,0.781806,0.396908,0.329325,-0.350411,0
-17.224171,12.870514,3.144473,1.786571,0.274508,-0.296675,45.70908,0.569185,-0.023763,4.63583E+18,0.867952,0.075928,0.490326,-0.021763,-6.802453,-15.490679,0.227148,-3.620343,-0.032449,-1.480591,41.61173,-14.817502,-15.457449,4.63583E+18,-0.77559,0.271054,-0.416668,-0.389073,-10.958974,6.302127,3.074518,-0.494368,-2.61568,-1.595827,43.349876,2.406162,-16.998948,4.63583E+18,0.783831,0.389233,0.324126,-0.359234,0
-16.865732,12.600794,3.102632,1.830052,0.163892,-0.302956,45.785417,0.654646,-0.024415,4.63583E+18,0.866973,0.081939,0.490849,-0.026665,-11.307189,-37.462297,11.507636,-3.091225,-0.281909,-2.62955,41.871072,-13.701654,-16.049505,4.63583E+18,-0.776734,0.285074,-0.407768,-0.38619,-12.675491,6.432428,2.239073,-0.350414,-2.825848,-1.913593,42.891471,3.028693,-17.921235,4.63583E+18,0.785285,0.381211,0.31848,-0.369563,0
-16.222141,12.204453,3.990567,1.744907,0.274378,-0.358972,45.951767,0.740099,0.229838,4.63583E+18,0.86574,0.087534,0.491768,-0.031558,-11.89464,-43.329246,0.138358,-2.487869,0.887665,-2.771529,42.198809,-12.439076,-16.338807,4.63583E+18,-0.776628,0.299187,-0.403345,-0.380328,-15.25571,5.86056,2.680496,-0.071534,-3.169458,-2.240299,42.324952,3.643605,-18.829572,4.63583E+18,0.786066,0.37305,0.311724,-0.381789,0
-15.736403,11.154666,4.294843,1.516584,0.355736,-0.4723,45.799115,0.825531,0.336582,4.63583E+18,0.864364,0.092078,0.493025,-0.036362,-9.719991,-6.075136,-23.203874,-1.280257,1.645388,-1.539462,42.622616,-11.507616,-15.933179,4.63583E+18,-0.774658,0.308468,-0.404749,-0.375408,-21.216905,4.859715,3.521466,0.119493,-3.595956,-2.47624,41.711486,4.453675,-20.130556,4.63583E+18,0.786496,0.364418,0.303542,-0.395584,0
-16.589035,10.472612,6.157859,1.276482,0.208319,-0.578617,45.639769,0.980306,0.237821,4.63583E+18,0.863332,0.095511,0.493807,-0.041112,-10.171465,17.431354,-23.463154,0.588384,0.777296,-1.760332,42.892262,-10.92287,-15.267533,4.63583E+18,-0.776827,0.310703,-0.405952,-0.367704,-29.617043,1.447084,0.02905,0.161485,-3.99466,-2.745337,40.981354,5.427524,-21.698035,4.63583E+18,0.786632,0.354791,0.294279,-0.410771,0
-16.881355,9.536007,6.470395,0.996689,-0.023709,-0.607532,45.631275,1.381684,0.220385,4.63583E+18,0.862858,0.097835,0.493797,-0.045483,-8.361054,1.326556,-10.119442,0.416674,0.433711,-3.058318,43.067371,-10.067467,-14.837308,4.63583E+18,-0.781251,0.315125,-0.404052,-0.35649,-36.46237,-3.04476,-6.270968,0.221082,-4.106566,-3.023697,40.003512,6.374721,-23.120452,4.63583E+18,0.786004,0.344672,0.284832,-0.426931,0
-16.248016,9.438936,7.441123,0.665189,-0.330514,-0.587614,45.700598,1.634934,0.289058,4.63583E+18,0.863137,0.098947,0.492728,-0.049224,-11.602722,-19.961548,-4.273737,-0.550684,1.203261,-3.624557,43.418007,-8.581122,-14.757992,4.63583E+18,-0.783784,0.324724,-0.402392,-0.343974,-39.78918,-4.935261,-13.33171,-0.011692,-3.73771,-3.087003,38.871008,7.290236,-24.246738,4.63583E+18,0.784821,0.334223,0.276974,-0.442308,0
-14.871163,8.789297,8.385007,0.349059,-0.424993,-0.528787,45.704517,1.728878,0.108113,4.63583E+18,0.863741,0.099021,0.491352,-0.052143,-18.168125,-15.210412,-10.605069,-0.817519,1.68244,-3.041951,43.907792,-7.184711,-14.599251,4.63583E+18,-0.78413,0.334826,-0.402606,-0.333078,-36.801798,-4.780082,-21.802844,-1.095211,-2.927346,-3.093657,37.857338,8.405434,-25.221471,4.63583E+18,0.783909,0.32159,0.273668,-0.455162,0
-12.981389,6.75386,9.960449,0.098658,-0.301001,-0.396124,45.773843,1.802775,-0.168084,4.63583E+18,0.864217,0.098491,0.490418,-0.05402,-18.58993,-5.575723,-9.884422,-0.71993,1.626706,-2.42644,44.257203,-6.33824,-14.044152,4.63583E+18,-0.783703,0.343435,-0.403556,-0.324043,-30.956494,-4.943296,-28.763087,-2.633708,-1.973292,-3.350253,37.07555,9.88411,-25.874058,4.63583E+18,0.783202,0.305334,0.27664,-0.465657,0
-11.735235,3.002179,11.84869,-0.348154,-0.208839,-0.22911,45.777763,1.968413,-0.183111,4.63583E+18,0.864722,0.096713,0.489845,-0.054345,-15.980191,-4.215776,-4.845125,-1.174262,1.609454,-2.567204,44.505538,-5.437956,-13.195009,4.63583E+18,-0.782713,0.353683,-0.403567,-0.315282,-25.502631,-6.464769,-32.969106,-3.04563,-1.100938,-3.658151,36.541056,11.461494,-26.065958,4.63583E+18,0.781103,0.288949,0.28354,-0.475386,0
-10.307247,-0.796899,10.911448,-0.736643,-0.302056,-0.119977,45.696904,2.127764,-0.102253,4.63583E+18,0.865592,0.093736,0.488978,-0.053519,-24.980694,-1.153968,11.133929,-1.838008,1.171466,-2.427505,44.792012,-4.272604,-12.569814,4.63583E+18,-0.781154,0.365219,-0.401411,-0.308679,-20.895588,10.246666,-33.268274,-4.404601,-0.524584,-2.871342,36.017137,13.103916,-25.783202,4.63583E+18,0.781166,0.270083,0.293932,-0.480041,0
-8.68177,-2.964931,11.256718,-0.942301,-0.710953,-0.024327,45.622994,2.055428,-0.178527,4.63583E+18,0.867382,0.090119,0.486636,-0.052088,-30.803598,5.296699,21.685469,-2.687382,1.307,-2.179321,45.044935,-3.180803,-12.301251,4.63583E+18,-0.777593,0.379202,-0.398896,-0.304033,-17.865262,27.837199,-30.197046,-5.760513,-0.346492,-1.435422,35.589294,14.762348,-25.150377,4.63583E+18,0.784978,0.248771,0.305838,-0.477897,0
-6.491696,-4.473959,12.561822,-1.342929,-0.983468,0.067696,45.688373,1.889127,-0.633607,4.63583E+18,0.869863,0.085178,0.483344,-0.04961,-21.552289,2.086411,0.712617,-3.325398,1.707525,-2.176558,45.172349,-2.065424,-11.763798,4.63583E+18,-0.772139,0.395649,-0.396763,-0.299738,-22.840444,21.825566,-13.685319,-1.855726,-0.144592,0.980984,35.608394,15.660897,-24.771192,4.63583E+18,0.789025,0.243624,0.308021,-0.472451,0
-4.200657,-6.239823,11.67592,-1.631923,-0.741937,0.160567,45.761618,2.030105,-1.028835,4.63583E+18,0.871934,0.079423,0.480932,-0.046123,-13.576526,-14.785817,-11.560057,-2.920759,1.605301,-2.046661,45.289058,-0.900437,-11.053115,4.63583E+18,-0.767132,0.410335,-0.394904,-0.295272,-28.439998,23.003059,1.043905,3.297346,0.518837,3.357943,36.155114,14.865601,-24.99954,4.63583E+18,0.791484,0.259718,0.299758,-0.465021,0
-4.550811,-7.144123,9.969838,-1.647084,-0.623317,0.303005,45.684707,2.038636,-1.234632,4.63583E+18,0.873752,0.073917,0.47888,-0.042045,-8.350427,-14.260858,-2.406908,-2.009146,1.766466,-1.865612,45.462261,0.019358,-10.537339,4.63583E+18,-0.763024,0.421916,-0.394902,-0.289542,-30.096664,26.285554,-4.884275,3.734557,1.470557,4.015002,36.910534,13.028186,-25.217726,4.63583E+18,0.793181,0.279794,0.292933,-0.45472,0
-6.841506,-7.51355,7.970098,-1.560173,-0.693184,0.521035,45.529959,1.645949,-1.499247,4.63583E+18,0.875672,0.069147,0.476467,-0.037365,-6.73083,-8.714405,5.123746,-1.620985,1.881056,-1.568387,45.596534,0.723928,-9.890446,4.63583E+18,-0.758924,0.431841,-0.39619,-0.283868,-29.709158,21.175773,-16.665223,1.545791,2.264197,4.095012,37.679507,11.259819,-24.884166,4.63583E+18,0.796222,0.294103,0.292641,-0.440336,0
-9.615295,-8.998772,7.48043,-1.54916,-0.592399,0.804855,45.671552,1.311744,-1.675413,4.63583E+18,0.877383,0.064993,0.474313,-0.031637,-4.683886,-9.985228,5.628397,-1.493611,1.953441,-1.185152,45.736559,1.303127,-8.990015,4.63583E+18,-0.754376,0.440757,-0.398491,-0.279026,-27.051816,18.375951,-18.116357,0.147908,2.806544,4.498009,38.701811,9.743755,-23.965075,4.63583E+18,0.800692,0.305127,0.296086,-0.422046,0
-13.183797,-11.934385,7.343255,-1.531638,-0.266132,1.102225,45.680103,1.063047,-1.5807,4.63583E+18,0.878432,0.061531,0.473242,-0.024766,-4.562652,-8.853171,8.526586,-1.212542,2.053653,-0.916328,45.883084,1.757198,-8.169269,4.63583E+18,-0.749773,0.448405,-0.40188,-0.274344,-24.560706,14.561242,-16.651565,0.105648,3.354461,4.930927,39.789298,8.183626,-22.772921,4.63583E+18,0.804857,0.317341,0.300721,-0.401331,0
-17.223908,-14.025606,6.29757,-1.435696,-0.029604,1.335547,45.61083,0.738113,-1.56321,4.63583E+18,0.878957,0.058902,0.472939,-0.017167,-7.971484,-5.098362,13.987256,-1.109262,2.152722,-0.7606,45.949424,2.132156,-7.412035,4.63583E+18,-0.744936,0.455533,-0.405942,-0.26976,-23.582931,8.54762,-16.427315,0.277171,3.811845,4.96761,40.673369,6.460403,-21.593783,4.63583E+18,0.80776,0.330735,0.30636,-0.379844,0
-19.233893,-13.916813,4.760192,-1.394893,-0.475725,1.442962,45.687675,0.327698,-1.724181,4.63583E+18,0.880297,0.0566,0.470941,-0.009363,-12.339829,-3.595102,15.803222,-1.279597,2.179092,-0.663312,45.930735,2.461735,-6.50606,4.63583E+18,-0.739536,0.463002,-0.410033,-0.265686,-22.012542,3.751148,-14.680387,0.155168,4.219008,4.690054,41.566642,4.731787,-20.269742,4.63583E+18,0.809317,0.343784,0.313736,-0.358314,0
-17.951098,-11.352733,5.010247,-1.410038,-0.93844,1.494878,45.761583,-0.156625,-2.172171,4.63583E+18,0.882481,0.054323,0.467199,-0.001446,-15.603999,-4.093768,14.307138,-1.337576,2.249699,-0.627003,46.073063,2.716929,-5.633251,4.63583E+18,-0.733773,0.470609,-0.414296,-0.261653,-19.273568,1.647595,-12.821878,0.011377,4.757993,4.341542,42.518791,3.180815,-18.787802,4.63583E+18,0.809282,0.356456,0.323422,-0.336748,0
-15.793494,-8.516353,6.611149,-1.44335,-1.179654,1.499564,45.465378,-0.737283,-2.428238,4.63583E+18,0.885059,0.051928,0.462527,0.006501,-18.784577,-4.958973,11.548307,-1.186925,2.355978,-0.649539,46.344666,2.922174,-4.818397,4.63583E+18,-0.728054,0.477851,-0.418952,-0.257051,-16.728467,-0.355597,-11.668247,0.158586,5.432037,3.98104,43.432492,1.808172,-16.97504,4.63583E+18,0.807005,0.369817,0.335467,-0.315343,0
-13.561526,-6.930461,7.325308,-1.416918,-0.966776,1.473414,45.598249,-1.704231,-2.580024,4.63583E+18,0.88714,0.04957,0.458605,0.014346,-22.221817,-4.819948,9.84981,-0.938886,2.456178,-0.749681,46.449931,3.280765,-3.865877,4.63583E+18,-0.722667,0.484561,-0.423925,-0.251479,-14.866001,-3.900703,-10.793173,0.662154,6.087522,3.553319,44.185497,0.489831,-14.686117,4.63583E+18,0.801803,0.38483,0.349435,-0.29481,0
-12.054922,-5.255109,6.841528,-1.380949,-0.751814,1.366846,46.611296,-3.004753,-3.003598,4.63583E+18,0.888738,0.047127,0.455467,0.021774,-24.662365,-4.183323,9.678176,-0.612754,2.540255,-0.896308,46.425518,3.854862,-2.867606,4.63583E+18,-0.717848,0.490572,-0.42914,-0.244687,-13.283912,-6.317703,-9.600751,1.276403,6.651727,3.120897,44.79553,-0.728833,-12.342972,4.63583E+18,0.793528,0.401607,0.364906,-0.275444,0
-10.624831,-4.297942,5.680433,-1.352717,-0.833155,1.24365,47.04985,-3.630371,-3.731612,4.63583E+18,0.889414,0.033054,0.45301,0.051301,-26.34616,-3.618823,10.868649,-0.188029,2.571166,-1.007725,46.521255,4.366032,-1.962017,4.63583E+18,-0.713861,0.495477,-0.434596,-0.236707,-12.163265,-5.881806,-7.597267,1.420599,6.987234,2.598147,45.33088,-1.942146,-9.827094,4.63583E+18,0.783121,0.418058,0.381837,-0.257195,0
-9.115768,-3.324674,5.372986,-1.292622,-0.747589,1.067222,46.760063,-3.90464,-4.210751,4.63583E+18,0.890736,0.030393,0.449832,0.057589,-26.603814,-1.217577,12.345053,0.21204,2.528846,-1.04475,46.598718,4.65558,-1.055249,4.63583E+18,-0.710718,0.499153,-0.440188,-0.227949,-12.385784,-5.126129,-4.141333,1.022893,7.058935,2.044251,45.789873,-2.995484,-7.104635,4.63583E+18,0.771933,0.432002,0.40002,-0.239746,0
-7.659933,-2.752176,4.216353,-1.217547,-0.688835,0.915062,46.672893,-4.149424,-4.224427,4.63583E+18,0.891927,0.027713,0.446887,0.063175,-25.82633,2.223435,12.960044,0.280166,2.420866,-0.928336,46.220709,5.202964,-0.114507,4.63583E+18,-0.707716,0.502247,-0.445712,-0.219608,-13.336885,-6.213835,-0.702439,0.521423,6.950292,1.545748,46.109745,-3.689999,-4.414796,4.63583E+18,0.760619,0.442998,0.418884,-0.223042,0
-6.38054,-3.322379,3.100292,-1.150806,-0.830157,0.851317,46.588116,-4.405084,-4.385335,4.63583E+18,0.893354,0.02525,0.443418,0.068281,-24.579588,6.128773,13.552721,-0.353205,2.204782,-0.650432,45.410572,6.179796,0.767385,4.63583E+18,-0.703459,0.506442,-0.450553,-0.213691,-13.916017,-9.253418,2.444591,0.341108,6.825122,1.11057,46.312409,-3.993878,-1.704426,4.63583E+18,0.748798,0.45217,0.437962,-0.207443,0
-5.08775,-3.726387,2.76263,-1.091644,-0.886973,0.787513,46.341064,-4.649925,-4.925608,4.63583E+18,0.894857,0.022905,0.439742,0.073033,-22.438565,10.235409,17.394887,-1.081675,1.725394,-0.264377,44.676552,6.704941,1.56884,4.63583E+18,-0.698163,0.511578,-0.454118,-0.211267,-13.42495,-12.381304,5.869643,0.602613,6.76755,0.777607,46.329909,-4.259935,0.980676,4.63583E+18,0.735686,0.461131,0.456902,-0.193301,0
-4.013061,-2.789661,2.781293,-1.035925,-0.638289,0.58001,46.257843,-4.986413,-5.394814,4.63583E+18,0.895928,0.020311,0.437014,0.076931,-17.113526,10.99946,25.408606,-0.911621,1.082054,-0.229578,44.450567,6.613001,2.2464,4.63583E+18,-0.694378,0.515559,-0.456011,-0.209983,-12.348619,-12.925062,9.790263,1.065483,6.684896,0.537244,46.164622,-4.635565,3.522385,4.63583E+18,0.721054,0.470618,0.475309,-0.18078,0
-3.643631,-1.949769,1.871664,-0.954142,-0.363293,0.355206,46.253853,-5.235826,-5.408548,4.63583E+18,0.896542,0.017525,0.435348,0.079863,-8.96065,11.143303,29.987221,-1.413546,0.343014,-0.409065,44.759034,6.647642,2.557066,4.63583E+18,-0.691051,0.520667,-0.454923,-0.210712,-11.650496,-11.062218,13.529893,1.449892,6.493141,0.303196,45.883516,-4.74695,6.115656,4.63583E+18,0.705305,0.480284,0.492936,-0.16996,0
-3.383243,-1.419642,0.12241,-0.937466,-0.402746,0.197462,46.253853,-5.099153,-5.41942,4.63583E+18,0.89726,0.014529,0.433544,0.082173,-1.336137,14.395396,28.911258,-3.091041,-0.452803,-0.123055,45.492069,6.435449,2.529249,4.63583E+18,-0.685271,0.529311,-0.450644,-0.21715,-11.724894,-9.564667,16.089649,1.777518,6.215391,0.016231,45.612184,-4.58623,8.469723,4.63583E+18,0.688739,0.48977,0.50972,-0.161087,0
-2.422893,-1.080041,-1.579764,-0.941815,-0.702785,0.105247,46.242309,-5.090487,-5.777854,4.63583E+18,0.898534,0.011452,0.430614,0.084127,4.148271,15.707961,24.92798,-4.542473,-1.060115,0.362627,46.071053,5.742715,2.456004,4.63583E+18,-0.676805,0.540494,-0.444264,-0.228978,-12.072619,-9.566168,17.907463,2.098824,5.922922,-0.305978,45.268378,-4.366516,10.711455,4.63583E+18,0.671436,0.498954,0.525746,-0.154305,0
-1.087355,-0.912031,-1.626256,-1.003698,-0.96226,0.063047,46.241642,-5.25204,-6.340871,4.63583E+18,0.900265,0.008158,0.426681,0.086021,7.137372,13.284401,14.353305,-5.371437,-1.32134,0.72974,45.78536,5.381145,2.319877,4.63583E+18,-0.666298,0.552838,-0.436979,-0.243858,-12.639913,-9.313538,19.938537,2.398894,5.548372,-0.651069,44.712182,-4.008767,13.05558,4.63583E+18,0.65366,0.507651,0.540899,-0.149824,0
0.198276,-0.995652,-0.539012,-0.970919,-0.977297,0.033626,45.999344,-5.192163,-6.637638,4.63583E+18,0.902003,0.004941,0.422691,0.087744,5.939551,-0.472139,6.275672,-3.825504,-1.763839,0.792404,45.396232,5.265749,1.895148,4.63583E+18,-0.659809,0.560092,-0.429992,-0.257011,-13.278889,-8.271358,21.776787,2.745758,5.141667,-0.964076,44.095907,-3.370002,15.190513,4.63583E+18,0.635464,0.516018,0.555051,-0.147744,0
0.718542,-0.793324,-0.660695,-0.87593,-0.807748,0.036083,45.823757,-5.118919,-7.022248,4.63583E+18,0.903413,0.002022,0.419362,0.089312,-1.614038,-12.990703,11.253144,-0.614545,-2.486862,0.994686,45.773988,4.667487,1.01224,4.63583E+18,-0.661746,0.557258,-0.424831,-0.266598,-13.286712,-7.306717,22.42984,3.117309,4.718264,-1.211562,43.497726,-2.467447,16.942703,4.63583E+18,0.616919,0.524232,0.568055,-0.148004,0
0.663886,-0.377447,-0.902166,-0.889722,-0.686854,0.043384,45.964376,-5.045674,-7.689795,4.63583E+18,0.904589,-0.000981,0.416473,0.090931,-5.288079,-4.69775,14.597682,1.726481,-2.799361,1.492293,45.921079,4.107122,-0.076485,4.63583E+18,-0.669,0.546642,-0.422486,-0.274091,-12.622918,-6.700385,21.656627,3.488368,4.258747,-1.395219,42.738582,-1.478678,18.500365,4.63583E+18,0.598185,0.532384,0.579725,-0.150534,0
0.613048,-0.307863,-1.1117,-0.943333,-0.828817,0.073072,46.042309,-4.960892,-7.911893,4.63583E+18,0.905977,-0.00408,0.413019,0.092755,-3.003707,4.535023,12.371067,3.075557,-2.971506,1.797727,45.47931,3.981947,-1.177687,4.63583E+18,-0.67908,0.531367,-0.421771,-0.280371,-11.331589,-5.399642,19.930426,3.740108,3.782385,-1.517863,41.945488,-0.535988,20.018443,4.63583E+18,0.57964,0.540279,0.590005,-0.154954,0
0.575761,-0.293649,-1.053862,-0.927199,-1.068591,0.103035,45.977105,-5.036961,-7.911068,4.63583E+18,0.907739,-0.006975,0.408654,0.094668,-0.429408,7.091638,12.038502,3.523574,-2.979917,2.12007,45.482212,3.360086,-2.4574,4.63583E+18,-0.68951,0.51403,-0.422096,-0.286679,-9.635825,-2.682606,17.55001,3.698246,3.299491,-1.641727,41.410967,0.57105,21.171786,4.63583E+18,0.562004,0.547186,0.599126,-0.16058,0
0.654503,0.295382,-0.161529,-0.887725,-1.104241,0.127896,45.811571,-4.960902,-8.279564,4.63583E+18,0.909522,-0.009663,0.404158,0.096606,1.149056,8.918157,9.880472,3.527342,-2.796025,2.52176,45.517512,2.234996,-3.696243,4.63583E+18,-0.698829,0.49596,-0.42362,-0.293611,-7.853624,0.305296,15.159974,3.367641,2.872909,-1.744645,41.054119,1.75342,21.927798,4.63583E+18,0.545875,0.552541,0.607444,-0.166527,0
0.751491,0.664157,0.374665,-0.788588,-1.032853,0.168614,45.790641,-4.817768,-8.854784,4.63583E+18,0.911143,-0.011935,0.399961,0.098528,0.400826,8.374888,6.608338,3.446441,-2.626064,2.827439,44.871616,1.274826,-4.699527,4.63583E+18,-0.706982,0.477563,-0.425976,-0.301089,-6.255258,3.385753,14.303958,2.853065,2.460783,-1.737712,40.48696,2.90546,22.643758,4.63583E+18,0.531788,0.556267,0.614954,-0.172047,0
0.860687,0.856661,0.933521,-0.626489,-1.072032,0.247621,45.859187,-4.728962,-9.256156,4.63583E+18,0.912779,-0.013444,0.395675,0.100479,-0.621721,7.00844,3.706518,3.408481,-2.460364,3.066819,44.47338,0.089965,-5.692478,4.63583E+18,-0.714133,0.458838,-0.429047,-0.30887,-5.333027,6.636041,14.532427,2.379355,2.036728,-1.636324,39.771269,4.006977,23.339313,4.63583E+18,0.519821,0.558756,0.621469,-0.177068,0
1.628041,0.370717,0.502982,-0.395339,-1.042258,0.397425,45.551768,-4.966501,-9.623679,4.63583E+18,0.914292,-0.013839,0.391597,0.102616,-1.593624,6.023251,1.615262,3.325032,-2.279452,3.239406,44.567665,-1.198532,-6.677854,4.63583E+18,-0.720243,0.44007,-0.432679,-0.316824,-4.976982,9.36648,13.907077,2.028785,1.637512,-1.456656,39.296278,5.042837,23.875867,4.63583E+18,0.50974,0.560554,0.626844,-0.181689,0
2.410477,-0.776819,-0.215845,-0.037295,-0.857734,0.551202,45.383697,-5.29199,-9.989815,4.63583E+18,0.91544,-0.012698,0.388377,0.104743,-2.349652,6.165867,0.108739,2.969074,-2.053164,3.264387,44.296628,-2.16419,-7.440697,4.63583E+18,-0.724943,0.42243,-0.436375,-0.324942,-4.657685,10.787358,12.801395,1.730057,1.20007,-1.216365,39.066308,6.048269,24.278407,4.63583E+18,0.501615,0.561942,0.630874,-0.186018,0
2.534413,-1.8456,-0.187163,0.371396,-0.768335,0.681805,45.44411,-5.552394,-10.263776,4.63583E+18,0.916391,-0.009825,0.385675,0.1067,-2.890245,6.630187,-0.921053,2.326341,-1.844357,3.147409,43.947435,-3.429176,-7.905137,4.63583E+18,-0.728022,0.407071,-0.439463,-0.333389,-4.53972,9.411284,12.560473,1.5504,0.684926,-0.964315,38.895411,6.765804,24.476089,4.63583E+18,0.495417,0.56317,0.633322,-0.190539,0
2.527609,-2.538542,-0.010151,0.728104,-0.668886,0.789849,45.448162,-5.797189,-10.543839,4.63583E+18,0.917127,-0.00546,0.383507,0.108489,-3.330877,5.250827,-1.760841,1.579259,-1.7259,2.98159,44.037233,-5.168928,-8.344769,4.63583E+18,-0.729638,0.394329,-0.441466,-0.342406,-3.810232,6.710131,11.635601,1.550457,0.286391,-0.725473,38.778123,7.207922,24.566094,4.63583E+18,0.490432,0.564679,0.634348,-0.195491,0
2.67683,-3.186884,-0.438163,0.959578,-0.447409,0.921886,45.21755,-6.202764,-10.720832,4.63583E+18,0.917427,-0.000099,0.382281,0.110403,-4.061844,2.283826,-2.059893,0.912248,-1.626593,2.825815,44.022874,-6.559624,-9.030257,4.63583E+18,-0.730032,0.383955,-0.442462,-0.351936,-3.568399,4.260808,11.150391,1.613051,-0.046651,-0.550281,38.784598,7.64759,24.528979,4.63583E+18,0.486296,0.566478,0.634198,-0.201024,0
2.616437,-2.784539,-0.325498,1.249503,-0.043225,1.003958,45.054099,-6.698587,-10.695712,4.63583E+18,0.917009,0.006315,0.382719,0.112163,-4.97916,-0.060121,-2.642808,0.310227,-1.493059,2.691759,43.730686,-7.440744,-9.793433,4.63583E+18,-0.72928,0.375785,-0.442686,-0.361891,-1.274132,5.749441,9.066497,1.574352,-0.298482,-0.328211,38.837969,8.169589,24.304241,4.63583E+18,0.48308,0.568548,0.633015,-0.20659,0
2.139626,-1.398253,-0.940049,1.303086,0.479128,1.014385,45.126034,-7.037608,-10.589909,4.63583E+18,0.915709,0.012707,0.385158,0.113884,-5.95078,-1.843621,-3.561121,-0.330549,-1.373479,2.548866,43.431226,-8.345184,-10.40693,4.63583E+18,-0.727406,0.369947,-0.442012,-0.372351,-1.005433,9.699351,7.053084,2.512517,-0.719518,-0.092817,38.840846,8.718922,23.835112,4.63583E+18,0.478915,0.572716,0.629565,-0.215136,0
1.281678,-0.718808,-1.991285,1.374893,0.61034,0.985482,45.142302,-7.355675,-10.387799,4.63583E+18,0.914159,0.019264,0.388112,0.115378,-6.777333,-5.179298,-3.587545,-0.926809,-1.325433,2.300428,43.024117,-9.317425,-11.014094,4.63583E+18,-0.724805,0.366397,-0.440113,-0.383029,-1.742782,50.58454,-20.916769,3.259425,-0.166145,1.465511,38.969607,9.023175,23.376245,4.63583E+18,0.472832,0.58286,0.622724,-0.221175,0
0.056968,0.492365,-3.030827,1.267001,0.162358,0.93635,44.993096,-7.915145,-10.168767,4.63583E+18,0.91332,0.025545,0.389292,0.116816,-7.655,-10.792178,-2.177502,-1.186268,-1.329206,1.894184,42.561187,-10.074124,-11.633342,4.63583E+18,-0.722373,0.364323,-0.437111,-0.392913,-17.208247,72.532641,-21.838687,-1.387377,-1.936722,2.978063,39.350139,8.599865,22.993296,4.63583E+18,0.48391,0.586004,0.612855,-0.216425,0
-0.784567,1.506816,-2.719585,1.43189,-0.527047,0.771164,45.064975,-8.419657,-10.133504,4.63583E+18,0.913619,0.03252,0.387928,0.117277,-8.69083,-16.04034,-0.938233,-1.152062,-1.331911,1.381101,42.291207,-10.619152,-12.207058,4.63583E+18,-0.720764,0.363039,-0.433332,-0.401155,-31.074675,15.049505,15.426641,-5.19515,-3.075188,1.201376,39.987065,7.30236,22.438717,4.63583E+18,0.505367,0.57564,0.608185,-0.208215,0
-1.890649,2.922812,1.17546,1.239257,-1.295387,0.642566,45.000565,-8.839464,-10.293532,4.63583E+18,0.915198,0.038928,0.38354,0.117448,-10.111631,-19.47474,-0.798254,-1.280533,-1.492316,0.84957,42.024903,-10.880116,-12.786475,4.63583E+18,-0.72008,0.362804,-0.428016,-0.408242,-17.781907,-24.633898,28.664,-3.441366,-2.028561,-0.3661,40.558671,6.165817,21.8408,4.63583E+18,0.518371,0.565635,0.607673,-0.20514,0
-1.595784,4.570972,5.404432,0.603868,-1.584534,0.590152,44.6045,-9.254562,-10.821856,4.63583E+18,0.917314,0.042968,0.377723,0.11838,-11.847193,-21.665785,-0.954181,-1.696674,-1.881485,0.349353,41.62206,-10.925626,-13.503668,4.63583E+18,-0.720243,0.364012,-0.420027,-0.415118,-16.405763,-4.30218,24.958167,-1.641467,-1.572681,0.221175,40.881592,5.755459,21.332885,4.63583E+18,0.526385,0.561288,0.605112,-0.20424,0
-0.595014,6.219287,4.763816,0.562144,-0.508767,0.389804,44.270227,-9.51968,-11.290384,4.63583E+18,0.917812,0.046,0.376021,0.118801,-12.818028,-22.690885,-0.51899,-2.278607,-2.282378,-0.213448,41.293407,-10.771583,-14.552913,4.63583E+18,-0.721094,0.367205,-0.408912,-0.421871,-26.15064,5.065355,15.491076,-2.080948,-2.196008,0.166676,41.20542,5.563026,20.734279,4.63583E+18,0.536885,0.55524,0.60161,-0.203783,0
-1.459222,7.33706,0.170734,0.761537,0.303989,0.302484,44.413204,-9.603139,-11.131843,4.63583E+18,0.91703,0.049256,0.377536,0.118729,-10.948062,-20.720024,-2.394642,-3.152523,-2.465065,-0.863039,41.0835,-10.282278,-15.770264,4.63583E+18,-0.721893,0.373724,-0.394623,-0.428339,-19.354176,-6.633943,19.949939,-2.167129,-2.378386,-0.053136,41.591448,5.197873,20.124217,4.63583E+18,0.547765,0.548198,0.598182,-0.203989,0
-3.577156,8.354476,-0.005439,0.726941,0.010314,0.225389,44.503435,-9.768612,-10.844282,4.63583E+18,0.916744,0.052402,0.377924,0.118354,-6.928297,-21.563135,-3.151291,-3.686097,-2.704525,-1.552634,40.827029,-9.416918,-16.94788,4.63583E+18,-0.723237,0.382424,-0.37745,-0.433834,-10.854238,-9.933599,21.978418,-1.90079,-2.527075,-0.219662,41.920816,4.937598,19.611756,4.63583E+18,0.558168,0.541125,0.594463,-0.205541,0
-5.254705,8.088204,0.910467,0.532603,-0.334327,0.090011,44.439043,-10.008628,-10.724243,4.63583E+18,0.917103,0.054763,0.376925,0.11769,-6.518147,-31.546304,4.470827,-3.108751,-2.772723,-2.049826,40.512963,-8.290593,-18.086301,4.63583E+18,-0.726228,0.389895,-0.360176,-0.436861,-19.608093,-7.292179,20.819888,-1.519825,-3.258017,-0.398719,42.305646,4.84469,18.714677,4.63583E+18,0.569256,0.533759,0.589003,-0.210058,0
-6.683712,8.138242,3.949292,0.170328,-0.490701,-0.089183,44.434948,-10.172099,-10.890971,4.63583E+18,0.917872,0.055534,0.375189,0.116875,-3.904085,-18.918999,-9.734036,-3.074728,-1.955716,-1.527682,40.278635,-7.164382,-19.035817,4.63583E+18,-0.726866,0.397842,-0.346168,-0.439948,-34.193155,-9.868237,20.118355,-0.864182,-3.654411,-0.024242,42.74508,4.730083,17.50604,4.63583E+18,0.580053,0.528393,0.581057,-0.216128,0
-8.791499,7.566032,9.554906,-0.217566,-0.321323,-0.23549,44.423422,-10.111818,-10.99342,4.63583E+18,0.918534,0.054509,0.373944,0.116146,-0.081769,12.450365,-32.065174,-2.982339,-2.000913,-1.064802,40.049098,-5.970366,-19.880625,4.63583E+18,-0.72669,0.404656,-0.332871,-0.444265,-56.656294,-8.306385,12.230699,-0.726094,-3.768298,1.243496,43.238136,4.346322,16.20727,4.63583E+18,0.591811,0.526187,0.569769,-0.21966,0
-10.835818,6.898179,12.710555,-0.50344,-0.187818,-0.214297,44.272937,-9.796597,-11.010394,4.63583E+18,0.919038,0.052358,0.373065,0.115973,-5.145482,15.72736,-26.90213,-2.976009,-2.604235,-1.845876,39.700716,-4.634132,-20.823839,4.63583E+18,-0.728601,0.411303,-0.316347,-0.447096,-62.688258,-12.581412,9.465307,-0.642652,-2.890857,2.256779,43.824266,3.57651,14.937932,4.63583E+18,0.602075,0.527257,0.558197,-0.21891,0
-11.480175,5.489127,14.411589,-0.559456,-0.347913,0.00828,44.252521,-9.77813,-11.379866,4.63583E+18,0.91969,0.050416,0.371494,0.116705,-12.849885,-7.098931,-29.13815,-4.715489,-2.139229,-2.536683,39.181455,-3.337016,-21.818277,4.63583E+18,-0.727877,0.42482,-0.296668,-0.449122,-31.879986,-10.217053,-3.003755,-0.210421,-1.774485,2.520362,44.247794,2.653482,13.950058,4.63583E+18,0.608912,0.530934,0.54834,-0.216007,0
-10.820097,5.857344,12.566239,-0.620334,0.153437,-0.0341,44.48233,-9.789655,-11.678309,4.63583E+18,0.919593,0.04793,0.371822,0.117474,-26.812711,-22.780781,-34.313675,-5.284037,-1.643621,-2.15514,38.616697,-2.097562,-22.636834,4.63583E+18,-0.724392,0.440266,-0.277927,-0.451861,-6.722394,6.994157,-8.586205,-0.695448,-1.624211,2.347291,44.415252,1.771702,13.283772,4.63583E+18,0.616227,0.533037,0.539597,-0.212067,0
-14.143553,5.883968,14.479419,-0.62279,0.610178,-0.296486,44.645771,-9.548376,-11.429687,4.63583E+18,0.917914,0.041738,0.374302,0.12486,-32.900865,-19.388976,-33.063233,-4.052578,-0.895691,-1.473847,38.360558,-0.8133,-23.019142,4.63583E+18,-0.720676,0.452408,-0.26488,-0.453644,-1.179562,13.911885,-3.184678,-1.409299,-1.514449,2.010055,44.508355,0.863635,12.85228,4.63583E+18,0.624491,0.532566,0.532436,-0.207113,0
-17.258717,0.779807,13.6207,-0.418074,0.782739,-0.183863,44.666204,-9.372676,-10.976093,4.63583E+18,0.916852,0.039464,0.377144,0.124852,-21.865715,-22.066805,-32.292257,-2.366759,0.019908,-1.465618,38.516898,0.438224,-23.049995,4.63583E+18,-0.718944,0.461103,-0.257721,-0.451757,1.903693,10.280297,-1.081054,-1.645083,-1.440141,1.620668,44.697796,-0.007423,12.429451,4.63583E+18,0.632693,0.530609,0.526464,-0.202455,0
-21.87959,-5.584382,14.921998,-0.627691,2.203927,0.296582,44.678411,-9.43221,-10.489168,4.63583E+18,0.913292,0.036403,0.385206,0.127235,-18.481589,-21.841767,-19.137792,-0.823927,0.126723,-1.388218,38.741455,1.283541,-23.056556,4.63583E+18,-0.719852,0.465254,-0.253911,-0.448198,5.857639,9.668041,1.852483,-1.627468,-1.332834,1.218407,44.934285,-0.608035,11.835566,4.63583E+18,0.640208,0.527846,0.52159,-0.198635,0
-27.746518,-11.097727,14.00002,-0.881954,2.947625,0.522411,44.840478,-9.655342,-9.723994,4.63583E+18,0.908338,0.032341,0.39588,0.130981,-38.176496,-13.123174,27.975432,0.14279,-0.905683,-1.335597,38.739751,1.784017,-23.296695,4.63583E+18,-0.723596,0.464499,-0.248901,-0.445755,6.902416,9.571639,3.958923,-1.601965,-1.229254,0.668961,45.0668,-1.071951,11.355344,4.63583E+18,0.64693,0.523994,0.518132,-0.19609,0
-36.111811,-15.194318,15.900558,-0.800352,2.184648,0.69647,45.022915,-9.737429,-8.781313,4.63583E+18,0.904412,0.029288,0.403634,0.135129,-59.978071,11.889537,59.287712,-1.207088,-0.714057,-1.398323,38.717023,2.364269,-23.608336,4.63583E+18,-0.724604,0.468209,-0.241827,-0.444126,0.743981,11.821805,6.102406,-1.733516,-1.459273,0.182187,45.147684,-1.535784,11.042697,4.63583E+18,0.653982,0.518505,0.515182,-0.195057,0
-41.450262,-15.164342,16.396526,-0.971219,2.007245,0.616274,45.044639,-9.72998,-8.00205,4.63583E+18,0.900763,0.025555,0.410595,0.139228,-44.314348,10.750481,11.553914,-2.735515,0.353823,-1.467686,39.131348,2.841922,-23.536628,4.63583E+18,-0.721599,0.478524,-0.234985,-0.441692,-12.3206,11.345067,11.080743,-1.559593,-1.592584,-0.060834,45.3096,-1.655507,10.517247,4.63583E+18,0.66069,0.512814,0.512207,-0.195331,0
-35.905511,-15.863931,9.492491,-1.109698,0.508106,-0.38333,45.125994,-9.809975,-7.682629,4.63583E+18,0.900218,0.020461,0.411932,0.139643,-14.356407,-28.261581,-23.884899,-1.507106,0.291462,-1.424222,39.737586,3.138149,-23.146014,4.63583E+18,-0.720937,0.48493,-0.230273,-0.438254,-21.49605,5.339074,11.36976,-1.005141,-1.243613,-0.209834,45.478891,-1.623585,9.907016,4.63583E+18,0.665304,0.508582,0.510027,-0.196438,0
-29.485899,-13.07082,13.41613,-1.130394,0.002248,-0.901097,45.199926,-9.572703,-7.677775,4.63583E+18,0.900816,0.014695,0.41139,0.138106,-3.25203,-19.979961,-6.20701,-0.276853,0.404408,-1.048984,39.792053,3.742005,-22.949106,4.63583E+18,-0.721932,0.487463,-0.228895,-0.434513,-19.027625,2.471933,1.721297,-0.578403,-0.828562,-0.317754,45.480092,-1.715338,9.463295,4.63583E+18,0.668021,0.505626,0.508861,-0.197866,0
-29.265163,-6.55305,18.040198,-1.094865,2.632743,-1.304362,45.284689,-8.936056,-7.263563,4.63583E+18,0.89704,0.006855,0.420724,0.135142,1.198233,-2.939651,13.487105,-0.437964,0.678426,-0.705248,39.359096,4.61117,-22.927943,4.63583E+18,-0.721701,0.490637,-0.228743,-0.431393,-9.832526,2.912477,-4.540764,-0.505316,-0.614524,-0.396119,45.394636,-1.678316,9.204113,4.63583E+18,0.670055,0.502875,0.508387,-0.199211,0
-33.537506,-2.604277,12.697875,-1.015067,3.25589,-1.197562,45.531486,-8.495831,-6.259387,4.63583E+18,0.891931,-0.000851,0.432345,0.132428,4.498091,-6.029577,19.728784,-1.005474,0.875951,-0.182383,39.153211,5.20767,-22.666718,4.63583E+18,-0.719163,0.495362,-0.229228,-0.429971,-5.571823,4.814753,-1.72889,-0.525658,-0.535753,-0.51705,45.446816,-1.424786,8.947631,4.63583E+18,0.671855,0.49987,0.508397,-0.200683,0
-38.618958,-5.50433,8.908678,-1.037695,2.23171,-0.817812,45.937662,-8.229919,-5.221758,4.63583E+18,0.888302,-0.007391,0.440074,0.131146,1.210487,-7.951819,18.183657,-1.216333,1.055018,0.383064,39.379418,5.383465,-22.184963,4.63583E+18,-0.714979,0.50048,-0.231029,-0.430059,-9.011707,5.686929,3.742071,-0.404726,-0.310151,-0.725707,45.542859,-1.206812,8.777003,4.63583E+18,0.67274,0.496943,0.509365,-0.202523,0
-38.259685,-10.482366,9.164813,-1.017125,0.516815,-0.546722,46.041537,-7.892928,-4.818031,4.63583E+18,0.887606,-0.01242,0.441444,0.130874,-2.950525,-10.777886,10.983582,-1.116805,1.357021,0.838604,39.67486,5.343595,-21.787799,4.63583E+18,-0.709855,0.505376,-0.234845,-0.430754,-13.362289,5.520583,5.604432,-0.114519,-0.040968,-0.956941,45.616107,-1.002241,8.794016,4.63583E+18,0.672249,0.494559,0.511313,-0.205066,0
-33.358558,-9.603079,13.19075,-0.951278,0.512485,-0.4422,45.885001,-7.481984,-4.72837,4.63583E+18,0.886842,-0.017011,0.442828,0.130865,-6.338622,-12.317613,4.446105,-0.723431,1.762082,1.133208,39.839244,5.030347,-21.358157,4.63583E+18,-0.704581,0.509509,-0.241167,-0.43105,-15.505187,8.147946,4.095672,0.111687,0.068277,-1.164138,45.635837,-0.571505,8.818307,4.63583E+18,0.670868,0.49245,0.513792,-0.208441,0
-30.661781,-9.142237,15.47904,-0.872843,1.939565,-0.337064,45.886945,-7.297417,-4.274912,4.63583E+18,0.883346,-0.021895,0.449513,0.130992,-9.518925,-11.281136,6.622151,-0.323704,2.229549,1.346938,40.163852,4.530684,-20.681175,4.63583E+18,-0.69923,0.513041,-0.250009,-0.430536,-16.864669,9.073342,2.536218,0.129971,0.113686,-1.347015,45.570118,0.11539,8.867258,4.63583E+18,0.669174,0.490027,0.516742,-0.212268,0
-31.163808,-9.360918,12.305429,-0.722204,2.267135,-0.210132,46.129617,-7.28782,-3.522215,4.63583E+18,0.879101,-0.026162,0.457457,0.131263,-12.892823,-11.03016,13.060461,-0.166735,2.642666,1.621066,40.772487,4.235207,-19.808867,4.63583E+18,-0.693193,0.516498,-0.260885,-0.429712,-16.836113,7.299128,1.278775,-0.022928,0.14382,-1.473619,45.472469,0.693285,8.899197,4.63583E+18,0.667592,0.486914,0.520152,-0.21605,0
-31.951045,-8.78767,9.551884,-0.585486,1.671624,-0.032568,46.305291,-7.195645,-2.672578,4.63583E+18,0.875841,-0.029262,0.46328,0.131977,-14.065257,-9.805507,17.176288,-0.057513,3.090333,1.960828,41.322744,3.837452,-18.695719,4.63583E+18,-0.686156,0.519968,-0.273928,-0.428704,-15.813495,7.766093,0.284503,-0.379935,0.10246,-1.616689,45.435955,1.065434,8.891554,4.63583E+18,0.666666,0.48244,0.524036,-0.21953,0
-30.589943,-8.372489,9.526441,-0.496207,1.753289,0.155005,46.095973,-7.017333,-1.725891,4.63583E+18,0.872282,-0.031716,0.469446,0.133186,-14.443586,-11.028739,17.333191,0.14293,3.554227,2.355584,41.664528,3.052261,-17.466069,4.63583E+18,-0.67813,0.523101,-0.289435,-0.427473,-14.499455,9.610457,0.507429,-0.770889,0.029571,-1.820613,45.520014,1.573845,8.818214,4.63583E+18,0.66646,0.476341,0.528455,-0.222857,0
-29.584556,-8.119428,8.243539,-0.36432,2.041584,0.398447,46.094468,-7.076181,-1.027193,4.63583E+18,0.867982,-0.033371,0.476734,0.134973,-15.693695,-13.541806,17.6171,0.593322,4.021585,2.763184,42.160001,1.98304,-16.14536,4.63583E+18,-0.669546,0.525108,-0.307845,-0.425676,-12.597501,9.841596,1.322213,-1.017715,0.003204,-2.150553,45.608443,2.29573,8.884099,4.63583E+18,0.66644,0.468766,0.533641,-0.22659,0
-28.896085,-7.783144,6.231321,-0.093664,2.02304,0.627017,46.337083,-7.391346,-0.527983,4.63583E+18,0.863561,-0.033579,0.484102,0.137041,-19.34358,-13.440812,19.071264,1.210266,4.41357,3.304077,42.837062,0.69812,-14.577296,4.63583E+18,-0.660524,0.525141,-0.329476,-0.423534,-11.58145,9.411609,2.112678,-1.141408,-0.048284,-2.69612,45.470792,3.268115,9.062658,4.63583E+18,0.666178,0.459528,0.539802,-0.231635,0
-27.303055,-7.521981,4.929314,0.253667,1.95743,0.794049,46.132622,-7.548138,0.225278,4.63583E+18,0.859157,-0.032159,0.491418,0.139005,-26.308479,-11.18251,19.806202,1.923895,4.64857,4.070935,43.406835,-0.712059,-12.85947,4.63583E+18,-0.650962,0.522235,-0.354478,-0.42174,-12.570667,9.302041,3.09253,-1.308008,-0.148574,-3.420921,45.260307,4.255129,9.123497,4.63583E+18,0.665634,0.448013,0.547129,-0.238464,0
-25.032957,-7.311707,3.95996,0.643393,1.834695,0.804255,45.831561,-7.78679,1.005865,4.63583E+18,0.854985,-0.029248,0.498484,0.140212,-35.449752,-4.415904,16.511568,2.606569,4.695044,5.094093,43.664227,-2.560651,-11.038188,4.63583E+18,-0.640471,0.515609,-0.382732,-0.42126,-16.571374,9.057571,3.893149,-1.58205,-0.357249,-4.302076,45.214725,5.335602,8.981415,4.63583E+18,0.665002,0.433388,0.555631,-0.247429,0
-22.391969,-7.081167,3.641433,1.071643,1.77015,0.739809,45.975649,-8.180656,1.706417,4.63583E+18,0.850967,-0.024904,0.505521,0.140295,-44.279401,7.248546,7.739001,2.821401,4.589216,6.265408,43.718743,-4.92616,-9.294893,4.63583E+18,-0.627869,0.505807,-0.413185,-0.423343,-24.106242,5.786768,3.316294,-2.034597,-0.698486,-5.224528,45.045076,6.996454,8.937395,4.63583E+18,0.664719,0.414823,0.565065,-0.258403,0
-19.684698,-6.757077,3.879014,1.383172,1.70725,0.682535,45.996805,-8.502866,2.298565,4.63583E+18,0.847073,-0.019536,0.512467,0.139509,-48.975472,21.503015,-3.705227,2.325365,4.341766,7.417118,43.745645,-7.587792,-7.61133,4.63583E+18,-0.611809,0.494235,-0.444011,-0.429274,-34.978027,-4.268453,1.417925,-2.423587,-0.981226,-6.245965,44.652612,9.034459,8.891435,4.63583E+18,0.664225,0.392193,0.575518,-0.271603,0
-17.66601,-7.279809,6.094003,1.585774,1.862925,0.545307,45.859284,-8.589873,3.241496,4.63583E+18,0.842858,-0.013834,0.520015,0.137777,-49.606608,39.100197,-12.787791,1.313576,4.004634,7.673129,43.466083,-10.511755,-5.82253,4.63583E+18,-0.593001,0.483498,-0.472092,-0.437845,-45.034377,-21.419906,-3.700425,-2.523071,-0.987605,-7.595763,44.047949,11.229282,8.651569,4.63583E+18,0.661743,0.365668,0.587719,-0.288046,0
-14.2833,-7.150991,5.5808,1.742,1.588271,0.248047,45.712797,-8.651599,4.125253,4.63583E+18,0.839331,-0.008069,0.526617,0.134661,-61.958338,54.239562,-14.036518,-2.236521,3.064748,7.336746,42.772094,-13.447187,-4.580681,4.63583E+18,-0.568757,0.479872,-0.490103,-0.453913,-59.289757,-41.3514,-9.874185,-1.720732,-0.420966,-8.739862,43.099855,13.816309,8.586494,4.63583E+18,0.654448,0.338775,0.601524,-0.308381,0
-9.687691,-5.597998,4.378902,1.765811,1.075421,-0.256035,45.635415,-8.655049,4.716251,4.63583E+18,0.837139,-0.003037,0.531374,0.129733,-82.470009,30.274856,0.08165,-2.100204,1.695567,6.991028,41.948564,-16.092288,-4.140125,4.63583E+18,-0.547618,0.473525,-0.503906,-0.471134,-67.939882,-51.737539,-16.71502,-0.267919,0.631129,-9.315499,41.848378,16.935752,8.840121,4.63583E+18,0.640779,0.315262,0.616273,-0.331993,0
-4.229762,-3.144469,3.479959,1.997497,0.515628,-0.280157,45.550652,-8.413183,4.829302,4.63583E+18,0.83614,0.003051,0.534261,0.124204,-40.56625,-68.774503,24.304784,7.740447,2.140751,4.833364,41.24926,-18.014591,-3.060832,4.63583E+18,-0.548506,0.449542,-0.533148,-0.46131,-83.452356,-35.319866,-10.212213,0.327542,1.909561,-9.105572,40.261012,20.248372,9.377578,4.63583E+18,0.62237,0.295168,0.632405,-0.354394,3
-1.408684,0.27826,7.505977,1.980093,-0.192102,-0.138817,45.707007,-8.168428,4.903211,4.63583E+18,0.836582,0.009758,0.534631,0.119185,27.785122,-127.969643,28.027162,12.946532,3.268076,3.600239,40.728387,-19.250125,-0.305009,4.63583E+18,-0.55767,0.417485,-0.571358,-0.433889,-65.945519,57.322117,-7.690289,-5.082083,2.411349,-6.425971,38.733952,22.440542,10.636098,4.63583E+18,0.612384,0.268441,0.653655,-0.354487,3
-3.399041,2.122648,17.815286,3.661759,-1.777369,-0.412417,45.866414,-7.924258,4.803747,4.63583E+18,0.840473,0.0225,0.530222,0.109379,30.688407,-36.631706,-8.407535,9.780376,2.204588,3.541082,40.126413,-20.314609,2.764689,4.63583E+18,-0.56249,0.389889,-0.599772,-0.414566,-1.018728,123.127993,-20.969768,-11.148474,1.558916,-2.778275,37.727652,22.842805,12.978019,4.63583E+18,0.615784,0.234436,0.676431,-0.329075,3
-2.998273,11.502421,23.026764,2.838184,-4.833435,-0.807214,45.92148,-7.691622,3.611518,4.63583E+18,0.851015,0.032865,0.514545,0.099677,7.626297,74.267623,-27.62439,4.689407,-1.019943,1.281103,39.553161,-21.095555,4.152857,4.63583E+18,-0.570325,0.373825,-0.607456,-0.407409,28.311734,55.836187,-37.572667,-10.805928,0.230396,0.185623,37.409536,21.855847,15.458556,4.63583E+18,0.625312,0.20733,0.690964,-0.297603,3
11.964302,19.209693,30.970738,-1.978867,-6.909457,-1.162352,46.05088,-7.321594,1.525596,4.63583E+18,0.866187,0.026223,0.489177,0.098688,-3.07622,68.215852,8.927806,-1.321596,-3.596227,-2.017288,39.532059,-21.090086,3.398631,4.63583E+18,-0.580702,0.375878,-0.593448,-0.411486,8.653823,-54.411994,-30.045648,-3.973567,-0.863024,2.516157,37.765767,20.455075,16.565862,4.63583E+18,0.634218,0.203122,0.691332,-0.280301,3
35.222039,14.680233,38.720877,-3.440069,-4.753774,-0.298065,46.242719,-6.862588,-1.04811,4.63583E+18,0.876112,0.015161,0.47052,0.103964,3.246807,-9.282957,28.266378,-4.437495,-3.321617,-3.724195,40.076977,-20.146077,1.698556,4.63583E+18,-0.588129,0.389952,-0.571766,-0.418479,-11.39511,-43.299453,12.943337,3.207556,-1.367188,5.483832,38.684835,19.124669,16.054748,4.63583E+18,0.641606,0.225732,0.67908,-0.276111,3
41.535454,13.378696,22.76693,-1.329013,0.581555,-0.020967,46.161749,-6.697991,-1.933153,4.63583E+18,0.875047,0.010031,0.472088,0.10642,-1.655573,-18.924511,6.429903,-6.386562,-2.457187,-2.894246,40.750901,-18.830843,0.050557,4.63583E+18,-0.588379,0.407995,-0.549658,-0.430379,-5.077979,21.712629,23.983313,5.816419,-1.381141,6.464354,39.826224,18.021771,14.760441,4.63583E+18,0.64704,0.257835,0.662162,-0.276408,3
28.494384,10.222018,2.452288,-0.834821,4.659825,-0.303578,46.179213,-6.747208,-0.619389,4.63583E+18,0.865878,0.004338,0.488655,0.107021,-14.670331,25.544602,-15.846695,-8.786218,-2.207826,-2.364567,41.277667,-17.680694,-2.000866,4.63583E+18,-0.582305,0.430648,-0.524079,-0.448112,-3.106388,2.860101,0.244689,7.241633,-0.98871,5.729789,40.80254,16.941277,13.449867,4.63583E+18,0.648096,0.291838,0.644507,-0.281803,3
10.235002,2.770748,0.579578,-1.486713,5.57177,-0.023365,46.295722,-6.87732,1.638542,4.63583E+18,0.854319,-0.003541,0.50798,0.109923,-12.689974,30.079346,-18.423696,-9.968836,-2.063852,-2.217095,41.527058,-16.707322,-4.430192,4.63583E+18,-0.572535,0.455384,-0.496015,-0.467758,-9.713141,-26.740535,-10.466397,8.208636,-0.773063,5.280083,41.661559,15.653269,12.041287,4.63583E+18,0.645846,0.327032,0.625826,-0.290302,3
-6.268537,1.583363,-8.430375,-1.398522,0.667465,-0.004333,46.153032,-6.643233,2.299605,4.63583E+18,0.852868,-0.008818,0.509733,0.112744,-5.543096,8.958837,-10.923593,-9.062022,-1.465681,-1.470825,41.634398,-15.739782,-6.489044,4.63583E+18,-0.560831,0.476816,-0.471718,-0.485384,-9.315036,-18.242147,-4.569249,7.052855,-0.503651,4.99021,42.416775,14.51065,10.703257,4.63583E+18,0.64316,0.358204,0.608731,-0.295773,3
-3.875928,0.00728,-13.611041,-0.97478,-2.198689,-0.129158,46.063413,-6.559559,1.790636,4.63583E+18,0.857517,-0.011506,0.50146,0.11432,-1.59685,-5.394605,-9.795242,-6.770032,-0.633285,-0.176882,41.712696,-15.044807,-7.916422,4.63583E+18,-0.548784,0.49149,-0.456024,-0.499316,-5.76831,-6.018754,-0.062751,4.467948,-0.109024,4.078302,43.020892,13.662478,9.821798,4.63583E+18,0.641586,0.380278,0.596647,-0.296258,3
-0.18729,-0.695413,-5.559721,-0.566919,0.074715,0.251984,46.196637,-6.797058,1.216957,4.63583E+18,0.857209,-0.013024,0.501497,0.116293,-0.139117,-3.869392,-10.369491,-4.211706,0.064151,1.123508,41.678611,-14.862936,-8.756836,4.63583E+18,-0.537636,0.49902,-0.44965,-0.509649,-2.756676,-9.462434,-1.23657,2.237997,0.360226,2.61577,43.386828,12.943903,9.517133,4.63583E+18,0.640302,0.393176,0.590634,-0.294242,3
-5.396798,-1.089254,-3.500014,-0.460096,1.555609,0.166813,46.377673,-7.110991,1.563948,4.63583E+18,0.853831,-0.015054,0.506857,0.117654,-0.522284,-0.416152,-9.667045,-1.531584,0.586448,2.106358,41.491745,-15.055247,-9.109868,4.63583E+18,-0.528874,0.499703,-0.452077,-0.515962,0.913878,-16.822657,-2.588314,0.923106,0.787753,0.991015,43.543875,12.393239,9.66847,4.63583E+18,0.638047,0.399042,0.58996,-0.292588,3
-10.650999,-3.286019,-2.001803,-0.359365,1.77537,0.122963,46.169468,-7.278737,2.32352,4.63583E+18,0.849972,-0.016925,0.513019,0.118626,0.224508,0.391897,-9.338309,1.109639,0.89706,2.743732,41.106205,-15.789223,-8.837451,4.63583E+18,-0.523578,0.493961,-0.462127,-0.517984,2.255094,-18.858869,-0.838607,0.084397,0.983562,-0.516653,43.588067,12.166143,9.953809,4.63583E+18,0.634848,0.399199,0.593317,-0.292546,3
-14.471679,-4.914194,-2.814235,-0.343487,0.752634,-0.03035,45.92602,-7.126699,2.909142,4.63583E+18,0.848347,-0.01856,0.515539,0.119089,1.721576,-1.682634,-7.849245,3.305624,1.242231,3.225472,40.648033,-17.074399,-7.921017,4.63583E+18,-0.52095,0.483107,-0.478529,-0.515973,1.357289,-18.904759,0.783269,-0.674086,0.988541,-1.66212,43.394067,12.569486,10.349118,4.63583E+18,0.631471,0.394506,0.59949,-0.293636,3
-11.209901,-5.269734,-7.575767,-0.324749,-2.89592,-0.213733,45.912045,-7.036356,2.38957,4.63583E+18,0.854584,-0.018711,0.505117,0.119136,1.143289,-3.195354,-5.831006,4.783775,1.830229,3.597464,40.230438,-18.627873,-6.469957,4.63583E+18,-0.519041,0.469307,-0.499875,-0.510365,1.12788,-17.724008,0.153269,-1.488288,0.950232,-2.456072,43.023233,13.311098,10.820615,4.63583E+18,0.628483,0.385595,0.607793,-0.294811,3
-4.79721,-5.262794,-6.377312,-0.27029,-6.391671,-0.021952,46.027103,-6.985441,0.538103,4.63583E+18,0.867719,-0.016524,0.482074,0.119977,-0.861406,-3.512312,-5.782087,5.603592,2.393037,3.77342,39.812303,-20.147369,-4.666862,4.63583E+18,-0.516778,0.454195,-0.524131,-0.50193,0.582261,-14.869684,-1.58961,-2.159193,0.964562,-3.002702,42.528746,14.072527,11.357798,4.63583E+18,0.625735,0.373481,0.617712,-0.295633,3
-1.576833,-3.696429,2.884326,-0.088821,-5.104395,0.015558,46.011105,-6.856057,-1.551958,4.63583E+18,0.87776,-0.014241,0.463498,0.120434,-3.159804,-2.846688,-6.664337,5.777577,2.706994,3.729067,39.22927,-21.535716,-2.771838,4.63583E+18,-0.513773,0.439042,-0.54886,-0.491967,-0.867572,-11.545003,-3.399126,-2.590169,1.044033,-3.328339,41.872551,14.88278,11.870417,4.63583E+18,0.62287,0.359397,0.628696,-0.295985,3
-0.621365,-1.840589,8.217959,-0.012528,-1.87948,-0.113804,45.90614,-6.710267,-2.949709,4.63583E+18,0.881418,-0.013545,0.456626,0.120051,-4.717934,-1.617208,-5.380106,5.453045,2.781707,3.47425,38.554446,-22.923944,-0.836537,4.63583E+18,-0.510057,0.424922,-0.572121,-0.481622,-1.932151,-8.925631,-4.007046,-2.884254,1.120783,-3.490627,41.259241,15.725053,12.522096,4.63583E+18,0.619825,0.344093,0.640265,-0.295768,3
-3.415675,-1.100634,7.519063,0.301536,-0.161493,-0.17412,46.049412,-6.701864,-3.303575,4.63583E+18,0.881826,-0.01267,0.456202,0.118748,-5.040571,-0.537206,-0.6244,4.788634,2.669384,3.071859,37.920551,-24.125945,1.006985,4.63583E+18,-0.505844,0.412617,-0.592657,-0.471834,-2.846333,-6.513001,-2.964118,-3.146619,1.067156,-3.520739,40.717545,16.521552,13.637814,4.63583E+18,0.617017,0.32783,0.651811,-0.294889,3
-6.626115,-0.475324,2.557886,0.446273,-0.496178,-0.16926,46.12756,-6.632839,-3.596517,4.63583E+18,0.882872,-0.011089,0.454618,0.117206,-4.280533,-0.210954,5.31839,3.852196,2.360275,2.704517,37.233874,-24.786913,2.656053,4.63583E+18,-0.501207,0.402343,-0.609723,-0.463842,-3.425822,-4.673352,-1.409365,-3.241693,0.898904,-3.419617,40.127019,17.282927,14.609505,4.63583E+18,0.614671,0.31126,0.662642,-0.293601,3
-5.396541,-0.830657,-1.457942,0.236507,-1.466647,0.108086,46.131779,-6.62862,-4.06211,4.63583E+18,0.88559,-0.00928,0.449363,0.117123,-2.818006,-0.153021,9.59241,2.599199,1.914896,2.335118,36.614933,-25.214705,3.88205,4.63583E+18,-0.496124,0.394611,-0.622588,-0.458834,-3.654655,-4.008534,-1.033157,-3.10276,0.794284,-3.18926,39.443398,17.948145,15.137315,4.63583E+18,0.612484,0.295438,0.672487,-0.292131,3
-1.007607,0.353435,3.584354,-0.105924,-0.707872,0.419915,46.051247,-6.70915,-4.262045,4.63583E+18,0.8867,-0.008522,0.446741,0.1188,-1.229945,-1.37786,10.553492,1.148723,1.462211,1.780987,36.206109,-25.801157,4.709005,4.63583E+18,-0.490791,0.390371,-0.630711,-0.457098,-3.799596,-4.358279,-1.002453,-2.637312,0.867654,-2.865052,38.837669,18.505078,15.70353,4.63583E+18,0.609719,0.281708,0.681343,-0.290955,3
1.16505,1.531665,0.15599,0.196077,1.044215,0.494311,46.05783,-6.944157,-3.904456,4.63583E+18,0.884507,-0.007376,0.450737,0.120125,0.059823,-5.371373,8.186734,-0.183829,1.023862,1.151334,35.849022,-26.359046,5.263279,4.63583E+18,-0.485602,0.389646,-0.634325,-0.458255,-3.952193,-4.583867,0.091991,-1.91137,1.015715,-2.541709,38.346381,18.98416,16.550444,4.63583E+18,0.60593,0.270853,0.689157,-0.290775,3
0.004808,3.209762,-5.629787,0.260057,1.328444,0.348777,46.058533,-7.268834,-3.410281,4.63583E+18,0.881829,-0.006408,0.455795,0.12078,0.504289,-9.869566,5.12421,-1.105663,0.625848,0.642849,35.565327,-26.780631,5.374697,4.63583E+18,-0.480921,0.391356,-0.634524,-0.461449,-4.374957,-3.710743,3.306094,-1.093062,1.086045,-2.279909,37.836726,19.535035,17.327034,4.63583E+18,0.601234,0.262859,0.69575,-0.292157,3
-0.5103,5.102435,-5.739391,0.140993,0.340124,0.079019,46.070034,-7.356828,-3.289439,4.63583E+18,0.881145,-0.005892,0.457145,0.120694,0.01359,-12.337199,4.068328,-1.348545,0.346849,0.237403,35.532312,-27.11625,5.106826,4.63583E+18,-0.477345,0.394075,-0.633013,-0.46491,-3.811482,-1.565012,8.061086,-0.208483,1.103533,-2.12372,37.177483,20.191199,17.700779,4.63583E+18,0.595639,0.257524,0.701058,-0.295658,3
0.095446,5.787626,-4.931682,0.101315,0.066444,-0.159386,45.99023,-7.292056,-3.467812,4.63583E+18,0.8811,-0.005839,0.457465,0.119815,-0.469198,-13.890544,5.267099,-0.95867,0.199868,-0.107486,35.505157,-27.167501,4.807489,4.63583E+18,-0.475453,0.396634,-0.631381,-0.466887,-2.566513,1.680316,10.942527,0.668725,1.070012,-2.082888,36.597759,20.882342,17.835024,4.63583E+18,0.58919,0.254417,0.705088,-0.301626,3
0.881866,6.225477,-3.525808,-0.044572,0.304998,-0.306886,46.065797,-7.28782,-3.387099,4.63583E+18,0.880668,-0.006721,0.458582,0.118665,-0.239084,-14.576375,6.849598,-0.308008,0.166556,-0.365913,35.408005,-26.962576,4.879142,4.63583E+18,-0.475222,0.398514,-0.630515,-0.466691,-1.817384,4.290872,10.722697,1.398329,0.994046,-2.113597,36.216318,21.669654,18.100522,4.63583E+18,0.582084,0.252887,0.707965,-0.309859,3
0.893267,5.721258,-4.753321,-0.238534,0.563926,-0.335226,46.139732,-7.04635,-3.128483,4.63583E+18,0.879745,-0.008497,0.46055,0.117775,0.225891,-12.973766,7.016825,0.064042,0.147352,-0.506709,35.548931,-26.71277,5.074823,4.63583E+18,-0.475932,0.399989,-0.630098,-0.465268,-1.220751,5.919044,9.593508,1.874193,0.859594,-2.107323,35.731078,22.565371,18.23786,4.63583E+18,0.574799,0.25232,0.709796,-0.319578,3
0.43115,3.87169,-6.248601,-0.261015,0.41794,-0.383759,46.143986,-6.801469,-2.940392,4.63583E+18,0.879118,-0.010377,0.461966,0.116754,0.328734,-9.770729,5.922842,-0.047048,0.089171,-0.565899,35.792582,-26.496126,5.081743,4.63583E+18,-0.476722,0.401724,-0.629248,-0.464113,-0.590587,7.872044,8.769556,2.021735,0.661737,-1.98103,35.145167,23.439665,17.947976,4.63583E+18,0.568028,0.252178,0.710718,-0.329591,3
0.28786,1.690158,-6.059679,-0.177183,-0.233869,-0.449049,46.074994,-6.626338,-2.941275,4.63583E+18,0.879776,-0.011759,0.46103,0.115361,0.370161,-7.011336,5.043779,-0.396525,0.017378,-0.6042,35.95128,-26.291197,4.938717,4.63583E+18,-0.477186,0.404111,-0.627511,-0.463916,-0.061103,10.368309,7.67711,1.887848,0.43984,-1.748594,34.704169,24.243798,17.46886,4.63583E+18,0.562299,0.252069,0.71096,-0.338848,3
0.63722,-0.150709,-4.340906,-0.069349,-0.558174,-0.508231,46.139731,-6.466934,-3.125958,4.63583E+18,0.881083,-0.012703,0.45895,0.113559,0.374494,-5.717333,5.367524,-0.613205,-0.043041,-0.654711,36.075946,-26.120775,4.788771,4.63583E+18,-0.477535,0.40694,-0.625143,-0.46428,-0.152533,12.603874,6.079524,1.555144,0.206852,-1.442979,34.411178,24.91828,17.11024,4.63583E+18,0.557985,0.251731,0.710734,-0.346614,3
1.64806,-1.808635,-2.82167,0.064755,-0.171277,-0.542832,46.212974,-6.147261,-3.068313,4.63583E+18,0.881668,-0.013405,0.458348,0.111352,0.517557,-5.491594,6.201452,-0.529998,-0.076947,-0.714675,36.235095,-25.955958,4.691118,4.63583E+18,-0.478225,0.409688,-0.622757,-0.46436,-1.369927,14.125233,4.985344,1.071998,-0.044674,-1.08158,34.109081,25.437079,16.943896,4.63583E+18,0.555411,0.250961,0.7102,-0.352353,3
2.042489,-2.812726,-2.584979,0.139037,0.270192,-0.528658,46.14824,-5.967139,-2.891583,4.63583E+18,0.881401,-0.014013,0.459399,0.109031,0.799608,-5.500738,6.363487,-0.223803,-0.095297,-0.760945,36.433888,-25.665586,4.548104,4.63583E+18,-0.479568,0.411905,-0.620841,-0.463578,-2.657894,14.786136,5.63182,0.626035,-0.287539,-0.692661,33.871014,25.809421,16.670831,4.63583E+18,0.554578,0.249947,0.709332,-0.356115,3
1.384729,-3.052692,-3.047139,0.197455,0.158057,-0.498491,46.143986,-6.037692,-2.777474,4.63583E+18,0.881333,-0.014297,0.460064,0.106715,0.868466,-4.976613,5.606599,0.128851,-0.136651,-0.78116,36.586037,-25.409697,4.352796,4.63583E+18,-0.481658,0.413385,-0.619482,-0.46191,-2.807802,14.424769,7.191273,0.4138,-0.479022,-0.291174,33.84806,26.027669,16.4068,4.63583E+18,0.555121,0.249341,0.707909,-0.358517,3
0.848507,-2.604237,-2.765886,0.248087,-0.179375,-0.485624,46.373896,-5.812754,-2.886036,4.63583E+18,0.881905,-0.014221,0.45951,0.104368,0.745957,-3.765531,4.664963,0.396591,-0.201576,-0.782533,36.744722,-25.238805,4.29352,4.63583E+18,-0.484374,0.4142,-0.618497,-0.459653,-2.188427,13.076215,8.212313,0.473671,-0.628959,0.099345,33.921298,26.087221,16.2725,4.63583E+18,0.556621,0.249799,0.705638,-0.360345,3
1.507705,-1.770985,-2.459245,0.325457,-0.458278,-0.528196,46.537592,-5.476606,-2.812677,4.63583E+18,0.883026,-0.013821,0.457957,0.101733,0.385398,-2.574877,3.92685,0.541857,-0.274401,-0.77784,36.937425,-24.954543,4.52154,4.63583E+18,-0.487512,0.414564,-0.617643,-0.45715,-1.454477,11.204086,8.39873,0.722488,-0.766879,0.473318,33.941163,26.087221,15.99947,4.63583E+18,0.55882,0.251722,0.702272,-0.362174,3
2.240072,-1.065999,-2.10811,0.333075,-0.448105,-0.52584,46.385893,-5.226799,-2.911162,4.63583E+18,0.884118,-0.013394,0.45644,0.09909,-0.134696,-1.681603,3.068896,0.597742,-0.336999,-0.769448,37.135349,-24.652858,4.769603,4.63582E+18,-0.490883,0.414665,-0.616772,-0.45462,-1.054492,9.264612,7.904568,1.085889,-0.908272,0.83756,34.073832,26.041471,15.438039,4.63583E+18,0.561582,0.255334,0.697622,-0.364354,3
1.983903,-0.72654,-2.006998,0.365449,-0.407258,-0.477248,46.295458,-5.143588,-3.285423,4.63583E+18,0.885105,-0.012772,0.455084,0.096562,-0.34618,-1.099578,2.15949,0.629898,-0.365496,-0.759263,37.3337,-24.481965,4.867255,4.63582E+18,-0.494354,0.414612,-0.615909,-0.45207,-1.075718,7.4548,6.699371,1.502057,-1.015109,1.173907,34.484191,25.930102,14.766632,4.63583E+18,0.564687,0.26072,0.691687,-0.367047,3
1.333143,-0.386157,-2.013509,0.393595,-0.629133,-0.40586,46.359444,-4.989876,-3.768024,4.63583E+18,0.886477,-0.011823,0.452919,0.094254,-0.235439,-0.965678,1.653247,0.711983,-0.373622,-0.748163,37.532516,-24.237398,4.913917,4.63582E+18,-0.497957,0.414336,-0.615192,-0.449336,-1.249651,6.006614,4.966207,1.863506,-1.071468,1.44136,34.97095,25.83395,14.148644,4.63583E+18,0.567914,0.267614,0.684708,-0.370177,3
0.753764,-0.584609,-1.519977,0.430415,-0.60883,-0.314125,46.363716,-4.750739,-3.899949,4.63583E+18,0.887765,-0.010573,0.450842,0.092214,-0.347417,-1.071624,1.580421,0.882598,-0.372099,-0.736833,37.724322,-23.902151,4.907376,4.63582E+18,-0.501818,0.41367,-0.614802,-0.446176,-1.295529,4.851455,3.459907,2.089348,-1.095645,1.612304,35.427186,25.768332,13.448362,4.63583E+18,0.571149,0.275457,0.677045,-0.373526,3
-0.015378,-0.632645,-1.408845,0.507023,-0.486021,-0.212145,46.283261,-4.587051,-3.998321,4.63583E+18,0.888777,-0.008895,0.449248,0.090401,-0.486141,-0.884276,1.422679,1.114136,-0.359931,-0.718298,37.928802,-23.639675,4.862057,4.63583E+18,-0.505998,0.412482,-0.614883,-0.442428,-1.274155,3.765077,2.719436,2.185667,-1.105262,1.692052,35.924563,25.50911,12.504031,4.63583E+18,0.574341,0.283699,0.669017,-0.376914,3
-1.279398,-0.531339,-1.783153,0.577015,-0.550942,-0.093512,46.197808,-4.658234,-4.176438,4.63583E+18,0.88986,-0.006713,0.447439,0.088898,-0.285635,-0.299675,1.057334,1.357219,-0.348523,-0.689953,37.92888,-23.434781,4.940011,4.63583E+18,-0.510495,0.410714,-0.615462,-0.43808,-1.406768,2.732022,2.075739,2.203724,-1.109003,1.699434,36.403725,25.084965,11.515219,4.63583E+18,0.577444,0.291954,0.660839,-0.38028,3
-2.228459,-0.547904,-1.404455,0.610235,-0.592644,0.01404,46.112365,-4.743676,-4.54341,4.63583E+18,0.890971,-0.004191,0.445485,0.087732,-0.235359,0.526386,0.492005,1.55495,-0.358812,-0.670609,37.864728,-23.190647,5.22643,4.63583E+18,-0.515298,0.408436,-0.616385,-0.433264,-1.420704,1.654794,0.84476,2.178511,-1.088464,1.644328,36.863021,24.679024,10.73835,4.63583E+18,0.580347,0.299984,0.652716,-0.383626,3
-2.926365,-0.445901,-0.310633,0.604004,-0.447136,0.063535,46.176317,-4.668232,-4.669001,4.63583E+18,0.891784,-0.001654,0.444064,0.086757,-0.451174,1.31602,-0.317536,1.683139,-0.391846,-0.663969,38.130527,-22.940851,5.468417,4.63583E+18,-0.520362,0.405782,-0.617446,-0.428166,-1.181285,0.745191,-0.755714,2.116721,-1.036947,1.557023,37.273519,24.399699,10.013645,4.63583E+18,0.582963,0.307665,0.644831,-0.386896,3
-3.586994,-0.301556,0.296,0.621604,-0.282073,0.095387,46.180607,-4.513825,-4.675436,4.63583E+18,0.892272,0.000947,0.443258,0.085866,-0.679593,1.770835,-1.108876,1.728725,-0.414133,-0.672658,38.499891,-22.610871,5.657192,4.63583E+18,-0.525543,0.402986,-0.618487,-0.422943,-1.039182,0.17733,-2.080537,1.996876,-0.988334,1.462765,37.705277,24.23332,9.363509,4.63583E+18,0.585374,0.31484,0.637294,-0.389961,3
-4.303494,0.074694,0.237682,0.585532,-0.216078,0.117309,46.180607,-4.734327,-4.847782,4.63583E+18,0.892623,0.003431,0.442681,0.085122,-0.95473,2.093928,-1.756429,1.696079,-0.416731,-0.689639,38.652549,-22.195773,5.846867,4.63583E+18,-0.530674,0.400274,-0.619399,-0.417745,-1.185456,-0.42217,-2.753999,1.83187,-0.940409,1.371034,38.161537,23.946625,8.724209,4.63583E+18,0.587658,0.32141,0.630189,-0.392703,3
-4.667544,0.729586,0.507691,0.476643,-0.206529,0.092426,46.261035,-5.058899,-4.938974,4.63583E+18,0.892963,0.00546,0.442097,0.084486,-1.126995,2.576527,-2.005518,1.632599,-0.412458,-0.692885,38.832571,-21.854345,5.990331,4.63583E+18,-0.535661,0.397693,-0.620169,-0.412672,-1.50275,-1.148419,-3.019658,1.662972,-0.876739,1.287317,38.476021,23.613942,7.999514,4.63583E+18,0.589807,0.327419,0.623566,-0.395083,3
-4.572733,1.41256,0.915611,0.353352,-0.137781,-0.013775,46.197113,-5.07828,-4.668215,4.63583E+18,0.893212,0.006811,0.441727,0.083682,-1.346647,3.10539,-2.060819,1.55997,-0.412647,-0.679118,39.076299,-21.598007,6.082319,4.63583E+18,-0.540474,0.395216,-0.620802,-0.407796,-1.620554,-1.786368,-3.096092,1.515819,-0.802911,1.189209,38.654617,23.354487,7.42555,4.63583E+18,0.591754,0.332905,0.617448,-0.397189,3
-4.266874,1.866259,1.066341,0.226458,-0.060137,-0.187162,46.031979,-4.997862,-4.651021,4.63583E+18,0.893381,0.007343,0.441605,0.082469,-1.743826,3.47249,-2.440048,1.477422,-0.416997,-0.649175,39.155685,-21.307662,6.25841,4.63583E+18,-0.545085,0.392818,-0.621303,-0.403187,-1.451374,-2.375354,-3.169253,1.417096,-0.731073,1.074257,38.900156,23.130165,7.068337,4.63583E+18,0.593422,0.337948,0.611788,-0.399196,3
-3.731211,1.75429,1.051275,0.100356,-0.078664,-0.370503,45.872564,-5.073245,-4.915247,4.63583E+18,0.893649,0.007074,0.441375,0.080805,-2.004169,3.696211,-2.876082,1.371529,-0.402852,-0.612286,39.222787,-21.051706,6.499526,4.63583E+18,-0.549398,0.39057,-0.621691,-0.398895,-1.286457,-3.141074,-3.256257,1.41059,-0.648983,0.945703,39.258647,22.81141,6.539215,4.63583E+18,0.59464,0.342762,0.606485,-0.401365,3
-2.779794,1.194229,1.038349,0.005476,-0.127356,-0.542162,46.012561,-4.848518,-5.127089,4.63583E+18,0.894064,0.006153,0.440934,0.078675,-1.949752,3.599507,-3.016984,1.270237,-0.350827,-0.565559,39.341829,-20.886467,6.558886,4.63583E+18,-0.553312,0.388503,-0.622082,-0.394872,-1.031859,-4.122027,-3.359969,1.482497,-0.528602,0.825787,39.542618,22.524412,5.814514,4.63583E+18,0.595217,0.347633,0.601497,-0.403819,3
-1.596551,0.585367,1.301824,-0.05729,-0.126294,-0.672843,46.24016,-4.443582,-5.070396,4.63583E+18,0.894514,0.004757,0.440477,0.076173,-1.643311,3.351859,-2.809557,1.224824,-0.273736,-0.49492,39.341434,-20.60883,6.500882,4.63583E+18,-0.556818,0.386471,-0.62267,-0.390992,-0.766229,-4.61577,-3.268746,1.608489,-0.398407,0.705367,39.76235,22.391501,5.347128,4.63583E+18,0.59505,0.352714,0.59676,-0.406676,3
-0.354428,0.250716,1.582561,-0.097063,-0.085843,-0.757792,46.253853,-4.108977,-4.997161,4.63583E+18,0.89491,0.003043,0.440154,0.073428,-1.37252,3.179216,-2.46427,1.231871,-0.193976,-0.409555,39.363585,-20.267445,6.539641,4.63583E+18,-0.559972,0.384318,-0.623574,-0.387152,-0.45511,-4.644968,-2.919544,1.733752,-0.277442,0.566673,39.844963,22.318262,5.061789,4.63583E+18,0.594128,0.357946,0.592281,-0.409988,3
0.592209,-0.170089,1.714035,-0.111399,-0.025021,-0.79281,46.104525,-3.859749,-5.08472,4.63583E+18,0.895195,0.001192,0.440049,0.070579,-1.260009,3.055379,-2.499731,1.213099,-0.129953,-0.327991,39.555374,-20.090369,6.682601,4.63583E+18,-0.562781,0.382088,-0.624709,-0.383437,-0.210765,-4.390502,-2.522769,1.806319,-0.156884,0.433005,39.784035,22.290718,4.666788,4.63583E+18,0.592537,0.363211,0.58814,-0.413605,3
