Accelerometer-X,Accelerometer-Y,Accelerometer-Z,Gyroscope-X,Gyroscope-Y,Gyroscope-Z,Magnetometer-X,Magnetometer-Y,Magnetometer-Z,Barometer-pressure,Orientation-S,Orientation-X,Orientation-Y,Orientation-Z,Accelerometer-X,Accelerometer-Y,Accelerometer-Z,Gyroscope-X,Gyroscope-Y,Gyroscope-Z,Magnetometer-X,Magnetometer-Y,Magnetometer-Z,Barometer-pressure,Orientation-S,Orientation-X,Orientation-Y,Orientation-Z,Accelerometer-X,Accelerometer-Y,Accelerometer-Z,Gyroscope-X,Gyroscope-Y,Gyroscope-Z,Magnetometer-X,Magnetometer-Y,Magnetometer-Z,Barometer-pressure,Orientation-S,Orientation-X,Orientation-Y,Orientation-Z,jump
-9.717093,0.421445,1.165517,-0.040182,0.010326,0.020702,44.251839,0.984726,12.473646,4.63583E+18,-0.745589,-0.084748,-0.657086,0.071783,-9.547982,1.678346,-0.447191,-0.134273,0.049889,-0.028086,38.112067,-26.038736,1.794488,4.63582E+18,-0.468588,0.438489,-0.570892,-0.51209,-9.738529,0.354308,0.622578,-0.026417,-0.016543,-0.008285,42.689289,14.523245,5.28522,4.63583E+18,0.60765,0.404718,0.549949,-0.405613,0
-9.672348,0.465613,1.198057,-0.04776,0.008798,0.016481,44.251839,0.980676,12.478274,4.63583E+18,-0.745578,-0.084638,-0.657131,0.07161,-9.575983,1.592895,-0.38974,-0.129216,0.04546,-0.031652,37.977573,-26.209638,1.808831,4.63582E+18,-0.468311,0.438913,-0.570647,-0.512252,-9.7293,0.290582,0.61662,-0.028319,-0.019462,-0.007738,42.710142,14.566994,5.35905,4.63583E+18,0.60773,0.404585,0.549959,-0.405612,0
-9.618857,0.481327,1.264909,-0.055695,0.022835,0.013276,44.334938,0.85687,12.627073,4.63583E+18,-0.745531,-0.084499,-0.657223,0.07142,-9.646533,1.509243,-0.37664,-0.113872,0.039287,-0.026547,38.147564,-26.361726,1.989807,4.63582E+18,-0.468067,0.439281,-0.570431,-0.512399,-9.738232,0.219434,0.607094,-0.024099,-0.021936,-0.008024,42.792604,14.484532,5.311416,4.63583E+18,0.607808,0.404458,0.549955,-0.405625,0
-9.626403,0.438312,1.230062,-0.063782,0.02818,0.01119,44.37218,0.781274,12.82239,4.63583E+18,-0.745472,-0.084331,-0.657334,0.071212,-9.675109,1.457149,-0.356696,-0.093892,0.036082,-0.024255,38.283007,-26.276284,1.975509,4.63582E+18,-0.467862,0.439599,-0.570256,-0.512509,-9.751031,0.247421,0.649676,-0.014198,-0.016309,-0.006409,42.827137,14.467868,5.163732,4.63583E+18,0.60786,0.40437,0.549947,-0.405648,0
-9.65663,0.383098,1.178302,-0.072835,0.014452,0.010122,44.254208,0.864354,12.81318,4.63583E+18,-0.745453,-0.084128,-0.657406,0.070988,-9.606333,1.517292,-0.393317,-0.078183,0.032956,-0.020217,38.129674,-26.203343,1.794488,4.63582E+18,-0.467684,0.439869,-0.570116,-0.512596,-9.695953,0.237598,0.71071,-0.006461,-0.012583,-0.005888,42.762535,14.587847,5.139911,4.63583E+18,0.607891,0.404308,0.549934,-0.40568,0
-9.649093,0.354015,1.228849,-0.08138,0.003154,0.009054,44.172203,0.984701,12.668993,4.63583E+18,-0.745468,-0.083892,-0.657446,0.070748,-9.594127,1.56344,-0.427259,-0.067293,0.030898,-0.019539,38.056721,-26.294137,1.801626,4.63582E+18,-0.46753,0.440112,-0.569996,-0.512661,-9.686115,0.322731,0.759834,-0.003124,-0.008025,-0.004793,42.762535,14.531316,5.021443,4.63583E+18,0.607908,0.404265,0.549925,-0.40571,0
-9.612471,0.347625,1.29513,-0.088807,0.013319,0.010782,44.211117,1.025422,12.667185,4.63583E+18,-0.745458,-0.083641,-0.657518,0.070478,-9.582811,1.575647,-0.425475,-0.066825,0.029674,-0.023499,38.135929,-26.435882,1.892148,4.63582E+18,-0.467388,0.440361,-0.569868,-0.51272,-9.747458,0.388274,0.75419,-0.014119,-0.006409,-0.007711,42.762535,14.373758,4.927591,4.63583E+18,0.607934,0.404191,0.549943,-0.405719,0
-9.620579,0.335417,1.299229,-0.094656,0.029091,0.014495,44.251839,0.980691,12.759027,4.63583E+18,-0.745407,-0.083386,-0.65764,0.070175,-9.580139,1.590525,-0.403735,-0.060962,0.026938,-0.023655,38.12435,-26.36799,1.877897,4.63582E+18,-0.467263,0.440593,-0.569746,-0.512769,-9.759972,0.299234,0.708029,-0.016857,-0.004847,-0.010969,42.780386,14.506509,5.0869,4.63583E+18,0.607956,0.404105,0.549976,-0.405728,0
-9.631068,0.34877,1.288167,-0.101115,0.028589,0.0177,44.168766,0.901629,12.760835,4.63583E+18,-0.745362,-0.083121,-0.65776,0.069844,-9.550643,1.639355,-0.415942,-0.062108,0.029752,-0.025947,37.983465,-26.373335,1.696829,4.63582E+18,-0.467134,0.440839,-0.569623,-0.512812,-9.747457,0.29267,0.699105,-0.013599,0,-0.009326,42.835777,14.725718,5.1069,4.63583E+18,0.607965,0.404039,0.550012,-0.405732,0
-9.606655,0.359833,1.300374,-0.107474,0.027413,0.018109,44.131476,0.860336,12.617885,4.63583E+18,-0.745321,-0.082836,-0.657879,0.069495,-9.609008,1.687294,-0.425478,-0.063699,0.027538,-0.02983,38.068027,-26.423421,1.696829,4.63582E+18,-0.467016,0.441092,-0.569486,-0.512855,-9.751053,0.317705,0.671407,-0.014201,-0.00052,-0.01253,42.835777,14.643249,4.968413,4.63583E+18,0.60797,0.403963,0.550054,-0.405743,0
-9.582242,0.347626,1.306192,-0.115609,0.037684,0.014295,44.211107,0.860907,12.627014,4.63583E+18,-0.745254,-0.082518,-0.658033,0.069132,-9.62897,1.723025,-0.404625,-0.059527,0.024801,-0.02923,38.135039,-26.173042,1.689704,4.63582E+18,-0.466911,0.441329,-0.569352,-0.512894,-9.704885,0.274823,0.677354,-0.005423,-0.000835,-0.014694,42.838751,14.549191,5.039777,4.63583E+18,0.607958,0.403904,0.550083,-0.40578,0
-9.602544,0.329032,1.274253,-0.126849,0.042117,0.008955,44.213511,0.822011,12.771217,4.63583E+18,-0.745177,-0.082153,-0.658205,0.068754,-9.595019,1.756329,-0.429038,-0.070986,0.028005,-0.034725,38.124611,-25.885271,1.59917,4.63582E+18,-0.466789,0.441609,-0.569191,-0.512944,-9.698941,0.283107,0.710684,0.004533,0.004245,-0.014146,42.850957,14.372676,5.28517,4.63583E+18,0.607918,0.403881,0.550108,-0.40583,0
-9.669964,0.298231,1.283478,-0.135245,0.036119,0.006409,44.133882,0.698241,12.773064,4.63583E+18,-0.745119,-0.081752,-0.658362,0.068362,-9.595909,1.896594,-0.453452,-0.092893,0.031132,-0.04158,38.129704,-26.11786,1.606284,4.63582E+18,-0.466634,0.441954,-0.568976,-0.513026,-9.689392,0.381091,0.762807,0.002739,0.007477,-0.016255,42.839375,14.19721,5.33526,4.63583E+18,0.60787,0.403853,0.550147,-0.405876,0
-9.692113,0.299929,1.337559,-0.140585,0.039309,0.005291,44.137845,0.577873,12.732322,4.63583E+18,-0.745053,-0.081333,-0.658531,0.067957,-9.607226,1.94785,-0.476978,-0.122044,0.033502,-0.04129,38.049587,-26.173082,1.69594,4.63582E+18,-0.466419,0.442361,-0.568703,-0.513174,-9.720071,0.427259,0.77234,-0.00977,0.007998,-0.020816,42.753897,14.271657,5.213745,4.63583E+18,0.607834,0.403784,0.550216,-0.405904,0
-9.686856,0.33655,1.29755,-0.145367,0.040343,0.003155,44.216908,0.537126,12.783407,4.63583E+18,-0.744985,-0.080894,-0.658704,0.067546,-9.608114,1.865736,-0.488296,-0.153522,0.038065,-0.050281,38.026728,-25.879916,1.684622,4.63582E+18,-0.466154,0.442859,-0.568356,-0.51337,-9.732277,0.415353,0.732746,-0.025843,0.009092,-0.023212,42.686313,14.541088,5.066072,4.63583E+18,0.607819,0.403671,0.55032,-0.405899,0
-9.737378,0.366786,1.213227,-0.151316,0.022398,0.003813,44.296537,0.581826,12.823595,4.63583E+18,-0.744968,-0.080433,-0.658823,0.067122,-9.619433,1.676632,-0.487408,-0.162961,0.03288,-0.051504,37.886676,-26.062361,1.678407,4.63582E+18,-0.465886,0.443367,-0.567975,-0.513595,-9.759362,0.366527,0.683919,-0.037279,0.005915,-0.025115,42.697912,14.643238,5.089878,4.63583E+18,0.607827,0.403519,0.550437,-0.405878,0
-9.758973,0.384815,1.254361,-0.156558,0.012358,0.003664,44.292589,0.660892,12.817774,4.63583E+18,-0.74498,-0.079952,-0.658912,0.066688,-9.61677,1.577418,-0.47165,-0.15694,0.029753,-0.054476,37.98877,-26.355563,1.592069,4.63582E+18,-0.465643,0.443864,-0.567596,-0.513806,-9.796894,0.302812,0.617228,-0.050203,0.002631,-0.02402,42.765511,14.549153,5.163732,4.63583E+18,0.607866,0.403332,0.550567,-0.40583,0
-9.703198,0.384252,1.331169,-0.160879,0.018914,0.00046,44.251839,0.740517,12.913547,4.63583E+18,-0.744975,-0.079451,-0.659023,0.06625,-9.582811,1.610491,-0.417711,-0.15595,0.027462,-0.054476,38.135929,-26.190884,1.508601,4.63582E+18,-0.465407,0.444353,-0.567214,-0.514019,-9.735558,0.222708,0.530868,-0.0476,0.007477,-0.024855,42.792591,14.447,5.208356,4.63583E+18,0.607889,0.403157,0.550705,-0.405782,0
-9.674647,0.37843,1.31728,-0.167895,0.017914,-0.002185,44.296522,0.742973,13.007268,4.63583E+18,-0.744973,-0.078921,-0.659133,0.0658,-9.58547,1.588534,-0.446356,-0.154554,0.023111,-0.054553,38.123521,-26.117839,1.60626,4.63582E+18,-0.465184,0.444831,-0.566826,-0.514236,-9.72899,0.261683,0.573127,-0.042384,0.006436,-0.022952,42.83014,14.541059,5.346843,4.63583E+18,0.607908,0.402998,0.550829,-0.405743,0
-9.686854,0.397578,1.300368,-0.179232,0.010025,-0.00488,44.337288,0.573991,12.91735,4.63583E+18,-0.744996,-0.078346,-0.659223,0.065331,-9.622092,1.450022,-0.374885,-0.134939,0.017693,-0.055466,37.97743,-26.184682,1.68265,4.63582E+18,-0.465011,0.44526,-0.566467,-0.514415,-9.75105,0.330218,0.646992,-0.052052,0.005026,-0.024567,42.750945,14.643244,5.278427,4.63583E+18,0.607944,0.402809,0.550969,-0.405688,0
-9.673533,0.415052,1.306192,-0.189767,0.011386,-0.005292,44.298997,0.451674,12.881037,4.63583E+18,-0.745018,-0.077738,-0.659319,0.064833,-9.656941,1.424907,-0.330485,-0.111304,0.011672,-0.054476,38.146547,-26.014681,1.501511,4.63582E+18,-0.464895,0.445629,-0.56615,-0.51455,-9.704885,0.256355,0.655911,-0.053435,0.010942,-0.024567,42.680055,14.567038,5.066072,4.63583E+18,0.607969,0.402626,0.551125,-0.40562,0
-9.662438,0.402288,1.29981,-0.196685,0.017188,-0.002039,44.130022,0.579315,12.876583,4.63583E+18,-0.745027,-0.077119,-0.659434,0.064304,-9.669148,1.546096,-0.341807,-0.100328,0.010681,-0.05494,38.289496,-25.87899,1.508589,4.63582E+18,-0.464802,0.445975,-0.565853,-0.514661,-9.707859,0.28312,0.692536,-0.052545,0.01201,-0.024828,42.727949,14.502395,5.134471,4.63583E+18,0.607989,0.402447,0.551283,-0.405552,0
-9.693792,0.365109,1.236547,-0.199185,0.013084,0.001675,44.052363,0.695822,12.778925,4.63583E+18,-0.745048,-0.076501,-0.659535,0.063758,-9.677816,1.649769,-0.342692,-0.100034,0.010836,-0.061117,38.373884,-26.032377,1.578821,4.63582E+18,-0.464722,0.446336,-0.565545,-0.514759,-9.702226,0.357302,0.720237,-0.061898,0.013858,-0.025636,42.868799,14.505368,5.346843,4.63583E+18,0.608019,0.402245,0.551463,-0.405462,0
-9.723475,0.309901,1.14583,-0.201467,-0.005365,0.004321,44.348392,0.568196,12.732322,4.63583E+18,-0.745121,-0.075878,-0.659578,0.063203,-9.642082,1.674181,-0.354898,-0.109956,0.01305,-0.064243,38.294624,-26.105452,1.297199,4.63582E+18,-0.464626,0.446727,-0.565214,-0.51487,-9.664973,0.285014,0.708347,-0.066541,0.018131,-0.025115,42.894797,14.493796,5.302257,4.63583E+18,0.608048,0.40204,0.551661,-0.405353,0
-9.697394,0.22972,1.161924,-0.203458,-0.012065,0.007016,44.370853,0.623969,12.776991,4.63583E+18,-0.745213,-0.075255,-0.659599,0.062636,-9.619433,1.695062,-0.369756,-0.124228,0.016254,-0.066766,38.294624,-26.013817,1.038672,4.63582E+18,-0.4645,0.447159,-0.564854,-0.515003,-9.704566,0.170265,0.674379,-0.059324,0.021883,-0.023239,42.753938,14.408346,5.163732,4.63583E+18,0.60806,0.401864,0.551853,-0.405249,0
-9.655504,0.183111,1.208533,-0.204623,-0.004686,0.012453,43.457678,1.208719,12.760356,4.63583E+18,-0.745287,-0.074645,-0.659641,0.062047,-9.620317,1.668881,-0.415935,-0.142991,0.01884,-0.073934,38.294624,-25.856163,1.222665,4.63582E+18,-0.464349,0.44765,-0.564445,-0.515162,-9.738537,0.244148,0.686586,-0.054995,0.022719,-0.022691,42.710086,14.364495,5.187499,4.63583E+18,0.608063,0.401702,0.552038,-0.405153,0
-9.643848,0.202246,1.189398,-0.207269,-0.011624,0.018255,42.633317,1.726737,12.803582,4.63583E+18,-0.745381,-0.074041,-0.65966,0.061435,-9.626351,1.627112,-0.424614,-0.155653,0.014195,-0.077061,38.294624,-25.87895,1.410906,4.63582E+18,-0.464191,0.448162,-0.563994,-0.515353,-9.720389,0.229295,0.689881,-0.052713,0.022114,-0.024019,42.774742,14.485591,5.282185,4.63583E+18,0.608062,0.401541,0.55222,-0.405066,0
-9.631092,0.251625,1.203803,-0.208847,-0.017504,0.023085,42.736897,1.671102,12.993072,4.63583E+18,-0.745492,-0.073444,-0.659659,0.060805,-9.562799,1.670653,-0.392398,-0.165794,0.018313,-0.078735,38.299908,-26.02002,1.494466,4.63582E+18,-0.464008,0.448706,-0.563525,-0.515556,-9.698617,0.224683,0.668438,-0.041109,0.027512,-0.026155,42.771773,14.699695,5.346843,4.63583E+18,0.608025,0.401414,0.5524,-0.405001,0
-9.625811,0.319036,1.245703,-0.211589,-0.011048,0.027868,42.797864,1.685914,13.079959,4.63583E+18,-0.745588,-0.072854,-0.659677,0.06015,-9.624724,1.626836,-0.415933,-0.167764,0.019986,-0.074153,38.36787,-25.934559,1.396797,4.63582E+18,-0.463808,0.449247,-0.563064,-0.51577,-9.720063,0.362923,0.6592,-0.047663,0.025664,-0.028032,42.762535,14.781185,5.326057,4.63583E+18,0.608,0.401263,0.55259,-0.40493,0
-9.657152,0.373148,1.231852,-0.218652,-0.008593,0.030466,42.468263,2.015515,13.01673,4.63583E+18,-0.745678,-0.072249,-0.659702,0.059467,-9.688276,1.348859,-0.425498,-0.152878,0.015714,-0.06584,38.362588,-25.861443,1.306192,4.63582E+18,-0.463627,0.44973,-0.562642,-0.515972,-9.723362,0.369853,0.644354,-0.064839,0.02373,-0.02936,42.762535,14.643277,5.261391,4.63583E+18,0.608006,0.401062,0.552805,-0.404826,0
-9.68047,0.409772,1.208533,-0.228824,-0.012404,0.030418,42.693563,1.917783,12.970641,4.63583E+18,-0.745782,-0.071611,-0.659718,0.058758,-9.631641,1.274853,-0.403725,-0.125492,0.011441,-0.060653,38.288461,-25.940731,1.313236,4.63582E+18,-0.463496,0.450139,-0.56228,-0.516128,-9.719725,0.302217,0.598163,-0.071537,0.026473,-0.030976,42.765503,14.605655,5.30591,4.63583E+18,0.608015,0.400845,0.553041,-0.404705,0
-9.68047,0.427259,1.227663,-0.236156,-0.013838,0.02656,43.464176,1.168097,12.950962,4.63583E+18,-0.745891,-0.07094,-0.659732,0.05804,-9.636043,1.350737,-0.416812,-0.104447,0.007554,-0.057141,38.220616,-25.929287,1.396809,4.63582E+18,-0.463406,0.45049,-0.561962,-0.516249,-9.754051,0.281106,0.592227,-0.075549,0.022171,-0.030457,42.774742,14.661092,5.49199,4.63583E+18,0.60804,0.400612,0.553273,-0.404582,0
-9.648589,0.427259,1.277036,-0.243776,-0.007797,0.022383,44.065784,0.39614,12.838373,4.63583E+18,-0.745983,-0.070235,-0.659767,0.057313,-9.691799,1.459713,-0.441224,-0.101935,0.008468,-0.050203,38.374023,-25.793462,1.285976,4.63582E+18,-0.463304,0.450822,-0.561664,-0.516375,-9.711157,0.217436,0.552972,-0.076157,0.021103,-0.028061,42.795517,14.643284,5.63982,4.63583E+18,0.608073,0.400381,0.553498,-0.404452,0
-9.613057,0.433635,1.299816,-0.249994,0.002375,0.021921,44.302301,0.166707,12.654718,4.63583E+18,-0.746048,-0.069512,-0.659834,0.056567,-9.674318,1.551219,-0.463881,-0.108652,0.007246,-0.050049,38.454198,-25.940731,1.01136,4.63582E+18,-0.463191,0.451164,-0.561349,-0.516519,-9.707518,0.116474,0.494232,-0.066862,0.019516,-0.024597,42.839416,14.605655,5.616076,4.63583E+18,0.6081,0.400179,0.553698,-0.404338,0
-9.594475,0.42034,1.262107,-0.254362,0.003572,0.022431,44.375541,0.290407,12.555042,4.63583E+18,-0.746111,-0.068777,-0.659905,0.055806,-9.59151,1.563425,-0.461249,-0.119562,0.004656,-0.04822,38.458508,-25.928448,0.844142,4.63582E+18,-0.46306,0.451517,-0.561009,-0.516698,-9.747779,0.069941,0.527551,-0.052427,0.01709,-0.020844,42.774742,14.717483,5.542161,4.63583E+18,0.608115,0.400019,0.553861,-0.404251,0
-9.570062,0.370971,1.245697,-0.25575,0.001116,0.024104,44.372285,0.245103,12.702203,4.63583E+18,-0.74618,-0.068041,-0.659967,0.055038,-9.549693,1.579135,-0.422879,-0.133677,0.009613,-0.050433,38.374002,-25.764573,1.038562,4.63582E+18,-0.462895,0.451913,-0.560644,-0.516895,-9.723365,0.115465,0.588586,-0.042207,0.017869,-0.019227,42.774742,14.893032,5.542161,4.63583E+18,0.608114,0.399889,0.554006,-0.404183,0
-9.539274,0.329059,1.257362,-0.253104,0.009387,0.025636,44.2608,0.05142,12.950546,4.63583E+18,-0.746225,-0.06732,-0.660054,0.054269,-9.596771,1.632288,-0.366222,-0.150001,0.00969,-0.053177,38.45332,-25.707973,1.215541,4.63582E+18,-0.462706,0.452347,-0.560239,-0.517125,-9.713785,0.197602,0.655551,-0.042147,0.021333,-0.020005,42.774742,14.854467,5.542161,4.63583E+18,0.608103,0.399763,0.554161,-0.40411,0
-9.540896,0.304645,1.219119,-0.253198,0.017138,0.026193,44.101565,0.013829,13.100706,4.63583E+18,-0.746249,-0.066602,-0.660163,0.053496,-9.618557,1.580831,-0.366222,-0.156026,0.010681,-0.050586,38.447188,-25.85528,1.3132,4.63582E+18,-0.462496,0.452788,-0.559827,-0.517372,-9.747441,0.28967,0.714304,-0.049335,0.02327,-0.022691,42.756943,14.716537,5.565893,4.63583E+18,0.608096,0.399616,0.554337,-0.404025,0
-9.596636,0.299351,1.171372,-0.254219,0.011467,0.028934,44.102749,0.138055,13.141,4.63583E+18,-0.746288,-0.065887,-0.660253,0.052713,-9.610724,1.504134,-0.365348,-0.157018,0.010528,-0.055544,38.36787,-25.850033,1.38986,4.63582E+18,-0.462296,0.453242,-0.559403,-0.517612,-9.757025,0.314427,0.686925,-0.059466,0.019746,-0.023759,42.701496,14.678887,5.663547,4.63583E+18,0.608111,0.399436,0.554523,-0.403925,0
-9.657134,0.311558,1.17245,-0.255892,0.001437,0.031534,44.223206,0.130507,13.039567,4.63583E+18,-0.746355,-0.065172,-0.660311,0.051921,-9.65693,1.536386,-0.354015,-0.156941,0.008851,-0.055314,38.373983,-25.769811,1.188449,4.63582E+18,-0.462099,0.453692,-0.558977,-0.517854,-9.732264,0.293329,0.653272,-0.069399,0.021363,-0.023789,42.698532,14.755084,5.713768,4.63583E+18,0.60814,0.399232,0.55473,-0.403799,0
-9.68047,0.323765,1.184118,-0.259654,-0.003809,0.033717,44.219438,-0.02764,12.952055,4.63583E+18,-0.746437,-0.06445,-0.660353,0.051112,-9.66564,1.511095,-0.354015,-0.155261,0.012665,-0.052569,38.447198,-25.611132,0.933884,4.63582E+18,-0.46189,0.45414,-0.558566,-0.518091,-9.738543,0.226705,0.61996,-0.071856,0.021363,-0.021363,42.650744,14.816823,5.592379,4.63583E+18,0.608176,0.399029,0.554937,-0.403662,0
-9.667729,0.335971,1.19686,-0.261139,-0.007571,0.036921,44.223191,-0.097659,13.053992,4.63583E+18,-0.74653,-0.063731,-0.660381,0.05029,-9.63688,1.47535,-0.354015,-0.145343,0.010834,-0.055085,38.361758,-25.617244,1.027184,4.63582E+18,-0.46171,0.454571,-0.558168,-0.518303,-9.73523,0.128352,0.582642,-0.068651,0.021363,-0.021104,42.572099,14.772004,5.468219,4.63583E+18,0.608207,0.398833,0.555139,-0.40353,0
-9.636945,0.341807,1.234014,-0.258398,-0.00181,0.039568,44.225823,-0.097659,13.147373,4.63583E+18,-0.746606,-0.063029,-0.660425,0.049466,-9.706632,1.450062,-0.354015,-0.131763,0.012741,-0.049135,38.288529,-25.696585,1.215518,4.63582E+18,-0.461538,0.454966,-0.557814,-0.518491,-9.750752,0.11283,0.598517,-0.06441,0.020585,-0.019258,42.760761,14.661092,5.610315,4.63583E+18,0.608237,0.398652,0.555327,-0.403406,0
-9.619433,0.335438,1.244623,-0.254683,0.012029,0.041147,44.146212,-0.142246,13.102786,4.63583E+18,-0.746642,-0.062346,-0.660509,0.048644,-9.722316,1.419551,-0.355761,-0.122531,0.01175,-0.049058,38.379219,-25.690474,1.292224,4.63582E+18,-0.461385,0.45534,-0.557478,-0.51866,-9.753356,0.13096,0.561541,-0.059785,0.018677,-0.016541,42.921947,14.699599,5.775537,4.63583E+18,0.608267,0.398486,0.555499,-0.403288,0
-9.644912,0.342339,1.19473,-0.253708,0.015372,0.040543,44.149934,-0.265916,13.010964,4.63583E+18,-0.746668,-0.061665,-0.660604,0.047825,-9.629027,1.468375,-0.381916,-0.118641,0.011902,-0.048295,38.538767,-25.611132,1.097801,4.63582E+18,-0.461237,0.455706,-0.557151,-0.51882,-9.79626,0.179426,0.564502,-0.063798,0.019517,-0.017899,42.809486,14.819788,5.559501,4.63583E+18,0.6083,0.398307,0.555682,-0.403163,0
-9.700111,0.366754,1.146964,-0.254219,0.010588,0.039521,44.229018,-0.386394,13.015219,4.63583E+18,-0.746706,-0.060979,-0.660683,0.047008,-9.595019,1.514588,-0.423778,-0.120166,0.013886,-0.051119,38.697468,-25.616353,0.913838,4.63582E+18,-0.461088,0.456085,-0.55682,-0.518975,-9.805875,0.232311,0.56783,-0.069332,0.016055,-0.01709,42.689289,14.763563,5.349802,4.63583E+18,0.608352,0.398111,0.555863,-0.403028,0
-9.742037,0.365693,1.135288,-0.253105,0.004645,0.039521,44.225837,-0.427259,13.061921,4.63583E+18,-0.746759,-0.060295,-0.660742,0.046197,-9.595019,1.524182,-0.37843,-0.127338,0.013962,-0.049364,38.691367,-25.684376,0.746389,4.63582E+18,-0.460921,0.456474,-0.556477,-0.519149,-9.77517,0.180521,0.555252,-0.07723,0.012818,-0.016572,42.710006,14.587847,5.403443,4.63583E+18,0.608425,0.39789,0.556049,-0.40288,0
-9.734613,0.360382,1.167126,-0.251526,0.007197,0.039521,44.146227,-0.471831,13.01735,4.63583E+18,-0.746805,-0.059616,-0.660809,0.045389,-9.595019,1.49803,-0.377559,-0.130162,0.014878,-0.052644,38.612015,-25.684376,0.941684,4.63582E+18,-0.460754,0.456878,-0.556123,-0.519322,-9.762962,0.140202,0.567827,-0.070789,0.012559,-0.014436,42.795464,14.626331,5.586566,4.63583E+18,0.608491,0.39769,0.55622,-0.402741,0
-9.717093,0.366222,1.170853,-0.251572,0.02229,0.036735,44.149924,-0.512711,12.97647,4.63583E+18,-0.746807,-0.058933,-0.660922,0.044585,-9.596757,1.450074,-0.367091,-0.127722,0.013962,-0.05646,38.605933,-25.679163,1.10918,4.63582E+18,-0.460602,0.457284,-0.555765,-0.519483,-9.762593,0.173492,0.537496,-0.06862,0.010196,-0.012818,42.877947,14.764298,5.701599,4.63583E+18,0.608562,0.397496,0.556378,-0.402607,0
-9.729826,0.398055,1.10293,-0.254868,0.025406,0.032509,44.273565,-0.423579,12.970103,4.63583E+18,-0.7468,-0.058228,-0.661046,0.043785,-9.620303,1.418669,-0.379299,-0.12154,0.015259,-0.054399,38.532655,-25.605042,0.913843,4.63582E+18,-0.460453,0.457676,-0.555427,-0.519631,-9.775542,0.207896,0.51234,-0.069689,0.006118,-0.012041,42.894968,14.781318,5.606899,4.63583E+18,0.608646,0.397294,0.556527,-0.402475,0
-9.728778,0.414529,1.062044,-0.258538,0.016396,0.032647,44.266748,-0.303616,13.015184,4.63583E+18,-0.746818,-0.05751,-0.661141,0.042977,-9.630774,1.451814,-0.391504,-0.118185,0.018999,-0.053483,38.612015,-25.525681,0.732444,4.63582E+18,-0.460301,0.458067,-0.555104,-0.519766,-9.732259,0.147233,0.564127,-0.071792,0.008545,-0.009354,42.736277,14.661092,5.565832,4.63583E+18,0.608731,0.397096,0.55668,-0.402328,0
-9.717093,0.37738,1.093874,-0.261788,0.014489,0.035852,44.108043,-0.268563,13.061921,4.63583E+18,-0.746842,-0.056791,-0.66123,0.04215,-9.62204,1.439605,-0.40545,-0.112159,0.015946,-0.054324,38.605934,-25.531761,0.739394,4.63582E+18,-0.460168,0.458442,-0.554787,-0.519891,-9.75038,0.079159,0.61037,-0.074286,0.008028,-0.008545,42.616043,14.678836,5.663479,4.63583E+18,0.608824,0.396894,0.556835,-0.402173,0
-9.697995,0.354015,1.135813,-0.261047,0.026049,0.038499,44.197617,-0.35132,13.061921,4.63583E+18,-0.746834,-0.056083,-0.661353,0.041313,-9.659531,1.422186,-0.436861,-0.096598,0.01465,-0.052187,38.527434,-25.611132,0.816206,4.63582E+18,-0.460064,0.45878,-0.554506,-0.519987,-9.775173,0.118356,0.598544,-0.068395,0.006926,-0.008804,42.657436,14.734336,5.758176,4.63583E+18,0.608909,0.396704,0.556978,-0.402034,0
-9.674106,0.34765,1.115674,-0.258492,0.036363,0.039521,44.394047,-0.465446,13.112837,4.63583E+18,-0.746795,-0.055388,-0.661506,0.040479,-9.702284,1.340213,-0.400243,-0.073177,0.010833,-0.049899,38.550047,-25.59899,0.627847,4.63582E+18,-0.460008,0.459058,-0.554272,-0.52004,-9.777752,0.203813,0.561541,-0.063346,0.008028,-0.010131,42.766247,14.734336,5.80223,4.63583E+18,0.60898,0.396526,0.557117,-0.401909,0
-9.719179,0.335443,1.048272,-0.261276,0.022906,0.040635,44.26947,-0.589606,13.165945,4.63583E+18,-0.746794,-0.054685,-0.661617,0.039636,-9.666529,1.314864,-0.367956,-0.051353,0.012742,-0.04593,38.696601,-25.434158,0.544063,4.63582E+18,-0.459981,0.45929,-0.554096,-0.520046,-9.802927,0.271519,0.570409,-0.058456,0.00615,-0.012526,42.642371,14.752073,5.690179,4.63583E+18,0.609044,0.396351,0.557247,-0.401804,0
-9.778652,0.335964,1.032308,-0.26606,-0.003752,0.040544,44.117554,-0.715958,13.178152,4.63583E+18,-0.746867,-0.053963,-0.661645,0.038786,-9.646446,1.429132,-0.393234,-0.038681,0.011598,-0.045855,38.674006,-25.360837,0.648638,4.63582E+18,-0.45998,0.459495,-0.553946,-0.520025,-9.765923,0.268945,0.607032,-0.060367,0.006117,-0.014954,42.457348,14.789842,5.589461,4.63583E+18,0.609107,0.396166,0.557384,-0.401701,0
-9.764885,0.360896,1.10074,-0.270332,-0.017692,0.039521,44.155732,-0.756859,13.082188,4.63583E+18,-0.746978,-0.053222,-0.661629,0.03793,-9.676142,1.43701,-0.427259,-0.04143,0.009538,-0.044711,38.521371,-25.446288,0.816251,4.63582E+18,-0.459977,0.459698,-0.553788,-0.520017,-9.757055,0.237852,0.640697,-0.06211,0.009321,-0.015989,42.47804,14.716601,5.761127,4.63583E+18,0.609163,0.39598,0.557534,-0.401592,0
-9.735145,0.37843,1.179311,-0.275162,-0.017556,0.038408,44.108081,-0.756859,12.988677,4.63583E+18,-0.747088,-0.052463,-0.661614,0.037065,-9.616836,1.39251,-0.423796,-0.038378,0.008621,-0.042499,38.470635,-25.524815,0.620932,4.63582E+18,-0.459977,0.459889,-0.553639,-0.520008,-9.73521,0.241581,0.65329,-0.073668,0.010457,-0.019227,42.581213,14.699504,5.832184,4.63583E+18,0.609231,0.395759,0.557711,-0.401461,0
-9.703851,0.37843,1.214895,-0.277162,-0.006002,0.036828,44.032104,-0.756859,13.090472,4.63583E+18,-0.747166,-0.051695,-0.661635,0.036196,-9.583677,1.405583,-0.379295,-0.037915,0.009538,-0.039294,38.708722,-25.508279,0.439467,4.63582E+18,-0.459968,0.460073,-0.553498,-0.520002,-9.747807,0.171683,0.617058,-0.071736,0.00796,-0.017934,42.680815,14.855241,5.822931,4.63583E+18,0.609303,0.395541,0.557876,-0.401336,0
-9.686832,0.372069,1.182576,-0.278877,0.005431,0.03743,44.203845,-0.750498,13.279407,4.63583E+18,-0.747212,-0.050925,-0.66169,0.035318,-9.599341,1.427402,-0.389773,-0.045618,0.008621,-0.036241,38.844063,-25.434177,0.432552,4.63582E+18,-0.45994,0.460262,-0.553346,-0.520021,-9.726347,0.076986,0.567447,-0.048308,0.013851,-0.013369,42.618997,14.927883,5.846558,4.63583E+18,0.609331,0.395404,0.55801,-0.401244,0
-9.69904,0.372584,1.128411,-0.286489,0.007477,0.038453,44.361702,-0.833713,13.373468,4.63583E+18,-0.747253,-0.050135,-0.661752,0.034416,-9.657785,1.413466,-0.377565,-0.055544,0.009462,-0.035249,38.667974,-25.354776,0.348722,4.63582E+18,-0.45989,0.46047,-0.553175,-0.520064,-9.702327,0.026974,0.585955,-0.012715,0.017607,-0.010458,42.628254,14.78986,5.92059,4.63583E+18,0.609296,0.39537,0.558089,-0.401221,0
-9.711247,0.365708,1.117234,-0.294944,0.004138,0.03901,44.279013,-0.998245,13.334789,4.63583E+18,-0.747304,-0.049319,-0.661803,0.033489,-9.676149,1.376844,-0.364494,-0.055166,0.007704,-0.035098,38.458397,-25.360826,0.453294,4.63582E+18,-0.459843,0.460674,-0.553002,-0.520109,-9.641291,0.088009,0.594814,0.038882,0.022327,-0.005634,42.645971,14.755007,5.873343,4.63583E+18,0.609173,0.395486,0.558085,-0.401299,0
-9.729812,0.354015,1.084925,-0.300795,-0.002827,0.040634,44.158491,-1.029736,13.287503,4.63583E+18,-0.747374,-0.048489,-0.661832,0.032542,-9.622022,1.345403,-0.340945,-0.050278,0.010606,-0.033113,38.697339,-25.440228,0.655491,4.63582E+18,-0.459795,0.460869,-0.552848,-0.520141,-9.609779,0.169704,0.634385,0.0861,0.033852,-0.003204,42.698544,14.819788,5.704609,4.63583E+18,0.608949,0.395747,0.558028,-0.40146,0
-9.735148,0.373093,1.081633,-0.308362,-0.009191,0.045553,44.200227,-1.033315,13.237139,4.63583E+18,-0.747464,-0.047647,-0.66184,0.03156,-9.654333,1.383744,-0.330461,-0.05195,0.009387,-0.033037,38.844102,-25.434197,0.933793,4.63582E+18,-0.459746,0.461065,-0.552689,-0.520179,-9.667862,0.295528,0.67731,0.127814,0.041588,-0.005271,42.67158,14.837497,5.663432,4.63583E+18,0.608635,0.396122,0.557924,-0.401711,0
-9.697504,0.377918,1.129952,-0.31408,-0.011193,0.048022,44.238096,-1.074252,13.247078,4.63583E+18,-0.747559,-0.046795,-0.661841,0.030555,-9.630778,1.443063,-0.344396,-0.061715,0.006938,-0.031969,38.680082,-25.354776,0.993364,4.63582E+18,-0.459682,0.461272,-0.552506,-0.520247,-9.728492,0.368364,0.68992,0.120199,0.046776,-0.013557,42.636699,14.910737,5.758135,4.63583E+18,0.608308,0.396466,0.557859,-0.401957,0
-9.661905,0.391656,1.141137,-0.317329,-0.007343,0.046999,44.113987,-0.99159,13.287503,4.63583E+18,-0.747642,-0.04593,-0.661853,0.029544,-9.621165,1.475364,-0.381027,-0.07324,0.013734,-0.030976,38.623269,-25.36603,0.718593,4.63582E+18,-0.459578,0.461514,-0.552313,-0.52033,-9.79369,0.445771,0.67731,0.054416,0.040402,-0.019743,42.736914,14.986937,5.81998,4.63583E+18,0.608094,0.39662,0.557898,-0.402076,0
-9.66877,0.421409,1.135288,-0.32327,-0.009835,0.047555,44.114746,-0.915555,13.230798,4.63583E+18,-0.747732,-0.045047,-0.661856,0.028514,-9.644713,1.445766,-0.415052,-0.080952,0.011598,-0.031052,38.776765,-25.513474,0.550957,4.63582E+18,-0.459464,0.461766,-0.552099,-0.520434,-9.760022,0.371201,0.672219,0.015845,0.031822,-0.021879,42.850935,15.013373,5.813674,4.63583E+18,0.60796,0.396656,0.557984,-0.402124,0
-9.68047,0.414548,1.128933,-0.335195,-0.018847,0.049735,44.279778,-1.042668,13.139506,4.63583E+18,-0.747849,-0.044132,-0.661832,0.027447,-9.656922,1.35329,-0.41332,-0.077369,0.009538,-0.031817,38.856163,-25.50222,0.73937,4.63582E+18,-0.459364,0.462008,-0.551887,-0.520533,-9.741508,0.148112,0.57456,0.037724,0.027514,-0.022983,42.801183,14.872379,5.822931,4.63583E+18,0.607797,0.396737,0.558023,-0.402234,0
-9.68047,0.377421,1.15486,-0.348993,-0.020207,0.051827,44.361702,-1.159703,13.14939,4.63583E+18,-0.74797,-0.04318,-0.661803,0.026335,-9.667399,1.331471,-0.390637,-0.068673,0.008394,-0.028689,38.84925,-25.337492,0.816276,4.63582E+18,-0.459276,0.462224,-0.551698,-0.520619,-9.741508,0.044251,0.509354,0.047025,0.024639,-0.020847,42.616043,14.82823,5.802281,4.63583E+18,0.60763,0.396843,0.558037,-0.402364,0
-9.712249,0.366726,1.15234,-0.361298,-0.023164,0.054564,44.272724,-1.159703,13.196203,4.63583E+18,-0.7481,-0.042197,-0.661764,0.025181,-9.655193,1.346266,-0.3915,-0.057842,0.006182,-0.026553,38.75937,-25.121847,0.634785,4.63582E+18,-0.459209,0.462409,-0.551532,-0.52069,-9.750354,0.189009,0.545973,0.015392,0.017126,-0.018711,42.633737,14.949062,5.710939,4.63583E+18,0.607536,0.396861,0.55808,-0.402427,0
-9.747862,0.384784,1.129435,-0.375227,-0.029996,0.05828,44.23528,-1.242308,13.10089,4.63583E+18,-0.748251,-0.04118,-0.661702,0.023979,-9.643848,1.395101,-0.403709,-0.045855,0.003356,-0.024416,38.776763,-25.275375,0.641699,4.63582E+18,-0.459167,0.46256,-0.551391,-0.520742,-9.775181,0.180985,0.579646,-0.005419,0.012854,-0.017606,42.671595,15.086636,5.630562,4.63583E+18,0.607488,0.396821,0.558146,-0.402447,0
-9.747361,0.416054,1.135288,-0.387401,-0.026484,0.061484,44.276253,-1.407359,13.019446,4.63583E+18,-0.748392,-0.040134,-0.661651,0.022732,-9.648162,1.439611,-0.414189,-0.044485,0.005114,-0.02228,38.849261,-25.342698,0.732444,4.63582E+18,-0.459119,0.462708,-0.55126,-0.520791,-9.75118,0.091762,0.6247,-0.017271,0.008839,-0.018195,42.598352,14.910253,5.663409,4.63583E+18,0.607468,0.396744,0.558223,-0.402447,0
-9.76057,0.426758,1.128934,-0.396458,-0.023031,0.065245,44.238127,-1.527428,13.025299,4.63583E+18,-0.748524,-0.03907,-0.661609,0.021447,-9.705747,1.428266,-0.402844,-0.039371,0.002287,-0.020219,38.747307,-25.172673,0.717799,4.63582E+18,-0.459083,0.462835,-0.551139,-0.520838,-9.713726,0.099765,0.699189,0.000995,0.006409,-0.014438,42.545748,14.696028,5.761054,4.63583E+18,0.60743,0.396717,0.558257,-0.402484,0
-9.765425,0.389641,1.129434,-0.405002,-0.024567,0.070073,44.196654,-1.607017,12.98083,4.63583E+18,-0.748659,-0.037992,-0.66156,0.020125,-9.713642,1.427403,-0.40457,-0.037687,0.004273,-0.019151,38.599808,-25.031216,0.524918,4.63582E+18,-0.459043,0.462961,-0.551027,-0.52088,-9.738563,0.233174,0.647848,0.004643,0.004605,-0.013075,42.552063,14.596254,5.835139,4.63583E+18,0.607393,0.3967,0.558277,-0.402529,0
-9.734657,0.353517,1.154347,-0.414103,-0.018453,0.075413,44.197152,-1.692469,12.939848,4.63583E+18,-0.748778,-0.036902,-0.661527,0.018759,-9.669125,1.416059,-0.425536,-0.041733,0.004122,-0.018083,38.611867,-25.121826,0.532671,4.63582E+18,-0.458994,0.463092,-0.550908,-0.520932,-9.741083,0.372963,0.570802,-0.009943,-0.00081,-0.014144,42.542801,14.678766,5.858704,4.63583E+18,0.60739,0.396634,0.558311,-0.402551,0
-9.7298,0.354514,1.159204,-0.423717,-0.01393,0.080199,44.203007,-1.733451,12.990676,4.63583E+18,-0.748883,-0.035795,-0.661507,0.017351,-9.676164,1.415197,-0.40026,-0.043254,0.002061,-0.017015,38.776743,-25.275355,0.641676,4.63582E+18,-0.458944,0.463219,-0.550784,-0.520995,-9.766353,0.285006,0.564485,-0.033182,0,-0.014696,42.601685,14.734336,5.929854,4.63583E+18,0.607423,0.39651,0.558386,-0.40252,0
-9.716097,0.410691,1.141143,-0.432774,-0.032186,0.083359,44.285591,-1.771568,13.088329,4.63583E+18,-0.749038,-0.034667,-0.661428,0.015911,-9.615988,1.400406,-0.365361,-0.050128,0.001219,-0.016173,38.850134,-25.354776,0.732444,4.63582E+18,-0.458881,0.463355,-0.550645,-0.521076,-9.7293,0.14779,0.597295,-0.052778,0.000773,-0.014143,42.804609,14.7726,5.917647,4.63583E+18,0.607488,0.396339,0.558495,-0.40244,0
-9.641869,0.458025,1.179747,-0.446876,-0.048067,0.084939,44.361702,-1.851154,13.084356,4.63583E+18,-0.749236,-0.033498,-0.661297,0.01443,-9.575764,1.351582,-0.354875,-0.048232,0.002979,-0.018159,38.764694,-25.354776,0.725565,4.63582E+18,-0.458822,0.463496,-0.55051,-0.521146,-9.7293,0.016013,0.653742,-0.064233,0.00475,-0.014439,42.801307,14.910697,5.887774,4.63583E+18,0.607561,0.396145,0.558633,-0.402328,0
-9.550565,0.470232,1.233441,-0.462212,-0.028062,0.089897,44.31725,-1.892148,13.037507,4.63583E+18,-0.749379,-0.032296,-0.661227,0.012888,-9.646428,1.305332,-0.365362,-0.035264,0,-0.017858,38.69128,-25.348757,0.627906,4.63582E+18,-0.458794,0.463605,-0.550398,-0.521192,-9.738129,-0.075314,0.565793,-0.07374,0.012446,-0.012045,42.577788,14.966276,5.77879,4.63583E+18,0.607636,0.395945,0.558804,-0.402174,0
-9.522267,0.463389,1.181657,-0.471738,-0.009613,0.094553,44.238153,-1.854049,12.986709,4.63583E+18,-0.74947,-0.031078,-0.661212,0.011302,-9.679611,1.299144,-0.354015,-0.020686,0.00015,-0.013886,38.770714,-25.263306,0.530247,4.63582E+18,-0.458785,0.463677,-0.550325,-0.521212,-9.774748,-0.138102,0.44623,-0.069725,0.02265,-0.009871,42.457348,14.966276,5.686892,4.63583E+18,0.607685,0.395778,0.558989,-0.402008,0
-9.546682,0.464374,1.135781,-0.479771,-0.014614,0.095065,44.241107,-1.857002,12.895399,4.63583E+18,-0.749573,-0.029836,-0.661178,0.009693,-9.666547,1.376672,-0.354873,-0.011449,0.001986,-0.013961,38.775864,-25.183872,0.446334,4.63582E+18,-0.45879,0.463736,-0.550276,-0.521208,-9.811373,-0.026161,0.411236,-0.069611,0.028249,-0.010681,42.498547,14.94862,5.87928,4.63583E+18,0.607719,0.395618,0.55919,-0.401834,0
-9.558396,0.482439,1.153846,-0.487205,-0.015893,0.091732,44.238153,-2.063592,12.860745,4.63583E+18,-0.749677,-0.028561,-0.661138,0.008075,-9.644707,1.502369,-0.368797,-0.007627,0,-0.015179,38.855975,-25.195891,0.543993,4.63582E+18,-0.45881,0.463786,-0.550228,-0.521195,-9.836225,0.157369,0.505501,-0.083341,0.034399,-0.011196,42.607665,14.893032,5.99472,4.63583E+18,0.60776,0.395433,0.55943,-0.40162,0
-9.602835,0.481948,1.140658,-0.494168,-0.013373,0.088656,44.158568,-2.304276,12.872952,4.63583E+18,-0.749771,-0.027257,-0.661104,0.006446,-9.655198,1.506851,-0.402844,-0.010289,0,-0.018384,39.020012,-25.342759,0.627918,4.63582E+18,-0.458831,0.463849,-0.550169,-0.521183,-9.832841,0.262682,0.586401,-0.107984,0.037939,-0.014104,42.560443,14.910675,5.897066,4.63583E+18,0.607829,0.395184,0.559725,-0.40135,0
-9.681939,0.437998,1.110384,-0.499423,-0.02444,0.091434,44.117554,-2.297915,12.872462,4.63583E+18,-0.749894,-0.025943,-0.661032,0.004796,-9.647276,1.416059,-0.400273,-0.018702,0.000075,-0.021363,39.076963,-25.177873,0.53027,4.63582E+18,-0.458843,0.463934,-0.550086,-0.521184,-9.830786,0.223559,0.546392,-0.122798,0.037604,-0.018931,42.616043,14.986865,5.846461,4.63583E+18,0.607914,0.394886,0.560052,-0.401057,0
-9.685352,0.339361,1.117711,-0.497628,-0.03307,0.092331,44.161993,-2.348714,12.923738,4.63583E+18,-0.750036,-0.024636,-0.66093,0.003148,-9.690107,1.417773,-0.368793,-0.0116,0.000993,-0.021588,38.917411,-25.093279,0.439467,4.63582E+18,-0.458867,0.464009,-0.55002,-0.521167,-9.760042,0.170457,0.519485,-0.130672,0.041401,-0.021877,42.601343,15.031147,5.991154,4.63583E+18,0.607999,0.394568,0.560406,-0.400748,0
-9.656056,0.261727,1.154331,-0.491775,-0.017048,0.092459,44.164922,-2.592848,13.033598,4.63583E+18,-0.750131,-0.023349,-0.660875,0.001515,-9.656056,1.437046,-0.404558,-0.009313,-0.000225,-0.024567,38.753365,-25.036317,0.439467,4.63582E+18,-0.458904,0.464084,-0.54995,-0.521141,-9.738567,0.204586,0.475642,-0.145268,0.039303,-0.025557,42.555008,14.928054,6.237089,4.63583E+18,0.608106,0.3942,0.560785,-0.400417,0
-9.668751,0.218758,1.152868,-0.488656,0.000683,0.093997,44.002812,-2.754477,13.041903,4.63583E+18,-0.750173,-0.022075,-0.660872,-0.000117,-9.65349,1.39421,-0.423837,-0.005041,-0.002905,-0.024567,38.691249,-25.195848,0.432623,4.63582E+18,-0.458956,0.464144,-0.549885,-0.521111,-9.7293,0.198258,0.512711,-0.137037,0.034992,-0.033073,42.555008,14.828159,6.287709,4.63583E+18,0.608197,0.393828,0.561152,-0.400131,0
-9.693164,0.169931,1.103554,-0.487588,0.003162,0.092331,43.847534,-2.795495,13.000884,4.63583E+18,-0.750206,-0.020801,-0.660875,-0.00174,-9.617725,1.427412,-0.380138,-0.001442,0.000919,-0.024941,38.770714,-25.354776,0.335829,4.63582E+18,-0.459007,0.464207,-0.549834,-0.521064,-9.7293,0.254539,0.518588,-0.111602,0.034695,-0.037088,42.55207,14.94886,6.187123,4.63583E+18,0.60824,0.393511,0.561481,-0.399915,0
-9.71123,0.146489,1.125009,-0.4843,0.001026,0.086906,43.89485,-2.877976,12.956472,4.63583E+18,-0.750241,-0.019521,-0.660868,-0.003338,-9.599289,1.418621,-0.400282,-0.006409,-0.001218,-0.030058,38.781815,-25.342821,0.269165,4.63582E+18,-0.459064,0.464287,-0.549758,-0.521022,-9.7293,0.405782,0.543001,-0.123248,0.034775,-0.041064,42.542801,15.124972,6.103702,4.63583E+18,0.608295,0.393155,0.561837,-0.399681,0
-9.698063,0.165519,1.203627,-0.48229,0.002775,0.082205,43.971066,-3.042997,12.864687,4.63583E+18,-0.750268,-0.018235,-0.660864,-0.004915,-9.655204,1.460354,-0.366222,-0.007901,-0.003204,-0.032492,38.934525,-25.172789,0.459929,4.63582E+18,-0.459128,0.46437,-0.54967,-0.520983,-9.720486,0.323963,0.579171,-0.15591,0.029651,-0.045673,42.56337,15.069144,6.10664,4.63583E+18,0.608408,0.392697,0.562242,-0.399391,0
-9.674127,0.252895,1.18854,-0.488909,0.004231,0.080624,44.053539,-3.080687,12.817774,4.63583E+18,-0.750288,-0.016924,-0.660862,-0.006506,-9.640438,1.555727,-0.367075,-0.028443,-0.002906,-0.038901,38.991571,-25.031145,0.725623,4.63582E+18,-0.459166,0.464509,-0.549526,-0.520979,-9.698553,-0.007436,0.637722,-0.146047,0.030639,-0.042806,42.593007,14.890095,6.162905,4.63583E+18,0.608507,0.392272,0.562627,-0.399115,0
-9.687295,0.368144,1.166528,-0.506764,-0.005677,0.082331,44.256643,-2.912765,12.906589,4.63583E+18,-0.750334,-0.015561,-0.660826,-0.00815,-9.597577,1.459773,-0.376725,-0.037161,0.001143,-0.045086,38.832874,-25.115743,0.621145,4.63582E+18,-0.459191,0.464687,-0.549359,-0.520974,-9.731779,-0.125928,0.632306,-0.100309,0.035803,-0.034775,42.443578,14.936632,6.355286,4.63583E+18,0.608532,0.39199,0.562937,-0.398917,0
-9.685856,0.465797,1.196805,-0.525267,-0.017771,0.086604,44.291449,-2.92236,12.99502,4.63583E+18,-0.75041,-0.014153,-0.660747,-0.009858,-9.632492,1.389091,-0.353164,-0.034106,0.00236,-0.047992,38.691219,-25.183872,0.432657,4.63582E+18,-0.459225,0.464868,-0.549195,-0.520955,-9.769319,-0.108027,0.544839,-0.08138,0.034181,-0.028366,42.340688,15.112765,6.494339,4.63583E+18,0.60854,0.391769,0.5632,-0.39875,0
-9.655577,0.55077,1.259279,-0.536933,-0.014703,0.087546,44.126409,-3.21091,12.912079,4.63583E+18,-0.750475,-0.012711,-0.660674,-0.011601,-9.646402,1.355022,-0.341807,-0.032591,0.005266,-0.047147,38.781778,-25.183872,0.348616,4.63582E+18,-0.459254,0.465051,-0.549042,-0.520928,-9.750315,-0.306263,0.394501,-0.057451,0.035465,-0.02093,42.434477,15.077536,6.494339,4.63583E+18,0.608519,0.391628,0.563414,-0.398618,0
-9.618482,0.624006,1.318876,-0.54599,0.003108,0.08652,44.126753,-3.324851,12.728514,4.63583E+18,-0.750488,-0.011237,-0.660653,-0.013367,-9.677066,1.356724,-0.343509,-0.025784,0.004198,-0.049135,38.929409,-25.177915,0.439467,4.63582E+18,-0.459303,0.465223,-0.548897,-0.520884,-9.789873,-0.393423,0.353086,-0.035681,0.039778,-0.011277,42.557944,14.928111,6.494339,4.63583E+18,0.608468,0.391572,0.563588,-0.398506,0
-9.588679,0.6592,1.279885,-0.554534,0.020543,0.087075,44.247389,-3.283792,12.685385,4.63583E+18,-0.750449,-0.009736,-0.660683,-0.015158,-9.629092,1.376888,-0.368771,-0.027846,0.003353,-0.049209,38.929409,-25.093323,0.439467,4.63582E+18,-0.45935,0.465398,-0.548746,-0.520846,-9.83283,-0.085777,0.453678,-0.054325,0.039305,-0.005381,42.52612,14.84574,6.473791,4.63583E+18,0.608458,0.391482,0.563781,-0.398336,0
-9.620858,0.627495,1.175878,-0.560861,0.02171,0.092027,44.250413,-3.366225,12.833778,4.63583E+18,-0.750403,-0.00823,-0.660711,-0.016983,-9.595019,1.339416,-0.405393,-0.028543,0.004969,-0.050426,38.940455,-25.019229,0.432669,4.63582E+18,-0.459395,0.46558,-0.548594,-0.520803,-9.839637,0.197782,0.528323,-0.098885,0.034735,-0.00265,42.413918,15.004422,6.405953,4.63583E+18,0.608536,0.391278,0.564033,-0.398061,0
-9.637033,0.585481,1.104058,-0.562914,0.007658,0.100572,44.177169,-3.569308,12.984709,4.63583E+18,-0.750391,-0.006741,-0.660692,-0.018839,-9.59332,1.299082,-0.439467,-0.024865,-0.000223,-0.05363,39.105096,-24.944821,0.341807,4.63582E+18,-0.459465,0.465751,-0.548434,-0.520757,-9.823082,0.261752,0.479966,-0.145882,0.031829,-0.00607,42.528234,15.086831,6.417217,4.63583E+18,0.608692,0.390941,0.56436,-0.397689,0
-9.619433,0.516685,1.099139,-0.56014,-0.003842,0.107452,44.180012,-3.731018,12.986785,4.63583E+18,-0.750405,-0.005281,-0.660632,-0.020709,-9.569756,1.368077,-0.436074,-0.029211,-0.003056,-0.05676,39.321226,-25.018907,0.341807,4.63582E+18,-0.45954,0.465932,-0.548253,-0.520719,-9.882131,0.317392,0.412119,-0.192107,0.026232,-0.013289,42.657979,14.945747,6.485064,4.63583E+18,0.608924,0.390461,0.564761,-0.397236,0
-9.625774,0.406819,1.123554,-0.555909,-0.010292,0.110574,44.215214,-3.81647,12.895466,4.63583E+18,-0.750433,-0.003843,-0.660549,-0.022576,-9.563485,1.376892,-0.388093,-0.033958,-0.001068,-0.058674,39.161684,-25.098421,0.362162,4.63582E+18,-0.459606,0.46613,-0.548062,-0.520685,-9.854783,0.285131,0.414576,-0.229229,0.020593,-0.019698,42.405509,14.898422,6.497271,4.63583E+18,0.609219,0.389862,0.56522,-0.39672,0
-9.656999,0.334996,1.135288,-0.552705,-0.014441,0.108869,44.259591,-3.895577,12.854396,4.63583E+18,-0.750469,-0.002411,-0.66045,-0.02443,-9.633335,1.342814,-0.354861,-0.030532,-0.001068,-0.057902,38.996728,-25.093341,0.640712,4.63582E+18,-0.459676,0.46632,-0.54788,-0.520645,-9.818161,0.183111,0.448741,-0.241401,0.017132,-0.025851,42.164371,14.974599,6.530009,4.63583E+18,0.60953,0.389212,0.565699,-0.396196,0
-9.68047,0.279364,1.166979,-0.548946,-0.016618,0.102378,44.383061,-3.97515,12.9051,4.63583E+18,-0.750506,-0.000973,-0.660341,-0.026252,-9.658597,1.344508,-0.366222,-0.023975,-0.001142,-0.061329,38.906194,-25.013323,0.699915,4.63582E+18,-0.459767,0.466505,-0.547705,-0.520583,-9.766878,0.200706,0.448264,-0.24448,0.011833,-0.031448,42.205426,15.018994,6.648192,4.63583E+18,0.60985,0.388531,0.566178,-0.395688,0
-9.68047,0.218799,1.196326,-0.542456,-0.016495,0.092724,44.459362,-4.060597,12.952055,4.63583E+18,-0.750541,0.000472,-0.660229,-0.028027,-9.694372,1.378237,-0.365375,-0.016763,-0.002062,-0.067293,38.75258,-24.848346,0.413711,4.63582E+18,-0.459887,0.466688,-0.547532,-0.520495,-9.678022,0.241699,0.484883,-0.252167,0.003289,-0.036574,42.352862,14.957,6.787316,4.63583E+18,0.610193,0.387805,0.566656,-0.395188,0
-9.718495,0.195318,1.196326,-0.542228,-0.01939,0.086479,44.421339,-4.184073,12.907693,4.63583E+18,-0.750581,0.001932,-0.660105,-0.029781,-9.71794,1.529312,-0.354015,-0.027963,-0.000624,-0.067293,38.684905,-24.774747,0.245485,4.63582E+18,-0.459982,0.466896,-0.547337,-0.520429,-9.625779,0.183594,0.495125,-0.239775,-0.002179,-0.037385,42.405589,14.983862,6.74042,4.63583E+18,0.610526,0.387098,0.5671,-0.394727,0
-9.79174,0.207993,1.202663,-0.560241,-0.040135,0.088224,44.297396,-4.342769,12.828579,4.63583E+18,-0.750673,0.003442,-0.65991,-0.03159,-9.730144,1.56294,-0.354015,-0.04597,0.005488,-0.067589,38.854927,-24.848366,0.428103,4.63582E+18,-0.460029,0.467152,-0.547115,-0.520392,-9.624804,0.14063,0.457044,-0.217518,0.000555,-0.037898,42.454904,15.004367,6.612504,4.63583E+18,0.610816,0.386452,0.567515,-0.394316,0
-9.839634,0.257757,1.208533,-0.583577,-0.07107,0.094674,44.094804,-4.463441,12.793359,4.63583E+18,-0.750845,0.005003,-0.659611,-0.033483,-9.737281,1.39878,-0.352324,-0.060884,0.007551,-0.071344,39.007727,-24.768822,0.425942,4.63582E+18,-0.46005,0.467449,-0.546857,-0.520378,-9.686327,0.107432,0.521496,-0.202565,-0.000812,-0.038753,42.643389,14.893032,6.724305,4.63583E+18,0.611083,0.385838,0.567903,-0.393944,0
-9.832365,0.350007,1.271899,-0.598921,-0.094878,0.102151,44.06565,-4.504532,12.742666,4.63583E+18,-0.751076,0.006587,-0.659231,-0.035443,-9.676245,1.323,-0.330445,-0.060737,0.008471,-0.068066,39.070826,-24.768822,0.257671,4.63582E+18,-0.460062,0.467741,-0.546607,-0.520367,-9.716599,0.034681,0.528834,-0.188124,0.000512,-0.035036,42.456463,15.057024,6.852269,4.63583E+18,0.61133,0.385273,0.568264,-0.393594,0
-9.783077,0.459861,1.419299,-0.610115,-0.090861,0.10741,44.262339,-4.504532,12.645019,4.63583E+18,-0.75129,0.008193,-0.658858,-0.037449,-9.617746,1.219897,-0.340963,-0.058896,0.007477,-0.064089,39.008562,-24.774728,0.439467,4.63582E+18,-0.460071,0.468018,-0.546367,-0.520362,-9.771284,-0.098607,0.449241,-0.174794,0.002136,-0.030208,41.659085,15.740619,6.743395,4.63583E+18,0.611559,0.384755,0.5686,-0.393261,0
-9.747381,0.519045,1.526848,-0.613036,-0.070729,0.110614,44.253558,-4.548873,12.553699,4.63583E+18,-0.751443,0.009803,-0.658543,-0.039472,-9.594175,1.21444,-0.3296,-0.061697,0.007699,-0.063941,39.094011,-24.865242,0.432716,4.63582E+18,-0.460073,0.468301,-0.546122,-0.520363,-9.832814,-0.291479,0.414552,-0.157536,0.002905,-0.026491,41.084764,16.298312,6.651037,4.63583E+18,0.611764,0.384291,0.568902,-0.392958,0
-9.728841,0.550253,1.506005,-0.609872,-0.056925,0.113818,43.970962,-4.634319,12.563258,4.63583E+18,-0.751553,0.011396,-0.658268,-0.041496,-9.58703,1.300734,-0.331287,-0.07448,0.010386,-0.062322,39.17862,-25.007064,0.335058,4.63582E+18,-0.460041,0.46861,-0.545857,-0.520391,-9.845521,-0.39699,0.489724,-0.135274,0.00867,-0.022175,40.991033,16.454081,6.82294,4.63583E+18,0.611926,0.383903,0.569176,-0.392687,0
-9.704427,0.59908,1.426891,-0.607182,-0.05515,0.113143,43.983361,-4.675436,12.610248,4.63583E+18,-0.751653,0.012982,-0.657994,-0.04351,-9.640479,1.399224,-0.360753,-0.101475,0.006556,-0.067809,39.240907,-24.916568,0.257624,4.63582E+18,-0.459977,0.468975,-0.545515,-0.520477,-9.832813,-0.270145,0.61915,-0.128002,0.019739,-0.022899,40.849901,16.565447,6.897183,4.63583E+18,0.61205,0.38355,0.569468,-0.392417,0
-9.66101,0.616244,1.397978,-0.602869,-0.068724,0.108316,44.268646,-4.80211,12.616581,4.63583E+18,-0.751787,0.014566,-0.657674,-0.045498,-9.600905,1.498988,-0.454196,-0.131859,0.008839,-0.075212,39.16135,-24.774707,0.439467,4.63582E+18,-0.459865,0.46942,-0.545097,-0.520614,-9.842598,0.146382,0.667471,-0.147907,0.021107,-0.028796,40.828817,16.416246,6.900108,4.63583E+18,0.612192,0.383135,0.569804,-0.392112,0
-9.612643,0.553374,1.435516,-0.595866,-0.082962,0.101314,44.341789,-5.046242,12.628788,4.63583E+18,-0.751956,0.016145,-0.657305,-0.047444,-9.686346,1.459013,-0.488296,-0.1537,0.012965,-0.081032,39.155474,-24.848397,0.432751,4.63582E+18,-0.459712,0.469929,-0.544628,-0.52078,-9.791349,0.363802,0.70904,-0.170859,0.020551,-0.03358,41.026554,15.907762,6.929869,4.63583E+18,0.612363,0.382649,0.570184,-0.391766,0
-9.569675,0.430807,1.509241,-0.583438,-0.089251,0.089994,44.26265,-5.208084,12.539622,4.63583E+18,-0.752141,0.017714,-0.656915,-0.049322,-9.757528,1.366006,-0.490814,-0.166337,0.014807,-0.078969,39.070021,-24.75707,0.335092,4.63582E+18,-0.459526,0.470461,-0.544139,-0.520975,-9.693692,0.308617,0.634785,-0.174876,0.022899,-0.039221,41.188791,15.907536,6.991917,4.63583E+18,0.612527,0.382142,0.570585,-0.391421,0
-9.539849,0.32818,1.588382,-0.571293,-0.086909,0.076658,44.265463,-5.287225,12.400829,4.63583E+18,-0.752319,0.019281,-0.656529,-0.051124,-9.637972,1.174885,-0.530794,-0.163754,0.013112,-0.078636,38.985411,-24.603793,0.250024,4.63582E+18,-0.459348,0.470983,-0.543653,-0.521168,-9.616509,0.269074,0.652329,-0.179104,0.027004,-0.043449,41.079444,16.239793,7.008951,4.63583E+18,0.612679,0.381622,0.57101,-0.39107,0
-9.540322,0.235922,1.604566,-0.571069,-0.080542,0.068279,44.262629,-5.322428,12.404609,4.63583E+18,-0.752477,0.020873,-0.656158,-0.052898,-9.550843,1.059908,-0.607013,-0.188822,0.019073,-0.089204,38.923077,-24.695119,0.323725,4.63582E+18,-0.45913,0.471591,-0.543102,-0.521385,-9.604303,0.237788,0.693411,-0.173789,0.029172,-0.048112,41.04406,16.101717,7.112967,4.63583E+18,0.612811,0.381107,0.571439,-0.39074,0
-9.615916,0.138739,1.574285,-0.578546,-0.094614,0.066225,44.138678,-5.240023,12.400841,4.63583E+18,-0.752669,0.02249,-0.655738,-0.054688,-9.449368,1.202191,-0.546457,-0.273258,0.047177,-0.110721,39.013548,-24.848407,0.224875,4.63582E+18,-0.458728,0.472468,-0.542379,-0.521696,-9.633013,0.215439,0.576851,-0.127352,0.046607,-0.044862,41.26498,15.907618,7.154573,4.63583E+18,0.612832,0.380747,0.571832,-0.390484,0
-9.750198,0.097659,1.587903,-0.588796,-0.144407,0.065116,43.974114,-5.163732,12.252471,4.63583E+18,-0.752992,0.024131,-0.655155,-0.056506,-9.470793,1.252449,-0.33259,-0.279403,0.061596,-0.10516,39.173081,-24.762956,-0.042488,4.63582E+18,-0.458269,0.473376,-0.54168,-0.522003,-9.777096,0.044536,0.310176,-0.087212,0.053498,-0.045374,40.974948,16.060469,7.10952,4.63583E+18,0.612772,0.380499,0.572177,-0.390313,0
-9.846439,0.154695,1.643064,-0.603276,-0.204525,0.058544,43.942183,-5.334839,12.171248,4.63583E+18,-0.753474,0.025821,-0.654375,-0.058348,-9.611415,0.856194,-0.20585,-0.197367,0.026452,-0.097348,39.331415,-24.67164,-0.110346,4.63582E+18,-0.458034,0.474032,-0.541107,-0.522208,-9.825071,-0.073762,0.194284,-0.075838,0.046487,-0.046487,40.166495,16.121686,7.228671,4.63583E+18,0.612708,0.380266,0.572488,-0.390184,0
-9.888461,0.302564,1.767453,-0.61597,-0.255113,0.0462,44.103655,-5.575698,12.132301,4.63583E+18,-0.75409,0.027572,-0.653426,-0.060192,-9.671604,0.909832,-0.190627,-0.151632,0.008399,-0.099776,39.308354,-24.507456,0.061356,4.63582E+18,-0.457934,0.474568,-0.540594,-0.52234,-9.747351,-0.036622,0.286094,-0.080185,0.043073,-0.043584,40.13527,15.96248,7.306391,4.63583E+18,0.612665,0.380024,0.572792,-0.390042,0
-9.919212,0.511019,1.899877,-0.62392,-0.289915,0.03675,44.297582,-5.614012,11.983955,4.63583E+18,-0.754796,0.029365,-0.65236,-0.062031,-9.71793,1.369081,-0.291305,-0.168563,0.007433,-0.106039,39.14998,-24.444241,0.232777,4.63582E+18,-0.457817,0.475147,-0.54003,-0.522501,-9.742563,-0.153422,0.341807,-0.093997,0.037641,-0.03901,41.187571,15.837504,7.25862,4.63583E+18,0.612663,0.379748,0.573098,-0.389864,0
-9.949498,0.660593,1.934641,-0.627003,-0.306207,0.031409,44.373913,-5.623135,11.845659,4.63583E+18,-0.755541,0.031178,-0.651236,-0.063863,-9.730971,1.888807,-0.275243,-0.211914,0.021874,-0.110019,39.172205,-24.518312,0.224943,4.63582E+18,-0.457589,0.475849,-0.539391,-0.522722,-9.6595,-0.501549,0.335965,-0.09093,0.039476,-0.038663,41.809003,15.714895,7.168667,4.63583E+18,0.612653,0.379484,0.573402,-0.38969,0
-9.973913,0.619791,1.890754,-0.623122,-0.332452,0.029394,44.291545,-5.790953,11.810895,4.63583E+18,-0.756352,0.032976,-0.650024,-0.065681,-9.754551,1.818267,-0.373737,-0.248642,0.028548,-0.111261,39.325891,-24.586227,-0.043302,4.63582E+18,-0.457276,0.476637,-0.538681,-0.523009,-9.669611,-0.281221,0.367045,-0.083479,0.043493,-0.041959,41.650312,15.667415,7.154587,4.63583E+18,0.612616,0.379237,0.57371,-0.389535,0
-10.023666,0.473312,1.855525,-0.613428,-0.380205,0.03268,44.177204,-5.99074,11.72174,4.63583E+18,-0.757286,0.034722,-0.648659,-0.067489,-9.770932,1.457893,-0.475254,-0.272541,0.023837,-0.128178,39.393809,-24.422004,-0.121758,4.63582E+18,-0.456962,0.477499,-0.537875,-0.523326,-9.799096,0.267781,0.536597,-0.104077,0.04593,-0.042076,41.509149,15.796126,7.103651,4.63583E+18,0.612605,0.378942,0.574058,-0.389328,0
-10.039899,0.295172,1.937863,-0.600017,-0.426401,0.040791,44.217975,-6.029077,11.430978,4.63583E+18,-0.758337,0.036391,-0.647147,-0.069292,-9.836666,1.184656,-0.468883,-0.24334,0.013011,-0.128251,39.240427,-24.358771,0.04883,4.63582E+18,-0.45673,0.47828,-0.537112,-0.523599,-9.791924,0.490412,0.582507,-0.143271,0.04823,-0.052502,41.347786,16.083794,7.177953,4.63583E+18,0.612633,0.378525,0.574491,-0.389049,0
-10.003277,0.138315,2.077559,-0.591714,-0.46426,0.052581,44.28846,-6.000169,11.046673,4.63583E+18,-0.759482,0.03799,-0.645513,-0.071115,-9.790875,1.033757,-0.546295,-0.214848,0.000558,-0.130486,39.330882,-24.427013,0.030491,4.63582E+18,-0.456587,0.478985,-0.536382,-0.523828,-9.68047,0.260077,0.636641,-0.110532,0.060907,-0.06237,40.98583,16.295289,7.201305,4.63583E+18,0.612563,0.378189,0.574919,-0.388854,0
-9.979322,0.060114,2.14263,-0.593457,-0.532727,0.065399,44.28846,-6.08839,10.820248,4.63583E+18,-0.760798,0.039539,-0.643657,-0.072994,-9.619972,1.157499,-0.674741,-0.269891,-0.006628,-0.15127,39.478741,-24.410342,-0.239739,4.63582E+18,-0.456395,0.479824,-0.535477,-0.524153,-9.721309,0.026254,0.673564,-0.040193,0.076188,-0.072029,40.847271,16.389247,7.322285,4.63583E+18,0.61233,0.378034,0.575287,-0.388827,0
-9.916445,0.112626,2.256175,-0.606556,-0.63487,0.074337,44.370797,-6.335748,10.741135,4.63583E+18,-0.762375,0.041075,-0.641467,-0.074952,-9.45907,1.287317,-0.6994,-0.397596,-0.009613,-0.205475,39.472907,-24.171197,-0.493541,4.63582E+18,-0.456072,0.48102,-0.534177,-0.524665,-9.833868,0.130291,0.49574,-0.032284,0.066157,-0.075885,40.988469,16.315999,7.470931,4.63583E+18,0.612102,0.377873,0.575623,-0.388846,0
-9.80026,0.271762,2.526998,-0.633497,-0.732293,0.078569,44.573799,-6.576657,10.560252,4.63583E+18,-0.764194,0.042654,-0.63895,-0.077011,-9.438819,1.181348,-0.415052,-0.415145,-0.011361,-0.227054,39.399116,-24.017787,-0.231941,4.63582E+18,-0.455762,0.482292,-0.532789,-0.525177,-9.781046,0.058233,0.367844,0.049181,0.050808,-0.072634,41.035997,16.239844,7.494264,4.63583E+18,0.611788,0.377904,0.575782,-0.389075,0
-9.703514,0.417337,2.888261,-0.66384,-0.828666,0.082881,44.640645,-6.532722,10.171832,4.63583E+18,-0.76625,0.044286,-0.636106,-0.07918,-9.469617,0.989074,-0.413388,-0.414464,-0.036123,-0.253805,39.501207,-24.096582,-0.264392,4.63582E+18,-0.455566,0.483565,-0.531301,-0.525684,-9.764087,-0.375513,0.233022,0.139833,0.035211,-0.064212,40.980251,16.195226,7.565673,4.63583E+18,0.611382,0.37816,0.575741,-0.389525,0
-9.642934,0.552075,3.253567,-0.690503,-0.936749,0.088222,44.549319,-6.383101,9.639213,4.63583E+18,-0.768568,0.045953,-0.632895,-0.081455,-9.427443,1.157207,-0.369837,-0.474136,-0.048795,-0.311145,39.813334,-24.068567,-0.727997,4.63582E+18,-0.455401,0.485049,-0.52954,-0.526237,-9.668804,-0.322471,0.179113,0.176962,-0.0145,-0.030494,40.994835,16.298179,7.509715,4.63583E+18,0.611091,0.37851,0.57546,-0.390055,0
-9.543456,0.647904,3.696659,-0.713367,-1.041102,0.091347,44.590503,-6.47448,9.173133,4.63583E+18,-0.771137,0.047648,-0.629326,-0.083819,-9.47959,1.105638,-0.060533,-0.487584,-0.057076,-0.378721,39.875774,-23.824446,-1.001007,4.63582E+18,-0.455372,0.486686,-0.527593,-0.526705,-9.634558,-0.177278,0.235399,0.274259,-0.076082,0.00549,41.020875,16.418957,7.293988,4.63583E+18,0.610853,0.379095,0.574806,-0.390825,0
-9.327321,0.665076,4.284437,-0.735324,-1.092361,0.097955,44.787188,-6.64265,8.794248,4.63583E+18,-0.773811,0.049377,-0.625568,-0.086269,-9.583062,0.881675,0.276618,-0.496224,-0.030983,-0.450577,39.806932,-23.59608,-0.987719,4.63582E+18,-0.455422,0.488552,-0.525528,-0.526999,-9.620529,-0.106228,0.178377,0.24692,-0.120668,0.074943,40.935434,16.398553,7.05989,4.63583E+18,0.610876,0.379703,0.573973,-0.391422,0
-9.059245,0.64654,4.779883,-0.753836,-1.079264,0.109149,44.85452,-6.607367,8.35935,4.63583E+18,-0.77642,0.05114,-0.621829,-0.088798,-9.750399,1.127917,0.201492,-0.523691,0.017026,-0.527133,39.959805,-23.56812,-0.818955,4.63582E+18,-0.455476,0.490738,-0.523333,-0.527106,-9.607401,-0.087619,0.044644,0.137619,-0.150432,0.179573,40.911195,16.278124,6.994842,4.63583E+18,0.611313,0.380234,0.573076,-0.391537,0
-8.802903,0.59048,4.949876,-0.761075,-1.081637,0.124814,44.807048,-6.657547,7.940251,4.63583E+18,-0.779004,0.052884,-0.618064,-0.091394,-9.697424,1.734966,-0.065411,-0.592362,0.079195,-0.61445,40.028076,-23.318171,-1.021734,4.63582E+18,-0.45544,0.493376,-0.520921,-0.527063,-9.869663,-0.698695,-0.053352,0.0373,-0.187667,0.292848,41.079226,16.084055,7.038615,4.63583E+18,0.612182,0.380718,0.572068,-0.391183,0
-8.698454,0.561993,5.038949,-0.762697,-1.130695,0.159511,44.845481,-6.94602,7.624648,4.63583E+18,-0.781676,0.054523,-0.614127,-0.094115,-9.614884,2.254231,-0.307049,-0.676391,0.1421,-0.714519,40.038008,-22.999368,-1.299571,4.63582E+18,-0.455308,0.496522,-0.51823,-0.526876,-10.121251,-1.097352,0.060502,-0.047318,-0.214511,0.426737,41.199986,16.010811,7.154608,4.63583E+18,0.613466,0.381261,0.570915,-0.390327,0
-8.722415,0.573748,5.177744,-0.755419,-1.236435,0.223635,44.924598,-7.149014,7.248504,4.63583E+18,-0.784568,0.055931,-0.609841,-0.097047,-9.900411,2.192367,-0.518711,-0.70744,0.173855,-0.839057,40.185323,-22.828465,-1.215154,4.63582E+18,-0.455308,0.500056,-0.515263,-0.526444,-10.29162,-0.877374,0.121005,-0.13866,-0.23058,0.571749,41.240841,15.899631,7.059867,4.63583E+18,0.615165,0.381887,0.569636,-0.388907,0
-8.639704,0.51047,5.205785,-0.738291,-1.404308,0.302115,45.080094,-7.240783,6.72185,4.63583E+18,-0.787827,0.057013,-0.605007,-0.100226,-10.077718,2.135655,-0.775676,-0.677413,0.202419,-0.958114,40.344001,-22.635272,-1.319412,4.63582E+18,-0.455559,0.503839,-0.512157,-0.525649,-10.487469,-0.651993,0.285771,-0.310299,-0.241354,0.717477,41.446755,15.629765,6.948157,4.63583E+18,0.617394,0.382399,0.56837,-0.386719,0
-8.601684,0.356756,5.333688,-0.709058,-1.586805,0.397808,45.312037,-7.37641,6.103804,4.63583E+18,-0.791473,0.05768,-0.599578,-0.103685,-10.174551,2.328041,-0.865073,-0.598539,0.24382,-1.083144,40.506831,-22.134769,-1.502337,4.63582E+18,-0.456149,0.507817,-0.509026,-0.524349,-10.657818,-1.059555,0.669999,-0.483501,-0.237205,0.872155,41.729116,15.259581,6.799524,4.63583E+18,0.620128,0.382831,0.56714,-0.38371,0
-8.73142,-0.11106,5.532187,-0.658467,-1.731403,0.530994,45.379458,-7.591592,5.349743,4.63583E+18,-0.795387,0.057781,-0.59369,-0.107485,-10.241001,2.808072,-0.818353,-0.47502,0.310245,-1.193652,40.728212,-21.651618,-1.493891,4.63582E+18,-0.457088,0.511926,-0.506043,-0.52242,-10.862427,-1.562975,0.892008,-0.583889,-0.206484,1.034495,41.841685,14.951479,6.80244,4.63583E+18,0.623196,0.383429,0.565878,-0.379988,0
-8.421508,-0.577757,5.420178,-0.574337,-1.944261,0.610661,45.287683,-7.803648,4.558088,4.63583E+18,-0.799756,0.057307,-0.587111,-0.111385,-10.055601,3.189099,-0.463553,-0.316143,0.362694,-1.29611,40.971508,-21.400899,-1.208369,4.63582E+18,-0.458464,0.516046,-0.503271,-0.519833,-11.02566,-2.081504,0.602163,-0.659291,-0.175556,1.169807,41.788858,14.599099,6.811731,4.63583E+18,0.626509,0.384189,0.564583,-0.375676,0
-7.519147,-1.234007,5.185475,-0.461948,-2.228162,0.686623,45.234309,-7.974551,3.762829,4.63583E+18,-0.804741,0.056136,-0.579605,-0.115321,-10.002648,3.756909,-0.055268,-0.209458,0.388272,-1.396863,41.202624,-21.04837,-1.031856,4.63582E+18,-0.460217,0.52021,-0.500544,-0.516757,-11.007979,-2.633157,0.534211,-0.683981,-0.13245,1.263205,41.876861,14.152752,6.858375,4.63583E+18,0.629884,0.385158,0.563271,-0.37098,0
-6.279157,-1.827892,5.171833,-0.32125,-2.386815,0.795149,45.348615,-8.234004,2.768751,4.63583E+18,-0.810005,0.054149,-0.571599,-0.119306,-9.901028,4.045437,0.893112,-0.169156,0.427287,-1.488303,41.423179,-20.542928,-0.958774,4.63582E+18,-0.462155,0.524552,-0.497761,-0.513316,-10.689857,-2.983524,0.460783,-0.616911,-0.061394,1.31261,42.18897,13.727132,7.050778,4.63583E+18,0.633038,0.386514,0.561942,-0.366184,0
-4.680317,-1.917003,4.940183,-0.185988,-2.377415,0.824224,45.498315,-8.657982,1.8423,4.63583E+18,-0.815173,0.051635,-0.563635,-0.123052,-9.903371,3.946279,1.235995,-0.209194,0.458534,-1.587392,41.665753,-19.974239,-1.037509,4.63582E+18,-0.464131,0.529219,-0.494713,-0.509675,-10.248761,-2.246751,0.273845,-0.538952,0.001402,1.31497,42.410339,13.149213,7.239714,4.63583E+18,0.6359,0.388164,0.560636,-0.36145,0
-3.643421,-2.067886,4.511025,-0.053328,-2.165429,0.800096,45.48935,-9.202723,1.109895,4.63583E+18,-0.819802,0.048831,-0.556396,-0.126347,-9.746896,3.946614,0.898051,-0.289769,0.480627,-1.666271,42.056392,-19.467978,-0.854397,4.63582E+18,-0.466028,0.534224,-0.491337,-0.505974,-9.866744,-0.501094,0.317945,-0.552686,0.039741,1.276093,42.496884,12.461645,7.35398,4.63583E+18,0.638615,0.389732,0.559496,-0.356713,0
-2.81559,-1.912779,3.573939,0.064005,-2.026607,0.826509,45.403898,-9.57368,0.371131,4.63583E+18,-0.824046,0.045633,-0.54965,-0.129421,-9.313426,3.152481,0.27294,-0.410504,0.526549,-1.710609,42.435544,-18.865497,-0.671267,4.63582E+18,-0.46763,0.539622,-0.48767,-0.502303,-9.229997,1.259229,0.158392,-0.651567,0.065474,1.200786,42.546972,11.894429,7.214575,4.63583E+18,0.641297,0.390886,0.558675,-0.351892,0
-1.6974,-1.110569,2.193086,0.118509,-2.044796,0.795015,45.267869,-9.662379,-0.373478,4.63583E+18,-0.828291,0.042307,-0.542819,-0.132254,-9.313547,0.68546,-0.367284,-0.371363,0.553927,-1.716359,42.655254,-18.046171,-0.494751,4.63582E+18,-0.469248,0.544981,-0.484096,-0.49845,-8.26494,2.379218,-0.360132,-0.862757,0.073993,1.080525,42.70039,11.503804,7.284498,4.63583E+18,0.644106,0.391195,0.558364,-0.346876,0
-1.31557,-0.376458,1.555353,0.12585,-1.967697,0.711767,45.053161,-9.801024,-1.023254,4.63583E+18,-0.832343,0.039184,-0.5362,-0.13476,-9.471302,-1.386612,-0.743248,-0.152966,0.528403,-1.695828,42.875806,-17.392022,-0.402724,4.63582E+18,-0.471344,0.549788,-0.480945,-0.494227,-7.258454,3.149073,-0.67296,-1.250829,0.037657,0.929214,42.739795,11.130676,7.533764,4.63583E+18,0.647389,0.390043,0.558743,-0.341408,0
-1.195275,0.498634,1.089812,0.052676,-1.950562,0.666682,44.891207,-10.139515,-1.62265,4.63583E+18,-0.836307,0.036421,-0.529551,-0.13726,-9.400869,-2.269984,-1.053005,0.153085,0.458964,-1.64012,43.101993,-16.960539,-0.219615,4.63582E+18,-0.47414,0.55371,-0.47839,-0.489632,-6.836267,3.209624,-0.133237,-1.694888,-0.034879,0.793092,42.61078,10.79581,7.597033,4.63583E+18,0.651336,0.387254,0.55975,-0.335375,0
-0.988366,2.00839,0.557204,-0.096957,-1.997989,0.474384,44.887923,-10.472402,-2.364887,4.63583E+18,-0.840401,0.034575,-0.522583,-0.139417,-8.637134,-1.356172,-0.935146,0.334609,0.380189,-1.550747,43.242723,-16.306335,-0.030781,4.63582E+18,-0.477307,0.556907,-0.476232,-0.48501,-7.328449,2.687418,0.89862,-1.922813,-0.111625,0.755767,42.616152,10.387725,7.578554,4.63583E+18,0.655733,0.383626,0.560889,-0.329012,0
-1.267335,3.065542,0.458428,-0.249761,-1.9432,0.102068,44.916924,-10.558103,-3.169271,4.63583E+18,-0.844512,0.034104,-0.515628,-0.140586,-7.202368,-0.631566,-1.099157,0.320347,0.379623,-1.437532,43.303761,-15.726123,0.232039,4.63582E+18,-0.480192,0.559883,-0.474287,-0.480622,-8.541405,2.829275,2.057501,-1.839727,-0.168823,0.823715,42.834641,9.941374,7.79421,4.63583E+18,0.660176,0.380277,0.56161,-0.322725,0
-1.209544,3.214713,0.033757,-0.399071,-2.023836,0.002399,44.942632,-10.484867,-3.938245,4.63583E+18,-0.848773,0.034322,-0.508252,-0.141727,-7.311464,-2.216876,-2.008143,0.27394,0.38352,-1.344144,43.370538,-15.231365,0.415148,4.63582E+18,-0.482757,0.562755,-0.472456,-0.476486,-9.492284,2.453435,2.933433,-1.441655,-0.169154,0.895789,42.874093,9.54779,8.010967,4.63583E+18,0.664046,0.378169,0.561646,-0.317152,0
0.272,3.243865,-0.517449,-0.598627,-2.240973,0.153046,44.965754,-10.50009,-4.846335,4.63583E+18,-0.853306,0.034797,-0.499968,-0.143842,-8.890646,-3.635121,-2.738324,0.26948,0.348749,-1.320804,43.528478,-14.810627,0.598239,4.63582E+18,-0.485316,0.5655,-0.470584,-0.47247,-9.754197,-0.033499,3.328014,-0.679728,-0.100065,0.949853,42.762535,9.168242,7.953322,4.63583E+18,0.666601,0.378372,0.56076,-0.313092,0
1.392505,2.979186,0.130247,-0.728451,-2.002343,0.187391,44.789253,-10.59143,-5.732303,4.63583E+18,-0.857228,0.035801,-0.492417,-0.146303,-9.717455,-2.9034,-2.201713,0.31537,0.264386,-1.327199,43.84505,-14.315856,0.774799,4.63582E+18,-0.488145,0.567981,-0.468602,-0.468534,-9.245383,-2.627292,3.389549,0.328722,0.014476,0.992469,42.841088,8.880541,7.762769,4.63583E+18,0.667339,0.381617,0.558798,-0.311082,0
0.670497,2.326343,0.785017,-0.787144,-1.607687,0.12557,44.459673,-10.683195,-6.382137,4.63583E+18,-0.860311,0.03738,-0.486196,-0.148594,-8.626911,-0.164201,-1.065245,0.260328,0.228519,-1.304274,44.145322,-13.906539,0.861069,4.63582E+18,-0.490853,0.570441,-0.466478,-0.464822,-8.248605,-3.749322,2.936435,1.289682,0.141072,1.021204,43.188142,8.668966,7.901159,4.63583E+18,0.66627,0.387753,0.555878,-0.311019,0
-1.805966,1.540405,-0.056823,-0.944968,-1.600016,0.152414,44.294349,-10.736625,-7.044723,4.63583E+18,-0.863288,0.039474,-0.479882,-0.151292,-7.620143,2.114225,-1.017627,0.041992,0.245474,-1.291825,44.377233,-13.565533,0.9579,4.63582E+18,-0.49297,0.573338,-0.46398,-0.461505,-7.944163,-2.572686,1.590179,1.87874,0.22757,1.027144,43.497886,8.481754,8.085352,4.63583E+18,0.664014,0.395624,0.552389,-0.312143,0
-4.648295,0.618528,-1.42567,-1.042138,-1.610844,0.351715,44.282142,-10.704609,-7.706821,4.63583E+18,-0.86609,0.041509,-0.473469,-0.154893,-8.636898,1.64566,-2.163434,-0.263532,0.287189,-1.3154,44.603452,-13.04868,1.036812,4.63582E+18,-0.494306,0.57697,-0.46091,-0.458616,-8.447094,1.210758,0.527797,1.821229,0.220792,0.981313,43.466475,8.146944,7.933026,4.63583E+18,0.661757,0.403192,0.548989,-0.313249,0
-7.050948,0.107736,-1.11681,-0.95445,-1.341911,0.567555,44.232035,-10.669271,-8.229997,4.63583E+18,-0.868186,0.042973,-0.468093,-0.159044,-10.492144,-0.74038,-3.026513,-0.433435,0.278687,-1.352704,44.744218,-12.31466,1.031143,4.63582E+18,-0.495304,0.580988,-0.457392,-0.455981,-9.629397,4.71278,0.25457,1.237912,0.142159,0.900136,43.321742,7.756307,7.633686,4.63583E+18,0.660515,0.40884,0.546238,-0.313358,0
-8.434948,-0.765953,1.664177,-0.768442,-0.256963,0.688599,44.146586,-10.884019,-8.642899,4.63583E+18,-0.868088,0.044246,-0.46677,-0.16307,-11.337188,-2.73857,-2.561633,-0.358724,0.184496,-1.3549,44.800354,-11.751617,1.110874,4.63582E+18,-0.496649,0.584657,-0.4538,-0.453411,-10.154229,5.355455,-0.198869,0.682366,0.103255,0.84877,43.295598,7.420925,7.591851,4.63583E+18,0.660221,0.412778,0.544176,-0.312401,0
-8.139199,-0.881607,3.170011,-0.995545,1.291696,0.507021,44.149565,-11.210659,-8.662141,4.63583E+18,-0.865029,0.047744,-0.470843,-0.16659,-10.014761,-2.967215,-0.955323,-0.180632,0.13437,-1.296362,44.799568,-11.496052,1.116584,4.63582E+18,-0.498396,0.587732,-0.450569,-0.450733,-10.116449,4.119134,-0.864398,0.386467,0.11124,0.839106,43.398479,7.26515,7.686594,4.63583E+18,0.660394,0.415884,0.542528,-0.31078,0
-7.576141,0.00342,2.931047,-0.948265,1.688028,0.145791,44.241323,-11.195848,-8.085009,4.63583E+18,-0.861402,0.052052,-0.476279,-0.168627,-8.917885,-3.01682,-0.363736,-0.009195,0.11344,-1.21285,44.946032,-11.069711,1.208521,4.63582E+18,-0.500431,0.590239,-0.447807,-0.447945,-10.246078,2.983262,-1.048678,0.150509,0.105086,0.832443,43.539738,7.07797,7.754607,4.63583E+18,0.660971,0.418311,0.541173,-0.30865,0
-7.964258,-0.76692,1.286896,-0.714182,-0.772993,0.147619,44.244262,-11.027917,-7.880502,4.63583E+18,-0.862672,0.053786,-0.473027,-0.170732,-9.404532,-3.53772,-1.066875,0.120981,0.067582,-1.156523,44.911049,-10.484568,1.384315,4.63582E+18,-0.502754,0.59227,-0.445321,-0.445134,-10.458273,1.920104,-0.246515,-0.148415,0.063224,0.819626,43.590313,6.78093,7.787157,4.63583E+18,0.662139,0.419828,0.540102,-0.305951,0
-9.142138,-1.234592,0.792725,-0.886532,-3.521297,0.09667,44.026195,-11.081383,-8.845799,4.63583E+18,-0.869249,0.054278,-0.459703,-0.173588,-10.147616,-3.291969,-1.827034,0.186924,0.009615,-1.104468,44.756392,-9.93196,1.446177,4.63582E+18,-0.505239,0.593945,-0.442954,-0.442442,-9.871866,0.624384,0.878226,-0.298374,0.085338,0.799634,43.52638,6.528684,7.884805,4.63583E+18,0.663486,0.420908,0.539312,-0.302927,0
-7.776213,-0.977424,0.63905,-0.656962,-3.609409,-0.22644,43.640214,-11.056124,-10.359838,4.63583E+18,-0.876079,0.054481,-0.446047,-0.174814,-9.98163,-2.77428,-1.908459,0.222596,-0.021575,-1.056971,45.005416,-9.676419,1.349331,4.63582E+18,-0.507772,0.595387,-0.440694,-0.439852,-9.17007,0.47999,1.704757,-0.236203,0.157613,0.813669,43.511212,6.176479,7.938902,4.63583E+18,0.664571,0.422278,0.538612,-0.299873,0
-4.41257,-1.531764,0.153976,-0.139631,-2.573688,-0.277068,43.301363,-10.83009,-11.538455,4.63583E+18,-0.880984,0.053635,-0.436458,-0.174628,-9.385126,-3.551408,-1.410479,0.305413,-0.041581,-1.017099,45.295181,-9.420936,1.262266,4.63582E+18,-0.510464,0.596533,-0.438635,-0.437235,-9.329814,1.154875,2.443124,-0.073693,0.210875,0.833761,43.644371,5.73003,7.876678,4.63583E+18,0.665267,0.424205,0.537814,-0.297031,0
-3.785107,-1.552037,3.776595,-0.047472,-1.743894,-0.156135,43.127074,-10.680217,-12.247802,4.63583E+18,-0.884238,0.05283,-0.429971,-0.174518,-8.946572,-4.190487,-0.781375,0.329856,-0.069362,-0.97252,45.203202,-9.011566,1.165384,4.63582E+18,-0.513177,0.597483,-0.436663,-0.434729,-9.663661,1.439076,2.4669,0.094014,0.241489,0.84445,43.636264,5.411982,7.929508,4.63583E+18,0.665602,0.426652,0.536867,-0.294476,0
-6.070426,-1.288925,6.382019,-0.328502,-1.609608,-0.144045,43.079926,-10.606981,-12.821479,4.63583E+18,-0.887137,0.053133,-0.423756,-0.174918,-8.082077,-3.692422,-0.280735,0.261499,-0.052555,-0.933067,45.212905,-8.686837,1.238663,4.63582E+18,-0.515608,0.598528,-0.434693,-0.432383,-9.40237,0.821277,1.250618,0.308491,0.283386,0.841848,43.58333,5.271427,8.115503,4.63583E+18,0.665449,0.429734,0.53577,-0.29233,0
-7.866074,-1.911704,3.331595,-0.254785,-1.825634,-0.2096,43.029431,-10.577923,-13.489872,4.63583E+18,-0.890433,0.05312,-0.416759,-0.174984,-8.283855,-3.239124,-0.472737,0.181382,-0.03662,-0.909429,45.514062,-8.419979,1.141015,4.63582E+18,-0.51776,0.599721,-0.432666,-0.430186,-8.827772,1.438338,-0.253534,0.45699,0.332542,0.853745,43.595536,4.936642,8.267312,4.63583E+18,0.664924,0.433306,0.534599,-0.29039,0
-8.311922,-2.516389,2.166032,0.027449,-2.166673,-0.251713,42.805539,-10.545948,-14.347715,4.63583E+18,-0.894351,0.05188,-0.408663,-0.174467,-8.672426,-2.950951,-0.760965,0.153647,0.019936,-0.884431,45.575962,-7.999257,1.055507,4.63582E+18,-0.519688,0.601022,-0.430767,-0.427945,-8.834965,3.052016,-1.130874,0.34108,0.326692,0.855465,43.607743,4.60112,8.276619,4.63583E+18,0.664612,0.436547,0.533539,-0.288192,0
-8.42859,-2.083919,6.235355,-0.04516,-2.301161,-0.285623,42.514241,-10.434842,-15.154685,4.63583E+18,-0.898429,0.050866,-0.39997,-0.173961,-10.354833,-2.80654,-0.602441,0.22588,0.027924,-0.870252,45.494504,-7.504427,1.147439,4.63582E+18,-0.521751,0.602147,-0.429043,-0.425579,-9.393505,3.566381,-1.514456,0.032986,0.255322,0.807584,43.619951,4.425012,8.323023,4.63583E+18,0.664951,0.438736,0.53273,-0.285567,0
-7.981754,-1.610548,8.020218,-0.15861,-1.679923,-0.277074,42.263782,-10.282042,-15.725116,4.63583E+18,-0.901376,0.050709,-0.393493,-0.173532,-11.163849,-1.345706,0.022798,0.204671,0.005731,-0.884123,45.636936,-7.105595,1.31193,4.63582E+18,-0.523816,0.603295,-0.427193,-0.423271,-10.187373,3.298142,-1.10493,-0.177766,0.181947,0.795089,43.649554,4.13801,8.49803,4.63583E+18,0.665816,0.440221,0.531986,-0.28264,0
-8.117167,-1.549101,6.769141,-0.124359,-1.307218,-0.18501,42.057923,-10.249561,-16.100211,4.63583E+18,-0.903616,0.05054,-0.388444,-0.173306,-9.846678,-0.515745,-0.032346,0.012922,0.088855,-0.926077,45.721576,-6.924179,1.207802,4.63582E+18,-0.525319,0.605074,-0.425074,-0.420997,-10.980099,2.482389,-0.571915,-0.236649,0.078871,0.821099,43.679921,3.688624,8.561511,4.63583E+18,0.66704,0.441474,0.530971,-0.279695,0
-9.179974,-0.82598,7.436381,-0.120617,-1.313317,-0.157918,41.892926,-10.290841,-16.481917,4.63583E+18,-0.90582,0.050307,-0.383368,-0.173173,-9.407215,-2.890096,-0.490722,-0.058903,0.12,-0.938279,45.783502,-6.588922,1.049678,4.63582E+18,-0.526598,0.607077,-0.422859,-0.418739,-10.739025,1.422012,-0.553154,-0.150838,-0.028373,0.830898,43.533433,3.326367,8.519546,4.63583E+18,0.668345,0.442856,0.529533,-0.277107,0
-9.458873,0.296298,8.034233,-0.09157,-0.946053,-0.155572,41.766199,-10.252993,-17.002104,4.63583E+18,-0.90742,0.050224,-0.379691,-0.172921,-8.985556,-4.199546,-0.545905,-0.031329,0.099303,-0.89825,45.697154,-6.190867,1.411016,4.63582E+18,-0.527905,0.608904,-0.420743,-0.416566,-8.95876,1.865494,-0.050217,0.022803,-0.023596,0.861367,43.444924,3.074142,8.663583,4.63583E+18,0.669347,0.444788,0.527845,-0.274805,0
-9.796391,1.337472,7.707741,-0.033577,-0.54206,-0.136971,41.636611,-10.135611,-17.424834,4.63583E+18,-0.908369,0.050183,-0.377583,-0.172562,-8.908285,-3.860768,-0.904464,-0.027347,0.156188,-0.877982,45.770399,-6.037014,1.678164,4.63582E+18,-0.529081,0.610777,-0.418804,-0.414281,-7.963785,4.045865,0.150198,0.076565,0.02692,0.883865,43.519394,2.759685,8.866708,4.63583E+18,0.670155,0.446972,0.526187,-0.272461,0
-11.16614,1.38768,8.366439,0.007152,-0.378527,-0.150269,41.554001,-10.0589,-17.566454,4.63583E+18,-0.909076,0.050127,-0.376119,-0.172053,-10.02349,-3.860365,-1.780667,0.10527,0.114716,-0.813885,45.843641,-5.918473,1.573242,4.63582E+18,-0.530549,0.612166,-0.417159,-0.412006,-8.343644,4.503297,0.022342,0.110943,0.007803,0.884227,43.519394,2.451622,8.734917,4.63583E+18,0.670932,0.449226,0.524429,-0.270223,0
-12.190672,0.55612,8.516155,0.054221,-0.26502,-0.154294,41.598143,-10.0589,-17.566454,4.63583E+18,-0.909616,0.049979,-0.375116,-0.171431,-9.333145,-3.215381,-1.749809,0.188216,0.120489,-0.767223,45.910433,-5.333388,1.385077,4.63582E+18,-0.532132,0.613294,-0.415785,-0.40967,-9.430566,3.787966,0.283243,0.09854,-0.024932,0.878126,43.559956,2.116826,8.47441,4.63583E+18,0.671787,0.451388,0.522598,-0.268033,0
-12.597821,0.295412,8.682676,0.100048,-0.25361,-0.139501,41.677292,-9.976914,-17.673666,4.63583E+18,-0.910135,0.049643,-0.374192,-0.17079,-9.062165,-3.289432,-1.649489,0.173988,0.113548,-0.755403,45.892465,-4.781395,1.48342,4.63582E+18,-0.533664,0.614414,-0.414396,-0.407399,-9.990203,2.876211,0.006849,0.097199,-0.080978,0.872622,43.730843,1.726225,8.371788,4.63583E+18,0.672752,0.453465,0.520615,-0.265957,0
-12.712191,0.378834,9.887839,0.12677,-0.210835,-0.143662,41.668557,-9.774087,-17.824426,4.63583E+18,-0.910595,0.049243,-0.373448,-0.170084,-8.727174,-3.417581,-1.842512,0.146505,0.058596,-0.740118,45.966512,-4.547722,1.745659,4.63582E+18,-0.53519,0.61547,-0.412873,-0.405345,-9.950106,2.646462,-0.399948,0.148562,-0.133588,0.878922,43.864095,1.373245,8.543934,4.63583E+18,0.673732,0.455636,0.518409,-0.264071,0
-12.829296,0.554551,10.665374,0.149551,0.009214,-0.213766,41.633551,-9.738013,-17.669898,4.63583E+18,-0.910766,0.04902,-0.37354,-0.16903,-8.064498,-4.119381,-1.865693,0.214353,0.06664,-0.691469,46.039892,-4.45102,1.732791,4.63582E+18,-0.536789,0.616298,-0.411603,-0.403258,-9.672301,3.295618,-0.408005,0.167766,-0.172942,0.893765,43.887883,1.233957,8.572111,4.63583E+18,0.674766,0.457843,0.516035,-0.262255,0
-13.429987,0.550419,10.64835,0.182664,0.157615,-0.324477,41.595322,-9.814753,-17.481001,4.63583E+18,-0.910788,0.048949,-0.374195,-0.167474,-8.691671,-4.28902,-2.32788,0.283788,-0.004401,-0.666102,45.937406,-4.179384,1.568034,4.63582E+18,-0.53864,0.616803,-0.410352,-0.401288,-10.26077,2.656777,-0.652039,0.229665,-0.223343,0.911328,43.914181,1.355022,8.379687,4.63583E+18,0.6758,0.4602,0.513411,-0.260615,0
-13.912535,0.087663,10.716595,0.230115,0.202755,-0.43652,41.509875,-9.606733,-17.588163,4.63583E+18,-0.910824,0.048904,-0.375029,-0.165409,-8.748767,-3.117199,-1.884541,0.261088,-0.023404,-0.661382,45.776959,-3.695917,1.830965,4.63582E+18,-0.540452,0.617313,-0.40903,-0.399413,-10.419448,1.452452,-1.101047,0.351069,-0.276805,0.925028,43.779518,1.204495,8.26605,4.63583E+18,0.676718,0.462862,0.510469,-0.259294,0
-14.002689,-0.371403,11.186438,0.26673,0.353225,-0.513478,41.594607,-9.323666,-17.455318,4.63583E+18,-0.91068,0.048943,-0.376442,-0.162963,-9.598536,-2.764683,-1.224448,0.214307,-0.055711,-0.682433,45.764754,-3.302587,1.989972,4.63582E+18,-0.54223,0.617905,-0.407498,-0.39765,-9.897685,2.768426,-0.595268,0.378367,-0.344228,0.957765,43.57917,0.555257,8.309342,4.63583E+18,0.67775,0.465588,0.507234,-0.258063,0
-14.379312,-0.348416,11.556107,0.312607,0.639869,-0.570408,41.882896,-9.278826,-17.041439,4.63583E+18,-0.910124,0.049092,-0.378958,-0.160169,-10.120565,-1.795449,-0.78337,0.092982,-0.10354,-0.726833,45.758973,-3.217131,1.812476,4.63582E+18,-0.543845,0.618762,-0.40554,-0.396111,-9.818124,3.339599,-0.620675,0.358596,-0.448827,0.962457,43.74626,-0.065277,8.086375,4.63583E+18,0.679031,0.468146,0.503706,-0.256975,0
-15.251906,-0.126392,11.43278,0.368033,0.779123,-0.553357,42.080109,-9.320551,-16.902539,4.63583E+18,-0.909334,0.049095,-0.382036,-0.157321,-9.410356,-1.775367,-1.189728,-0.043365,-0.103607,-0.733534,45.843668,-3.126753,1.733416,4.63582E+18,-0.545114,0.619933,-0.403334,-0.394785,-9.070735,3.07444,-0.793203,0.395048,-0.496023,0.968564,44.041418,-0.388734,7.698632,4.63583E+18,0.680332,0.470759,0.499981,-0.256033,0
-16.295384,0.077991,11.607714,0.392769,0.825033,-0.491932,42.159651,-9.282345,-16.805243,4.63583E+18,-0.908418,0.048936,-0.38531,-0.154654,-9.07809,-3.737086,-1.612187,-0.048157,-0.12225,-0.728836,45.922576,-2.955923,1.897874,4.63582E+18,-0.546389,0.621071,-0.401087,-0.393521,-9.305413,3.519897,-1.046658,0.414953,-0.554127,0.997453,43.922173,-0.558362,7.392536,4.63583E+18,0.681729,0.473416,0.496002,-0.255158,0
-16.683961,0.396174,11.844714,0.401141,0.891008,-0.455407,42.289214,-9.152784,-16.385446,4.63583E+18,-0.907357,0.048728,-0.388839,-0.152095,-9.512109,-3.742868,-1.597661,0.01295,-0.173045,-0.716879,46.075601,-2.614926,1.787253,4.63582E+18,-0.547882,0.62196,-0.398852,-0.392311,-10.192541,3.434453,-1.111492,0.474881,-0.608168,0.995149,43.475684,-0.840081,7.319299,4.63583E+18,0.683098,0.476167,0.491797,-0.254513,0
-16.161805,0.668653,11.906553,0.391114,0.894522,-0.412132,42.497912,-8.937785,-15.975156,4.63583E+18,-0.906243,0.048489,-0.392376,-0.149713,-9.22058,-3.561839,-1.225658,0.048618,-0.158015,-0.688034,46.143986,-2.29586,1.49428,4.63582E+18,-0.549391,0.622739,-0.39678,-0.391064,-10.409074,3.652606,-0.535183,0.538879,-0.599007,0.996047,43.273004,-1.312309,7.150638,4.63583E+18,0.684304,0.479099,0.487535,-0.253971,0
-15.658552,0.939186,12.427146,0.374747,1.038519,-0.388186,42.660149,-8.76964,-15.750698,4.63583E+18,-0.904856,0.048361,-0.396442,-0.147415,-9.490509,-4.377614,-1.124696,0.103523,-0.159066,-0.673374,46.137527,-2.125801,1.22074,4.63582E+18,-0.551015,0.623361,-0.39483,-0.38976,-10.87683,4.629156,0.130405,0.448036,-0.655164,0.970949,43.727836,-1.895344,6.694825,4.63583E+18,0.68576,0.481649,0.483245,-0.253421,0
-15.829431,1.111266,12.755559,0.376194,1.276944,-0.397729,42.827496,-8.728293,-15.3156,4.63583E+18,-0.903055,0.048388,-0.401395,-0.145026,-10.045313,-4.303553,-1.122431,0.134078,-0.188984,-0.647807,46.046326,-1.96062,1.2264,4.63582E+18,-0.552722,0.623817,-0.392924,-0.388538,-10.271322,4.692505,0.244182,0.424302,-0.695308,0.933142,44.278156,-2.060161,6.370666,4.63583E+18,0.687285,0.483999,0.478929,-0.253006,0
-16.58694,1.091589,12.493367,0.394522,1.416108,-0.406896,43.077913,-8.596025,-14.65687,4.63583E+18,-0.900997,0.048444,-0.406866,-0.142539,-9.489388,-4.273807,-0.774717,0.161397,-0.205067,-0.622324,46.045519,-1.69945,1.299735,4.63582E+18,-0.55448,0.624138,-0.391088,-0.387369,-9.319111,4.527893,-0.130099,0.462797,-0.704133,0.899496,44.523291,-2.218483,6.246348,4.63583E+18,0.688697,0.486369,0.474601,-0.252774,0
-17.400121,0.92979,12.223967,0.394324,1.436565,-0.382235,43.327956,-8.339684,-14.161062,4.63583E+18,-0.898853,0.048469,-0.412402,-0.140135,-9.205996,-4.989499,-0.852904,0.22522,-0.238736,-0.583659,46.038962,-1.3755,1.214183,4.63582E+18,-0.556392,0.624188,-0.389374,-0.38627,-8.640045,5.570067,-0.172198,0.361016,-0.729148,0.842524,44.515268,-2.871583,6.049439,4.63583E+18,0.690287,0.488297,0.470413,-0.252549,0
-18.096765,0.673419,12.334544,0.358113,1.471993,-0.336784,43.490238,-8.215583,-13.693652,4.63583E+18,-0.896578,0.04857,-0.418042,-0.13795,-9.219918,-5.045484,-0.828489,0.248207,-0.294571,-0.543555,46.112204,-1.130545,1.300442,4.63582E+18,-0.558386,0.624026,-0.387669,-0.385369,-7.786827,5.691066,-0.016771,0.291009,-0.749954,0.770142,44.416029,-3.142518,5.788917,4.63583E+18,0.691969,0.489848,0.466375,-0.252431,0
-18.65951,0.442271,12.135499,0.31339,1.545772,-0.283176,43.575684,-8.1652,-13.075857,4.63583E+18,-0.894095,0.048785,-0.423924,-0.136023,-9.13487,-3.994042,-0.858956,0.171177,-0.339998,-0.525255,46.169308,-0.869349,1.377923,4.63582E+18,-0.560219,0.623936,-0.38578,-0.384751,-7.481729,4.882135,0.327915,0.333774,-0.739892,0.729048,44.256033,-2.844325,5.596492,4.63583E+18,0.693486,0.491443,0.462396,-0.252489,0
-18.904518,0.366996,11.67232,0.280517,1.516832,-0.223363,43.705211,-8.111626,-12.366316,4.63583E+18,-0.891584,0.048999,-0.429674,-0.134377,-9.691188,-3.03674,-1.666166,0.065552,-0.392976,-0.502495,46.004064,-0.5559,1.159141,4.63582E+18,-0.561822,0.623966,-0.383654,-0.38449,-7.999896,4.634951,0.736742,0.426141,-0.73075,0.676981,44.176365,-3.011775,5.370097,4.63583E+18,0.694727,0.493205,0.458442,-0.252852,0
-18.637297,0.529189,11.774925,0.256533,1.489058,-0.197158,43.876125,-8.187587,-11.70388,4.63583E+18,-0.889067,0.049236,-0.435295,-0.13287,-9.484469,-3.755928,-2.440675,0.013854,-0.439974,-0.443687,45.930697,-0.481729,0.786351,4.63582E+18,-0.563267,0.623944,-0.381485,-0.384569,-8.228222,5.521327,1.348617,0.463399,-0.733545,0.598024,44.14708,-3.607187,5.047198,4.63583E+18,0.6958,0.49491,0.454595,-0.253515,0
-18.139925,0.867003,11.949888,0.241817,1.614049,-0.221232,44.047018,-8.220332,-11.136465,4.63583E+18,-0.886294,0.049639,-0.441346,-0.13127,-9.298819,-4.726805,-2.40591,0.060651,-0.4881,-0.368424,46.010633,-0.551067,0.506266,4.63582E+18,-0.564787,0.623611,-0.379471,-0.384873,-8.116154,5.879076,2.029991,0.424035,-0.728963,0.532189,44.220321,-3.781409,4.884291,4.63583E+18,0.696863,0.496372,0.45093,-0.25428,0
-18.19044,1.024266,11.757017,0.25197,1.793711,-0.246911,44.261988,-8.090811,-10.480512,4.63583E+18,-0.883161,0.050147,-0.448038,-0.129512,-9.225066,-4.598025,-2.076867,0.086603,-0.552815,-0.285342,45.850201,-0.391586,0.408618,4.63582E+18,-0.566339,0.622978,-0.37756,-0.385497,-8.432638,5.422765,2.670487,0.41244,-0.764618,0.4677,44.313751,-3.864391,4.743374,4.63583E+18,0.697937,0.497634,0.447299,-0.25528,0
-18.729492,1.076948,11.181089,0.284734,1.904001,-0.271916,44.474268,-8.00176,-9.773638,4.63583E+18,-0.879788,0.050638,-0.455121,-0.12757,-8.854054,-4.753005,-2.096462,0.077341,-0.628406,-0.189935,45.850039,-0.242378,0.298926,4.63582E+18,-0.567828,0.622091,-0.3757,-0.386554,-8.596225,5.236104,3.237376,0.426596,-0.78223,0.380173,44.434948,-4.200218,4.439538,4.63583E+18,0.69891,0.498746,0.443776,-0.256593,0
-19.258338,0.977153,10.646945,0.32098,1.932112,-0.296595,44.682919,-8.033618,-9.203032,4.63583E+18,-0.876323,0.051054,-0.46229,-0.125455,-9.270903,-5.311315,-2.029131,0.150251,-0.728426,-0.08783,46.020963,-0.396266,0.012497,4.63582E+18,-0.569494,0.620704,-0.373983,-0.387994,-8.908111,5.308087,3.445371,0.441306,-0.819125,0.286358,44.394581,-4.304121,4.061133,4.63583E+18,0.699808,0.49968,0.440318,-0.25828,0
-19.728488,1.007102,10.585723,0.338636,1.993578,-0.338084,44.933348,-7.980975,-8.538144,4.63583E+18,-0.872704,0.051513,-0.469652,-0.123132,-9.564322,-5.017549,-1.670668,0.245403,-0.792718,0.038548,46.180607,-0.470469,-0.348867,4.63582E+18,-0.571295,0.618785,-0.37259,-0.389748,-9.754386,5.932798,3.319141,0.40099,-0.851103,0.179461,44.278466,-4.265481,3.659606,4.63583E+18,0.700723,0.500258,0.437025,-0.260266,0
-20.198309,0.717915,10.481189,0.340222,2.072709,-0.38163,45.10159,-7.677869,-7.702079,4.63583E+18,-0.868886,0.052089,-0.477257,-0.12062,-10.195259,-5.530119,-0.895179,0.380513,-0.858466,0.170914,46.17579,-0.395454,-0.653886,4.63582E+18,-0.573324,0.616223,-0.371595,-0.391772,-9.884308,6.022171,2.713732,0.318642,-0.829371,0.060462,44.342379,-4.30124,3.226806,4.63583E+18,0.70163,0.500395,0.434127,-0.2624,0
-20.668427,0.344083,10.157543,0.322567,2.110806,-0.394246,45.149272,-7.33877,-6.865785,4.63583E+18,-0.864926,0.052769,-0.48495,-0.118081,-10.513015,-5.348615,-0.047725,0.407067,-0.896571,0.318302,46.107361,-0.459065,-1.117931,4.63582E+18,-0.57523,0.613297,-0.370925,-0.394198,-10.468368,6.426548,2.135439,0.189617,-0.800231,-0.072525,44.395444,-4.218671,2.979957,4.63583E+18,0.702599,0.499939,0.431726,-0.264626,0
-21.251424,0.490555,9.595179,0.281266,2.055497,-0.424328,45.205522,-7.252327,-6.01728,4.63583E+18,-0.861013,0.053626,-0.492378,-0.115519,-9.671656,-5.294109,0.566025,0.291628,-0.851817,0.481694,46.102553,-0.395445,-1.410075,4.63582E+18,-0.576492,0.610457,-0.370583,-0.397072,-10.455452,6.851412,2.132411,0.054103,-0.710254,-0.24295,44.38612,-4.180021,2.83906,4.63583E+18,0.703494,0.498875,0.430089,-0.266916,0
-21.790323,0.536373,9.172546,0.250784,1.952169,-0.481071,45.296888,-7.243776,-5.263433,4.63583E+18,-0.857269,0.054656,-0.499371,-0.11283,-9.538176,-6.684713,1.782997,0.131934,-0.776291,0.66288,46.03492,-0.496736,-1.697255,4.63582E+18,-0.576922,0.607835,-0.370613,-0.400429,-9.814282,7.076888,2.771183,-0.00221,-0.55039,-0.444262,44.403409,-4.235969,2.578487,4.63583E+18,0.703988,0.497457,0.429398,-0.269361,0
-22.344088,0.965622,9.131138,0.197303,2.166499,-0.490209,45.382329,-7.026235,-4.560282,4.63583E+18,-0.853004,0.055992,-0.507063,-0.110163,-9.444146,-7.560857,3.407513,0.013391,-0.673626,0.889032,46.053537,-1.002043,-2.074881,4.63582E+18,-0.576504,0.605308,-0.371257,-0.404245,-9.131191,7.375785,3.851879,-0.011557,-0.348483,-0.669669,44.491059,-4.106299,2.403339,4.63583E+18,0.703881,0.495831,0.429772,-0.272029,0
-23.241145,1.605496,8.357496,0.120242,2.414568,-0.438582,45.474067,-6.854271,-3.759063,4.63583E+18,-0.848092,0.057601,-0.515565,-0.107773,-9.785284,-8.728039,4.116505,-0.054615,-0.553308,1.190089,46.156993,-1.570923,-2.422664,4.63582E+18,-0.575206,0.602666,-0.372825,-0.408575,-8.307026,7.944059,4.821694,-0.018318,-0.114047,-0.927855,44.553307,-3.539694,2.319407,4.63583E+18,0.703066,0.493982,0.43137,-0.274955,0
-23.811842,1.435602,7.466094,0.041876,2.494913,-0.359051,45.609464,-6.842064,-2.910837,4.63583E+18,-0.842861,0.059346,-0.524279,-0.105801,-10.622141,-9.58464,3.982807,-0.056332,-0.418678,1.534363,46.164408,-2.071371,-2.508106,4.63582E+18,-0.573087,0.5997,-0.375564,-0.413379,-7.830018,8.853907,5.328875,-0.083396,0.137136,-1.215952,44.365139,-2.989176,2.319407,4.63583E+18,0.701589,0.491702,0.434362,-0.278085,0
-24.048202,0.784622,6.890921,-0.020844,2.656833,-0.310216,45.742617,-6.74811,-1.968015,4.63583E+18,-0.837141,0.061268,-0.533486,-0.104086,-11.233646,-9.465864,4.089121,-0.046052,-0.218995,1.87051,46.103369,-2.587842,-2.587171,4.63582E+18,-0.570073,0.596495,-0.379618,-0.41845,-8.021346,9.808701,5.232458,-0.218822,0.394692,-1.556462,44.192993,-2.654503,2.339567,4.63583E+18,0.699504,0.488691,0.438947,-0.281427,0
-24.143659,0.450197,5.444191,-0.045056,2.600172,-0.353846,45.796259,-6.533188,-0.980689,4.63583E+18,-0.831458,0.063341,-0.542407,-0.102274,-12.371514,-9.957457,5.005706,0.060211,0.020442,2.238061,46.037543,-3.338082,-2.574964,4.63582E+18,-0.566261,0.59283,-0.385311,-0.423598,-8.583559,10.346244,4.974861,-0.392767,0.668152,-1.923139,44.294343,-2.151567,2.465333,4.63583E+18,0.696801,0.484793,0.445252,-0.284947,0
-23.909873,-0.005893,4.68208,-0.069428,2.719779,-0.269149,45.808466,-6.358581,0.053602,4.63583E+18,-0.825358,0.065349,-0.551688,-0.100766,-15.900228,-10.956428,5.787316,0.313601,0.179368,2.685016,45.903262,-4.178565,-2.555571,4.63582E+18,-0.561971,0.588067,-0.392889,-0.428957,-9.260996,10.491917,5.085744,-0.622124,0.965564,-2.299182,44.506112,-1.267649,2.767723,4.63583E+18,0.693497,0.47984,0.453411,-0.288505,0
-25.502971,-0.170599,3.801266,-0.014458,2.949129,-0.182578,45.820671,-6.216926,1.182835,4.63583E+18,-0.818594,0.067056,-0.561726,-0.099352,-20.714564,-10.968668,6.885873,0.600791,0.230115,3.161403,45.76499,-5.211263,-2.433498,4.63582E+18,-0.557363,0.581851,-0.402207,-0.43477,-10.792735,10.576783,5.842338,-0.926836,1.255293,-2.74133,44.577757,-0.275864,3.265455,4.63583E+18,0.689623,0.47345,0.463592,-0.292144,0
-23.673424,-0.183391,0.728102,0.110061,1.62962,-0.209197,45.914596,-6.084114,2.022611,4.63583E+18,-0.814883,0.067847,-0.567253,-0.097915,-26.252836,-9.749124,7.492223,0.880583,0.088949,3.747052,45.568897,-6.86649,-2.329765,4.63582E+18,-0.552488,0.573621,-0.413035,-0.441721,-13.844522,10.546691,7.371303,-1.287608,1.539307,-3.3206,44.403981,0.903954,3.892281,4.63583E+18,0.685058,0.465147,0.47607,-0.296127,0
-20.461073,-0.748987,2.839827,0.188731,1.642582,-0.164959,46.003782,-6.036378,2.684776,4.63583E+18,-0.811106,0.068269,-0.572841,-0.096434,-31.255694,-8.279955,8.607718,1.102441,-0.077704,4.385627,45.357419,-8.446911,-2.482876,4.63582E+18,-0.547087,0.563299,-0.425287,-0.450023,-18.429022,9.068952,9.333113,-1.593666,1.763735,-4.076695,44.206503,2.203661,4.49405,4.63583E+18,0.679486,0.454598,0.490877,-0.30113,0
-19.433395,-1.733999,5.264018,0.328081,3.450089,-0.182637,45.896542,-6.061891,3.592515,4.63583E+18,-0.802958,0.06898,-0.584514,-0.094034,-36.790571,-4.97159,10.159263,1.586106,-0.352075,5.277437,45.067385,-9.97993,-2.548961,4.63582E+18,-0.541393,0.549532,-0.439726,-0.459946,-24.95468,5.510476,11.079267,-1.660851,1.921044,-4.964167,43.979617,3.755563,5.315686,4.63583E+18,0.672291,0.442031,0.507666,-0.308071,0
-18.257533,-2.488401,2.314165,0.414871,3.02231,-0.344481,45.632817,-6.041205,4.83716,4.63583E+18,-0.795791,0.069614,-0.594636,-0.090986,-42.550712,6.413577,9.636863,1.899292,-0.624948,6.310834,44.47094,-12.156818,-2.536919,4.63582E+18,-0.534587,0.532287,-0.456232,-0.471953,-34.15057,-1.543473,10.695368,-1.378917,1.888455,-6.101409,43.782833,5.641997,6.360338,4.63583E+18,0.662756,0.427524,0.525772,-0.318655,0
-18.474458,-3.04576,1.266032,0.387546,1.270347,-0.842996,45.491069,-5.780108,5.907119,4.63583E+18,-0.793064,0.070901,-0.598732,-0.086852,-45.261979,20.569591,11.16158,1.767509,-0.831224,7.435239,43.877283,-14.621771,-2.859708,4.63582E+18,-0.525195,0.512319,-0.474104,-0.486749,-45.793745,-13.772207,6.472867,-0.579284,2.035028,-7.505736,43.424511,7.990552,7.164421,4.63583E+18,0.649017,0.41196,0.545248,-0.334321,0
-16.403963,-4.284722,1.475389,0.404427,-0.24856,-1.541164,45.616412,-5.245661,6.149262,4.63583E+18,-0.794348,0.073322,-0.597582,-0.080814,-45.040019,33.684957,3.561355,1.446942,0.032548,8.775896,42.955652,-17.789157,-2.858602,4.63582E+18,-0.510065,0.491543,-0.495509,-0.502684,-60.311228,-26.606305,-7.731081,0.090344,2.204585,-8.703792,42.687642,10.903201,7.956543,4.63583E+18,0.631278,0.395217,0.565636,-0.354044,0
-12.741349,-5.467926,3.030712,0.522424,0.815618,-1.905054,45.722647,-4.592421,6.023811,4.63583E+18,-0.793091,0.076612,-0.599846,-0.072947,-51.485956,34.297172,-5.966026,1.954826,0.766172,9.199549,41.416727,-21.170298,-2.176407,4.63582E+18,-0.492831,0.469631,-0.51968,-0.516234,-77.150303,-24.825697,-22.963225,-0.676565,3.183782,-8.312203,41.502695,13.884117,9.028035,4.63583E+18,0.612194,0.378273,0.588298,-0.368826,0
-8.346674,-3.440985,6.420549,1.234984,4.52408,-1.375636,45.521925,-3.964682,6.923487,4.63583E+18,-0.782438,0.077332,-0.614601,-0.063847,-70.524038,12.198619,-12.441097,-1.623604,0.196378,7.311337,39.890954,-23.767637,-2.118209,4.63582E+18,-0.473268,0.457336,-0.530639,-0.534119,-82.09872,20.622409,-22.450362,-2.149399,1.989604,-6.387652,40.291472,16.551398,10.136569,4.63583E+18,0.600627,0.360031,0.606488,-0.37656,1
-2.642572,2.139672,11.45751,1.612827,5.948442,-0.969688,45.06812,-3.404253,9.051238,4.63583E+18,-0.767725,0.076117,-0.633895,-0.05461,-46.441706,-57.71963,-34.446768,-2.80562,-2.234077,3.910184,38.739657,-25.24774,-3.09402,4.63582E+18,-0.464048,0.449146,-0.527308,-0.552154,-19.238808,92.498368,1.130062,-1.747569,0.987102,-4.175368,39.520337,18.272448,10.728886,4.63583E+18,0.594091,0.346588,0.617849,-0.381045,1
-9.385554,6.668292,24.76805,0.894689,3.741763,-1.308957,44.656318,-2.803978,11.008465,4.63583E+18,-0.758319,0.077555,-0.645556,-0.046857,-2.76383,-102.046981,-19.461712,4.829592,-1.108514,3.731119,37.905015,-26.413973,-3.098782,4.63582E+18,-0.466786,0.428917,-0.543078,-0.550642,-3.930309,82.403639,-8.398298,-0.764971,0.153112,-0.185242,39.279127,18.75123,10.75757,4.63583E+18,0.594504,0.344458,0.619705,-0.379315,1
-17.478131,6.947163,33.801693,-0.455859,0.517065,-0.936228,44.464221,-2.314779,11.775287,4.63583E+18,-0.756959,0.081617,-0.646785,-0.044949,2.120767,-10.105216,-21.503454,5.622494,-1.35495,0.952935,37.386539,-27.456885,-1.96447,4.63582E+18,-0.477578,0.412597,-0.554879,-0.542026,-1.60284,14.998275,-4.81952,-0.630693,-0.558563,2.90412,39.485225,18.086299,10.611106,4.63583E+18,0.601393,0.349484,0.615099,-0.371268,1
-7.243644,4.474377,27.897405,-1.424054,-1.525428,0.569086,44.542093,-2.330316,11.38333,4.63583E+18,-0.760454,0.084289,-0.641869,-0.05109,7.226994,26.414607,-13.714082,4.783147,-0.734528,0.346654,37.321986,-27.829268,-1.195324,4.63582E+18,-0.486623,0.400541,-0.564698,-0.532805,-7.990963,-21.024682,-8.526319,-2.152585,-0.578633,4.6827,40.103479,16.658785,10.692251,4.63583E+18,0.613113,0.355114,0.610016,-0.354778,1
12.55017,10.375949,17.428436,-0.401532,-3.139904,1.542407,44.774035,-2.879775,10.35885,4.63583E+18,-0.768305,0.080762,-0.632301,-0.05814,2.016532,-6.983807,1.012154,5.648855,-0.81191,-1.103771,37.387756,-27.563827,-0.397128,4.63582E+18,-0.500273,0.389771,-0.57358,-0.51847,-19.799154,-14.109939,14.883224,-3.681099,-1.73324,4.837534,40.752561,14.799202,10.931368,4.63583E+18,0.6299,0.355321,0.60366,-0.33551,1
27.52276,16.375193,7.810092,0.726445,-3.181087,1.101679,44.962003,-3.379085,9.193932,4.63583E+18,-0.776589,0.074759,-0.622594,-0.060809,-7.235721,1.108574,6.212241,5.475747,-0.891319,-1.439489,37.539408,-27.011399,0.775446,4.63582E+18,-0.514268,0.379768,-0.581044,-0.503679,-7.073213,-17.044184,18.429935,-2.128545,-1.596794,3.978935,41.260938,12.894142,10.840987,4.63583E+18,0.642504,0.35744,0.596433,-0.322015,1
28.194573,5.71699,2.261317,0.337166,-0.101411,-0.113533,44.989144,-3.421873,8.636561,4.63583E+18,-0.77699,0.07394,-0.622309,-0.05959,-8.406052,20.994619,7.580737,2.287466,-0.8932,-1.065565,37.936722,-26.760937,1.208898,4.63582E+18,-0.52226,0.375554,-0.582203,-0.497235,0.052652,-34.372109,1.192067,1.823321,-1.18035,2.436839,41.650161,11.841994,10.30536,4.63583E+18,0.64593,0.36676,0.587142,-0.321754,1
19.493409,-7.282714,0.369193,-0.63647,3.809091,-1.219241,44.960217,-3.20668,9.409289,4.63583E+18,-0.767115,0.0801,-0.634012,-0.056103,-2.805565,15.521932,7.021078,0.253345,-0.791684,-0.845263,38.232009,-26.408921,1.030536,4.63582E+18,-0.526329,0.375415,-0.57967,-0.496009,3.996748,-38.378503,-7.98475,3.90871,-0.06749,0.388496,41.895078,11.561764,9.605197,4.63583E+18,0.640556,0.37809,0.581047,-0.330334,1
8.72661,-10.903662,-0.37913,-0.795453,7.267828,-0.941487,44.658134,-2.969527,11.607304,4.63583E+18,-0.747516,0.086793,-0.656434,-0.052735,0.583591,15.642569,3.682046,-0.682784,-0.376218,-0.396739,38.204443,-25.946248,0.915152,4.63582E+18,-0.526992,0.377097,-0.576804,-0.497368,1.990152,-41.350375,-9.80905,5.065368,0.756702,-0.929184,41.872218,12.005266,9.238137,4.63583E+18,0.629314,0.390312,0.577421,-0.34381,1
1.412245,-12.801008,-2.493422,0.559757,9.055724,0.318513,43.689956,-2.887574,14.664906,4.63583E+18,-0.722356,0.086109,-0.684396,-0.048876,0.537514,10.561193,-1.8092,-0.537968,-0.15292,0.157103,38.136717,-26.047459,0.720625,4.63582E+18,-0.526193,0.377589,-0.575593,-0.49924,1.320601,-16.105121,-4.563651,3.737173,0.983548,-1.623654,41.59576,12.877073,9.225929,4.63583E+18,0.618448,0.397554,0.577198,-0.35541,1
-1.552075,-10.088577,-7.770165,1.333019,8.360643,0.932157,42.333536,-2.930474,17.67945,4.63583E+18,-0.698359,0.081091,-0.709724,-0.044842,0.563334,4.862391,-6.075003,0.561018,-0.225916,0.681742,38.133215,-26.377772,0.561898,4.63582E+18,-0.526202,0.374258,-0.577327,-0.499736,-0.540961,4.291712,-2.552756,0.715346,0.899354,-1.754278,41.314191,13.715901,9.282554,4.63583E+18,0.612478,0.396494,0.581339,-0.360151,1
-6.987958,-1.877418,-12.358234,0.532387,6.214557,0.851549,41.130524,-3.023258,20.167797,4.63583E+18,-0.67977,0.078161,-0.727943,-0.043622,3.45152,1.43331,-5.627456,1.644593,-0.12401,1.100593,37.894955,-26.713325,0.769825,4.63582E+18,-0.526761,0.36774,-0.582171,-0.498365,-4.890701,5.469864,-8.998687,-2.147763,0.378945,-1.729495,41.214418,14.190638,9.632088,4.63583E+18,0.61247,0.387366,0.588346,-0.358716,1
-17.712381,2.656931,-11.925132,0.098001,1.784964,0.372501,40.475237,-3.1638,21.485694,4.63583E+18,-0.674306,0.077079,-0.733112,-0.043789,3.61043,2.510638,-2.446415,2.22683,-0.12055,1.257491,37.571649,-26.969269,1.165965,4.63582E+18,-0.527831,0.359537,-0.588418,-0.495875,-0.615135,5.56221,-7.848159,-3.982866,0.257453,-1.520937,41.070802,14.402503,10.248786,4.63583E+18,0.615896,0.373798,0.597316,-0.352365,1
-26.801846,5.630329,-8.13337,0.238346,-5.557239,-0.162561,40.886149,-3.253798,20.68724,4.63583E+18,-0.69121,0.075875,-0.717289,-0.044369,1.443614,4.529172,0.018336,2.383065,-0.273858,1.182493,37.349157,-27.374493,1.641997,4.63582E+18,-0.529604,0.350815,-0.594468,-0.493007,-1.137861,-2.679087,-1.208763,-3.827675,0.19269,-0.891581,40.950845,14.514603,10.919697,4.63583E+18,0.619984,0.361989,0.604738,-0.344783,1
-21.584775,8.560879,-1.0517,-0.511083,-11.176937,-0.379436,42.462355,-3.17737,17.441256,4.63583E+18,-0.723765,0.076335,-0.68411,-0.04828,1.568471,9.11902,0.763027,1.704217,-0.273956,0.914191,37.259013,-27.465424,2.106278,4.63582E+18,-0.530885,0.344222,-0.598675,-0.491183,-1.16798,-10.196483,3.19344,-2.369035,0.107467,-0.311788,40.880474,14.477352,11.264451,4.63583E+18,0.622807,0.355221,0.608858,-0.339443,1
-4.447119,10.087423,17.054417,-1.293257,-9.398393,-0.619739,43.954847,-3.025671,13.675578,4.63583E+18,-0.749698,0.080054,-0.654776,-0.053039,2.660234,11.04484,-0.041332,0.580603,-0.179133,0.600866,37.101084,-27.652044,2.368668,4.63582E+18,-0.530939,0.341076,-0.600319,-0.491312,0.099619,-12.331213,5.051511,-0.912572,0.051453,-0.004976,40.796513,14.335848,11.436846,4.63583E+18,0.624014,0.35291,0.610285,-0.337066,1
8.53876,9.383161,32.65585,-0.683465,-1.110188,-0.799833,44.347025,-2.884756,11.945399,4.63583E+18,-0.752665,0.084127,-0.650871,-0.052766,1.688235,7.7724,-0.083266,-0.269594,-0.043563,0.374824,36.959322,-28.050576,2.184815,4.63582E+18,-0.529904,0.340651,-0.600197,-0.492872,-0.593182,-15.044735,5.308104,0.471126,-0.020306,0.070631,40.672203,14.290508,11.442828,4.63583E+18,0.623469,0.354286,0.609465,-0.338113,1
8.570933,7.938982,21.481585,0.057574,6.311312,-1.02666,43.874718,-2.581642,13.168611,4.63583E+18,-0.735535,0.088091,-0.670078,-0.047152,0.648679,4.531677,0.338102,-0.545258,0.057248,0.370859,36.88999,-28.1944,2.008284,4.63582E+18,-0.52823,0.34105,-0.599722,-0.494967,-0.428337,-15.652915,4.955066,1.618735,0.020645,-0.084409,40.677175,14.430341,11.106953,4.63583E+18,0.620892,0.358298,0.607349,-0.342408,1
2.898825,5.111119,0.76967,-0.028887,8.249081,-1.198092,43.03,-2.135922,16.109759,4.63583E+18,-0.712295,0.093094,-0.694499,-0.040497,0.283695,2.219971,0.816329,-0.360826,0.117612,0.581211,36.858192,-28.131342,2.112212,4.63582E+18,-0.52623,0.340639,-0.600054,-0.496973,0.029859,-14.366405,3.285029,2.440585,0.139524,-0.401851,40.700985,14.78213,10.716739,4.63583E+18,0.616287,0.363775,0.604795,-0.3494,1
0.886603,-2.745898,-9.847839,-0.40864,5.39128,-0.793395,42.139961,-1.816114,18.657085,4.63583E+18,-0.696492,0.09749,-0.709937,-0.037215,-0.241164,1.609358,0.714471,-0.04573,0.184802,0.898252,36.535357,-28.237907,2.288733,4.63582E+18,-0.523847,0.338879,-0.601629,-0.498786,0.300359,-9.156522,0.31976,2.565976,0.251543,-0.808725,40.586148,15.266043,10.632648,4.63583E+18,0.610546,0.368669,0.602893,-0.357543,1
1.976099,-8.757458,-13.903802,-0.728006,0.889002,-0.019341,41.643299,-1.84679,19.635782,4.63583E+18,-0.693567,0.0998,-0.712382,-0.038942,-0.73792,0.788497,-0.49892,0.204341,0.235621,1.191583,36.133296,-28.658433,2.191857,4.63582E+18,-0.521069,0.335937,-0.604237,-0.500531,0.0969,-3.284386,-2.842837,2.08865,0.304126,-1.210941,40.44961,15.832484,10.586854,4.63583E+18,0.604737,0.371375,0.602384,-0.365388,1
3.78835,-10.036194,-13.026883,-0.449005,-2.283159,0.691205,41.811023,-2.141156,19.15836,4.63583E+18,-0.700015,0.098673,-0.705957,-0.043211,-0.841362,-0.386867,-1.368011,0.40169,0.291673,1.391699,35.747356,-29.15424,2.129871,4.63582E+18,-0.517992,0.332169,-0.607639,-0.502119,0.15145,0.683499,-5.062467,1.291168,0.36379,-1.508746,40.370831,16.455022,10.411578,4.63583E+18,0.599506,0.371382,0.603647,-0.371858,1
5.175139,-8.432638,-9.104553,0.196619,-3.3077,1.174245,42.280807,-2.482943,18.168235,4.63583E+18,-0.709544,0.094043,-0.696747,-0.047404,-1.216909,-0.899516,-1.336497,0.482511,0.290486,1.448924,35.43078,-29.586133,2.417634,4.63582E+18,-0.514889,0.328065,-0.611263,-0.503607,-0.061517,3.541213,-5.33088,0.262972,0.44065,-1.672526,40.097286,17.057604,10.35036,4.63583E+18,0.595381,0.368505,0.606912,-0.376009,1
4.524663,-5.830456,-2.489584,1.319478,-2.787704,1.554961,42.625433,-2.736879,17.231028,4.63583E+18,-0.717778,0.085071,-0.689298,-0.04925,-1.689036,-1.437109,-0.626977,0.504528,0.257946,1.382135,35.129528,-30.081124,2.795758,4.63582E+18,-0.51202,0.324003,-0.614747,-0.50492,-1.320489,4.652735,-3.536156,-0.76569,0.491098,-1.750694,39.733383,17.59468,10.516676,4.63583E+18,0.59255,0.362935,0.611997,-0.377653,1
3.307915,-3.704753,4.068272,1.916582,-2.459427,1.709595,42.857372,-3.033313,16.338508,4.63583E+18,-0.725096,0.073919,-0.682861,-0.049716,-1.566962,-2.302266,0.612192,0.418713,0.247696,1.191006,34.896291,-30.475134,2.984841,4.63582E+18,-0.509445,0.320581,-0.61775,-0.506041,-2.597887,5.077325,-1.005787,-1.531755,0.47601,-1.809793,39.277323,18.094613,10.92734,4.63583E+18,0.590773,0.355269,0.618289,-0.37748,1
3.565379,-0.238928,7.599095,0.463267,-2.349787,1.403096,43.170861,-3.536166,15.404926,4.63583E+18,-0.73159,0.068038,-0.67624,-0.05335,-1.442568,-2.560743,1.365912,0.209484,0.213881,0.905685,34.81683,-30.549685,3.082489,4.63582E+18,-0.507269,0.318259,-0.619846,-0.50713,-2.504073,5.162031,0.894146,-1.85681,0.415378,-1.815854,38.903859,18.455867,11.38053,4.63583E+18,0.589558,0.346652,0.624882,-0.376532,1
4.223315,2.665359,6.571709,-0.48353,-1.34548,1.075262,43.442273,-3.996621,14.621488,4.63583E+18,-0.73499,0.066185,-0.672312,-0.058362,-1.290095,-2.153709,1.536816,-0.124868,0.202629,0.605531,34.636593,-30.486014,3.167702,4.63582E+18,-0.505307,0.317391,-0.620806,-0.508457,-1.708163,4.491572,2.066783,-1.697313,0.362074,-1.71973,38.566492,18.815341,11.738899,4.63583E+18,0.588336,0.338556,0.630886,-0.375798,1
3.609595,5.274811,2.16746,-0.403137,0.427898,0.794224,43.437816,-4.2443,14.407478,4.63583E+18,-0.733486,0.065302,-0.673732,-0.061798,-1.230614,-2.085067,1.707718,-0.469977,0.212473,0.35735,34.330091,-30.742368,3.064599,4.63582E+18,-0.503385,0.317911,-0.620723,-0.510137,-1.154694,3.302659,2.475244,-1.168161,0.32728,-1.51856,38.203692,19.280971,12.031858,4.63583E+18,0.586724,0.332202,0.635639,-0.375979,1
0.8054,8.042196,-0.360132,-0.468912,2.013168,0.169039,43.203855,-4.396704,14.99801,4.63583E+18,-0.727641,0.06678,-0.67978,-0.063073,-1.180021,-2.604274,1.876273,-0.732685,0.194995,0.188375,34.198371,-30.987048,2.880732,4.63582E+18,-0.501515,0.319378,-0.619815,-0.512161,-0.556267,2.628444,2.457318,-0.527442,0.286986,-1.27974,38.026062,19.512927,12.321996,4.63583E+18,0.584677,0.327967,0.638927,-0.37731,1
-3.017725,8.393905,-1.207387,-0.525893,2.548271,-0.544687,42.980228,-4.461636,15.905936,4.63583E+18,-0.720381,0.070586,-0.687169,-0.062191,-0.928325,-2.821812,1.983382,-0.909272,0.188062,0.116039,34.278389,-31.055634,2.685415,4.63582E+18,-0.499576,0.321382,-0.618413,-0.514493,-0.376929,2.681562,2.397834,0.006274,0.258899,-1.089909,38.026062,19.819157,12.599882,4.63583E+18,0.582257,0.325484,0.641031,-0.379627,1
-5.286512,6.658733,-2.302311,-0.832751,2.238719,-1.012451,42.827467,-4.323956,16.609885,4.63583E+18,-0.713952,0.076563,-0.69333,-0.060866,-0.728964,-2.452342,1.671843,-0.978796,0.19035,0.131465,34.27374,-31.066482,2.490895,4.63582E+18,-0.497496,0.323491,-0.616877,-0.517024,-0.939723,3.989874,2.186397,0.16996,0.225012,-0.979624,37.968907,20.328465,12.805566,4.63583E+18,0.579868,0.323633,0.642631,-0.382152,1
-5.041271,3.559151,-3.392023,-1.177454,1.661161,-1.144778,42.631157,-4.073904,17.121181,4.63583E+18,-0.709039,0.083794,-0.69757,-0.060321,-0.314298,-1.924638,1.084402,-1.016282,0.209831,0.217788,34.210558,-31.242009,2.313991,4.63582E+18,-0.49512,0.325492,-0.615405,-0.519795,-0.952977,5.929389,1.756838,-0.08612,0.172882,-0.924881,37.707641,20.618303,12.808423,4.63583E+18,0.578042,0.321221,0.644428,-0.383923,1
-3.360213,-0.810404,-4.374714,-1.366866,1.251971,-0.780379,42.399229,-3.948927,17.691649,4.63583E+18,-0.705099,0.090416,-0.700623,-0.061541,-0.300336,-2.481579,0.480938,-1.016234,0.213918,0.3149,34.280522,-31.476111,2.215356,4.63582E+18,-0.492514,0.327246,-0.614062,-0.522751,-0.424669,6.697446,1.448015,-0.484722,0.152132,-0.883973,37.427383,20.67258,12.86348,4.63583E+18,0.57686,0.31792,0.646748,-0.384547,1
-1.677793,-4.378898,-4.899176,-1.067524,1.294956,-0.134943,42.248821,-4.02451,18.218789,4.63583E+18,-0.700939,0.094279,-0.704081,-0.063764,-0.787663,-3.665307,0.031579,-0.900604,0.168598,0.375801,34.100906,-31.556137,1.928579,4.63582E+18,-0.49004,0.328502,-0.612949,-0.525587,-0.35354,6.728601,1.164347,-0.815248,0.135879,-0.844264,37.285815,20.921704,13.055967,4.63583E+18,0.576212,0.313899,0.649491,-0.384198,1
-0.167001,-5.598263,-6.145305,-0.442831,1.299347,0.203159,42.050162,-4.139312,18.609427,4.63583E+18,-0.696893,0.095324,-0.707822,-0.065136,-1.063591,-4.451398,0.311978,-0.714791,0.129849,0.385016,33.638963,-31.566966,1.739471,4.63582E+18,-0.487891,0.329265,-0.612168,-0.528013,-0.765896,6.510471,0.937107,-0.988775,0.111905,-0.791683,37.183149,21.172609,13.219109,4.63583E+18,0.575924,0.309558,0.65237,-0.383274,1
0.534788,-5.213413,-8.532087,-0.092682,0.624398,0.280131,41.776666,-4.174932,18.899732,4.63583E+18,-0.694941,0.09494,-0.709713,-0.065966,-1.083365,-4.76647,0.223432,-0.480445,0.05386,0.322221,33.575773,-31.742511,1.648773,4.63582E+18,-0.486391,0.329542,-0.611656,-0.529813,-1.168677,6.170461,1.016466,-0.978087,0.107582,-0.703757,37.02734,21.245842,13.362535,4.63583E+18,0.575759,0.305466,0.65509,-0.382163,1
-0.281825,-3.637373,-9.827622,-0.066227,-0.750261,0.364675,41.739098,-4.262701,18.800374,4.63583E+18,-0.697034,0.09385,-0.707658,-0.067506,-0.993545,-4.971445,0.081418,-0.232686,-0.036211,0.212227,33.661225,-31.965776,1.65402,4.63582E+18,-0.485702,0.329397,-0.611356,-0.530881,-1.477096,6.297916,1.374884,-0.863721,0.086116,-0.594482,36.87798,21.356299,13.675567,4.63583E+18,0.575669,0.301905,0.657423,-0.381122,1
-1.590906,-1.875008,-8.716774,0.135043,-2.901893,0.428557,42.054828,-4.477474,18.083467,4.63583E+18,-0.705475,0.091375,-0.699378,-0.069474,-0.306294,-4.041324,-0.177225,-0.124361,-0.06636,0.05293,33.741264,-31.880332,1.562548,4.63582E+18,-0.485591,0.329372,-0.611015,-0.531391,-1.422743,6.638731,1.756508,-0.761158,0.044647,-0.484175,36.719303,21.533859,13.965269,4.63583E+18,0.575728,0.298822,0.659344,-0.380142,1
-1.458394,-0.448822,-5.053251,0.627481,-5.179939,0.405095,42.599834,-4.702475,16.600891,4.63583E+18,-0.720527,0.086833,-0.684317,-0.070784,0.23363,-2.92857,-0.469431,-0.205346,-0.06674,-0.140472,33.740492,-31.795653,1.561776,4.63582E+18,-0.485797,0.330002,-0.610228,-0.531717,-1.230857,6.483334,2.436432,-0.677887,0.008015,-0.359165,36.580637,21.533859,13.965269,4.63583E+18,0.575975,0.296221,0.660882,-0.379132,1
1.073548,1.012951,0.545501,0.99487,-5.791913,0.364986,43.335457,-4.684716,14.690498,4.63583E+18,-0.73708,0.081075,-0.667145,-0.071109,0.435607,-2.335043,-0.729356,-0.382843,-0.040902,-0.333253,33.739861,-31.716234,1.52641,4.63582E+18,-0.486119,0.331537,-0.608833,-0.532066,-1.146939,5.99084,3.061544,-0.559039,-0.028919,-0.225508,36.524551,21.533859,13.988148,4.63583E+18,0.576384,0.294212,0.661973,-0.378171,1
5.056665,2.681293,6.554577,0.567554,-3.646732,0.408423,44.070918,-4.546445,13.018317,4.63583E+18,-0.747204,0.077111,-0.656168,-0.072001,0.37843,-1.810958,-0.669746,-0.62925,-0.010178,-0.499505,33.904582,-31.555367,1.153419,4.63582E+18,-0.486387,0.334059,-0.60672,-0.532657,-0.988237,5.413445,3.309738,-0.398316,-0.078855,-0.1034,36.544573,21.496675,14.085811,4.63583E+18,0.576923,0.292846,0.662538,-0.377419,1
7.416427,3.631539,9.599592,-0.288768,0.235995,0.405473,44.254839,-4.679682,12.42381,4.63583E+18,-0.746347,0.076975,-0.656939,-0.073969,0.365353,-1.322915,-0.46542,-0.913573,0.046881,-0.625036,33.99397,-31.533161,0.873549,4.63582E+18,-0.486386,0.337595,-0.603906,-0.533625,-0.803847,4.827057,3.154935,-0.180156,-0.145866,0.003328,36.62715,21.392313,14.137723,4.63583E+18,0.577547,0.292192,0.662467,-0.377095,1
5.529769,2.810981,5.943485,-0.772708,3.199098,0.37613,43.822391,-5.078517,13.22662,4.63583E+18,-0.73716,0.079331,-0.666703,-0.076213,0.153953,-1.215467,-0.493689,-1.111502,0.078322,-0.691564,34.317442,-31.34683,0.781154,4.63582E+18,-0.486162,0.341761,-0.600608,-0.534897,-0.520994,4.041859,2.735958,0.042243,-0.214723,0.110596,36.683247,21.485563,14.040063,4.63583E+18,0.578259,0.292262,0.66175,-0.377209,1
1.61749,1.556245,0.01395,-0.941969,3.913765,0.375299,43.24374,-5.379133,14.675128,4.63583E+18,-0.725758,0.082416,-0.678449,-0.07867,-0.112272,-1.308401,-0.592975,-1.147821,0.101357,-0.696011,34.539359,-30.931826,0.578935,4.63582E+18,-0.485824,0.346053,-0.597251,-0.536203,-0.20855,3.17001,2.21889,0.215157,-0.239515,0.205612,36.700394,21.607103,13.942407,4.63583E+18,0.578976,0.292971,0.660585,-0.377601,1
-1.285727,0.246645,-3.513599,-0.791552,3.127314,0.308183,42.78179,-5.438237,15.956729,4.63583E+18,-0.716484,0.08496,-0.687686,-0.080751,-0.334214,-1.175854,-0.917388,-1.06659,0.131786,-0.654412,34.603372,-30.55369,0.269905,4.63582E+18,-0.48542,0.350135,-0.594179,-0.537331,-0.000779,2.92614,2.235253,0.283809,-0.248083,0.28724,36.773634,21.57282,13.844754,4.63583E+18,0.57976,0.294055,0.659189,-0.377994,1
-2.676138,-1.012554,-6.157135,-0.51821,1.817412,0.19404,42.472611,-5.59516,16.674502,4.63583E+18,-0.71101,0.086564,-0.69298,-0.082161,-0.393616,-1.435284,-1.507759,-0.883492,0.137118,-0.598003,34.555507,-30.713058,-0.078627,4.63582E+18,-0.485132,0.35371,-0.591596,-0.538099,0.019476,2.939903,2.433717,0.279262,-0.281948,0.353628,36.866886,21.443469,13.747089,4.63583E+18,0.580744,0.295257,0.657635,-0.378253,1
-3.028075,-1.697273,-7.671679,-0.152743,0.42936,0.090027,42.365953,-5.918799,16.927002,4.63583E+18,-0.709687,0.086907,-0.694227,-0.082706,-0.237932,-1.684398,-1.796866,-0.617909,0.127244,-0.545139,34.88891,-30.680894,-0.158696,4.63582E+18,-0.485133,0.35659,-0.589657,-0.538326,-0.122311,3.015976,2.836266,0.24261,-0.326008,0.396054,37.008427,21.370233,13.649441,4.63583E+18,0.581959,0.296415,0.655976,-0.378362,1
-2.90153,-1.77813,-7.5105,0.289889,-1.027129,0.017544,42.490901,-5.95402,16.830177,4.63583E+18,-0.712755,0.085649,-0.691284,-0.082282,0.051975,-1.103048,-1.996566,-0.409713,0.130186,-0.50303,35.249608,-30.361272,-0.165605,4.63582E+18,-0.485337,0.358949,-0.588247,-0.538116,-0.454238,3.480887,2.866963,0.173374,-0.388936,0.428276,37.071028,21.331258,13.574633,4.63583E+18,0.583477,0.297392,0.65423,-0.37828,1
-2.439478,-1.404392,-5.56877,0.496975,-2.296615,-0.046987,42.797978,-5.547057,16.230347,4.63583E+18,-0.719534,0.083521,-0.68458,-0.081519,0.295354,-0.56885,-1.718868,-0.275381,0.14467,-0.503977,35.164924,-30.206489,-0.262423,4.63582E+18,-0.485705,0.361069,-0.587163,-0.53755,-0.651129,3.59527,2.507034,0.069264,-0.434591,0.463344,37.021704,21.441619,13.508963,4.63583E+18,0.585301,0.298137,0.652489,-0.377882,1
-1.27205,-1.002183,-1.973659,0.583011,-2.872497,-0.122139,43.138833,-5.286124,15.207691,4.63583E+18,-0.727922,0.081143,-0.676069,-0.080476,0.523436,0.330764,-1.468569,-0.280153,0.152682,-0.535419,35.121564,-30.275843,-0.170904,4.63582E+18,-0.486113,0.36329,-0.586033,-0.536916,-0.756071,2.956273,1.796466,-0.004755,-0.487592,0.496818,36.927886,21.54794,13.225346,4.63583E+18,0.587409,0.298708,0.650689,-0.377264,1
0.562875,-0.536077,1.866269,0.594997,-2.442468,-0.149374,43.368867,-5.38569,14.2606,4.63583E+18,-0.735018,0.07894,-0.668768,-0.079161,0.673672,1.860231,-0.933764,-0.411674,0.171781,-0.573801,35.513661,-30.089661,-0.18314,4.63582E+18,-0.486358,0.365912,-0.584585,-0.536493,-0.819165,1.549385,1.000371,0.045376,-0.512031,0.535475,37.089421,21.168587,12.938102,4.63583E+18,0.589576,0.299464,0.648697,-0.376714,1
2.164562,0.025711,4.576978,0.405298,-1.008215,-0.139845,43.56511,-5.43135,13.69793,4.63583E+18,-0.738003,0.077758,-0.665757,-0.077926,0.510365,2.628277,-0.243955,-0.655697,0.235068,-0.609447,35.730302,-29.684527,-0.384606,4.63582E+18,-0.48615,0.369252,-0.582658,-0.536489,-0.991813,0.526027,0.469746,0.157309,-0.511046,0.566812,37.23464,20.728647,12.686662,4.63583E+18,0.591644,0.300579,0.646486,-0.376385,1
2.483133,0.267627,4.592556,0.165844,0.636176,-0.143843,43.715648,-5.264218,13.651309,4.63583E+18,-0.73634,0.077857,-0.667714,-0.07681,0.27237,2.040128,0.585227,-0.86046,0.268573,-0.617122,35.729546,-29.449599,-0.664542,4.63582E+18,-0.485554,0.373094,-0.58032,-0.536906,-1.321725,0.398081,-0.12808,0.218556,-0.526847,0.601838,37.375571,20.853098,12.511323,4.63583E+18,0.593726,0.301911,0.644088,-0.376151,1
1.132868,0.081707,2.101055,0.083534,1.384562,-0.153347,43.676217,-5.095499,14.070105,4.63583E+18,-0.732556,0.078473,-0.671923,-0.075649,-0.067152,0.579845,2.069929,-0.851847,0.274981,-0.59636,35.899689,-29.524366,-0.738546,4.63582E+18,-0.484899,0.376874,-0.578034,-0.537323,-1.361409,0.748077,-0.613905,0.135744,-0.519928,0.622381,37.949513,20.557261,12.424284,4.63583E+18,0.595919,0.303101,0.641805,-0.37563,1
-0.785273,0.026599,-0.520455,0.102815,1.027015,-0.171834,43.360716,-5.091423,14.644165,4.63583E+18,-0.729766,0.078966,-0.675024,-0.074492,-0.540181,0.328079,2.504035,-0.825945,0.264166,-0.585612,36.047699,-29.423651,-0.647756,4.63582E+18,-0.484277,0.380545,-0.57579,-0.537705,-0.973624,1.176817,-0.077005,-0.028282,-0.489811,0.648236,39.007791,19.339488,12.323657,4.63583E+18,0.598271,0.303996,0.639812,-0.374563,1
-1.67961,0.184983,-1.945639,0.108294,0.113456,-0.168303,43.210133,-5.083291,14.973472,4.63583E+18,-0.729538,0.079149,-0.675343,-0.073631,-0.764496,0.701878,1.93494,-0.794174,0.235262,-0.590817,36.05149,-29.103992,-0.676721,4.63582E+18,-0.483778,0.384093,-0.57354,-0.538037,-0.709282,1.138835,0.811151,-0.163774,-0.480995,0.686828,39.662307,18.594275,11.958698,4.63583E+18,0.600825,0.304667,0.637997,-0.373024,1
-1.007722,0.131176,-1.798981,0.121683,-0.625449,-0.115559,43.493998,-5.047916,14.821078,4.63583E+18,-0.731375,0.078915,-0.673434,-0.073136,-0.685919,1.23131,1.238375,-0.74109,0.205488,-0.611311,36.290306,-28.93842,-0.952158,4.63582E+18,-0.483472,0.387508,-0.571306,-0.538239,-0.82484,0.587787,1.255316,-0.2315,-0.519311,0.718371,39.820988,18.444948,11.743522,4.63583E+18,0.603608,0.305188,0.636142,-0.371269,1
0.264934,0.018466,-0.174376,0.138859,-0.67058,-0.039535,43.727847,-5.097673,14.442671,4.63583E+18,-0.733315,0.078402,-0.671414,-0.072838,-0.537887,2.361279,0.382279,-0.793888,0.178716,-0.650099,36.433767,-28.837736,-1.147475,4.63582E+18,-0.483223,0.391056,-0.568827,-0.538523,-0.907807,-0.575277,1.085949,-0.177134,-0.575521,0.749776,39.999639,18.252043,11.697909,4.63583E+18,0.60651,0.305837,0.634013,-0.369645,1
0.886421,-0.031903,1.542536,0.141049,-0.146242,0.034468,43.600846,-5.014167,14.25199,4.63583E+18,-0.733764,0.077833,-0.671017,-0.072589,-0.559977,3.135149,0.065641,-0.916449,0.166236,-0.67667,36.363529,-28.507413,-1.354937,4.63582E+18,-0.482853,0.394877,-0.565993,-0.539052,-0.796698,-2.064509,0.48691,0.018561,-0.578361,0.786342,40.201026,18.001023,11.459829,4.63583E+18,0.609216,0.307068,0.631517,-0.368444,1
0.745986,-0.066679,1.997399,0.113017,0.414673,0.091959,43.3648,-4.76376,14.433766,4.63583E+18,-0.732616,0.077359,-0.672344,-0.072412,-0.72936,2.457829,-0.023739,-1.009877,0.142936,-0.685082,36.537434,-28.176249,-1.739491,4.63582E+18,-0.482391,0.398844,-0.562874,-0.53981,-0.62989,-2.987963,-0.269864,0.254045,-0.553442,0.825722,40.304819,17.873622,11.124167,4.63583E+18,0.611605,0.309034,0.628663,-0.367723,1
0.079771,-0.136424,1.243282,0.047703,0.616521,0.138874,43.249911,-4.763948,14.768681,4.63583E+18,-0.730863,0.077013,-0.674279,-0.072496,-0.88117,0.973055,0.389745,-0.95963,0.119914,-0.692422,36.925071,-28.005348,-2.00814,4.63582E+18,-0.482071,0.402665,-0.559796,-0.54046,-0.639282,-2.725017,-0.65758,0.466221,-0.547889,0.876634,40.548944,17.531424,10.951661,4.63583E+18,0.613772,0.311675,0.625419,-0.367414,1
-0.809995,-0.313552,0.339311,-0.018924,0.428375,0.170073,43.214207,-5.051835,14.923701,4.63583E+18,-0.729605,0.076726,-0.675627,-0.072922,-1.066036,-0.201323,0.9953,-0.8062,0.058621,-0.713318,37.078436,-27.82991,-1.916562,4.63582E+18,-0.482187,0.406079,-0.556892,-0.540801,-1.01691,-1.803829,-0.903383,0.57584,-0.552161,0.948413,40.810177,17.121685,10.831213,4.63583E+18,0.615903,0.31477,0.621888,-0.367204,1
-1.49591,-0.390337,0.125077,-0.073759,0.003412,0.179449,43.251731,-5.131261,14.879623,4.63583E+18,-0.72952,0.076449,-0.675669,-0.073667,-0.5525,-0.419934,2.018016,-0.568566,0.041453,-0.730391,37.156994,-27.579691,-1.934775,4.63582E+18,-0.482775,0.40901,-0.554451,-0.540576,-1.678478,-1.377037,-1.553161,0.611264,-0.554191,1.040653,41.070583,16.892621,10.593205,4.63583E+18,0.618116,0.318183,0.618159,-0.366841,1
-1.864169,-0.103293,0.881965,-0.115804,-0.487591,0.16194,43.331225,-5.053865,14.78197,4.63583E+18,-0.730808,0.076199,-0.674198,-0.074633,-0.244838,0.507677,2.00091,-0.449129,0.055073,-0.801189,37.320239,-27.243959,-2.20954,4.63582E+18,-0.483687,0.411889,-0.552178,-0.539902,-2.091134,-1.021694,-1.96002,0.62273,-0.544866,1.161194,41.126743,16.650136,10.194885,4.63583E+18,0.620453,0.321939,0.614256,-0.366173,1
-1.77782,0.446306,2.320872,-0.147196,-0.876919,0.114084,43.410419,-5.135146,14.64055,4.63583E+18,-0.733188,0.076056,-0.67151,-0.075665,-0.459879,1.791552,0.815429,-0.533229,0.065412,-0.961736,37.547593,-27.0044,-2.203492,4.63582E+18,-0.484784,0.415322,-0.549451,-0.53907,-1.957747,-1.581059,-2.434895,0.639415,-0.515463,1.319342,41.180818,16.2986,9.750939,4.63583E+18,0.62291,0.326176,0.610168,-0.365085,1
-1.280259,0.94535,3.875771,-0.183202,-0.998612,0.037876,43.527438,-5.300105,14.26358,4.63583E+18,-0.735909,0.076198,-0.668404,-0.076602,-0.800119,2.855775,-0.16921,-0.732418,0.089958,-1.195331,37.716153,-26.818329,-2.130058,4.63582E+18,-0.48599,0.419736,-0.545906,-0.538165,-1.574389,-2.515824,-2.834043,0.719192,-0.460886,1.499526,41.45542,15.817676,9.437975,4.63583E+18,0.625365,0.331146,0.605827,-0.363641,1
-0.563937,1.009647,5.008594,-0.23025,-0.835765,-0.03814,43.642358,-5.345951,13.839628,4.63583E+18,-0.738174,0.076746,-0.665748,-0.077383,-1.344541,2.801917,-0.516497,-1.022,0.161333,-1.475226,38.038088,-26.387377,-2.417732,4.63582E+18,-0.487134,0.425515,-0.541342,-0.537202,-1.549447,-3.026096,-3.309712,0.843446,-0.394945,1.678954,41.847732,15.297593,9.34031,4.63583E+18,0.627718,0.336973,0.601187,-0.361931,1
0.091635,0.572932,5.358167,-0.289224,-0.625669,-0.079301,43.759351,-5.31022,13.646699,4.63583E+18,-0.739843,0.077657,-0.663699,-0.078134,-2.527231,2.159199,-0.628167,-1.340716,0.216047,-1.803647,38.433969,-25.721342,-2.618431,4.63582E+18,-0.488288,0.432772,-0.535555,-0.536157,-2.02134,-3.037013,-4.157765,1.018538,-0.352749,1.83202,42.111038,14.850835,9.177237,4.63583E+18,0.632747,0.338934,0.598847,-0.355159,1
0.323055,-0.032071,5.241166,-0.319846,-0.588383,-0.111056,43.955552,-5.272715,13.399018,4.63583E+18,-0.741403,0.078761,-0.661739,-0.078859,-3.264793,2.01406,-1.507762,-1.596784,0.298379,-2.125972,38.904726,-25.135447,-2.740225,4.63582E+18,-0.489465,0.441407,-0.528725,-0.534821,-2.700384,-1.538476,-4.485274,1.12382,-0.363613,1.979016,42.213543,14.389147,8.778938,4.63583E+18,0.635225,0.345838,0.593664,-0.352772,1
0.292685,-0.510562,4.938725,-0.362632,-0.81956,-0.143961,44.149977,-5.236976,13.014655,4.63583E+18,-0.743589,0.080012,-0.659033,-0.079675,-3.319684,0.076312,-2.296205,-1.991382,0.273937,-2.480737,39.299938,-24.518442,-3.217235,4.63582E+18,-0.490686,0.451508,-0.520234,-0.533596,-3.314236,-1.421356,-3.243182,1.145479,-0.268164,2.18888,42.451856,13.6393,8.403204,4.63583E+18,0.637417,0.353872,0.588087,-0.350182,1
0.487027,-0.896415,4.849269,-0.399333,-1.240291,-0.164153,44.227421,-5.280728,12.686226,4.63583E+18,-0.746909,0.08129,-0.65499,-0.080668,-5.592353,-1.059498,-1.74526,-1.874403,0.533994,-2.865715,39.772818,-23.411735,-3.510315,4.63582E+18,-0.492324,0.462695,-0.51171,-0.530738,-4.029006,-1.95115,-5.823819,1.328042,-0.389248,2.284872,42.932444,12.802543,8.380303,4.63583E+18,0.639702,0.362408,0.581714,-0.347923,1
