Accelerometer-X,Accelerometer-Y,Accelerometer-Z,Gyroscope-X,Gyroscope-Y,Gyroscope-Z,Magnetometer-X,Magnetometer-Y,Magnetometer-Z,Barometer-pressure,Orientation-S,Orientation-X,Orientation-Y,Orientation-Z,Accelerometer-X,Accelerometer-Y,Accelerometer-Z,Gyroscope-X,Gyroscope-Y,Gyroscope-Z,Magnetometer-X,Magnetometer-Y,Magnetometer-Z,Barometer-pressure,Orientation-S,Orientation-X,Orientation-Y,Orientation-Z,Accelerometer-X,Accelerometer-Y,Accelerometer-Z,Gyroscope-X,Gyroscope-Y,Gyroscope-Z,Magnetometer-X,Magnetometer-Y,Magnetometer-Z,Barometer-pressure,Orientation-S,Orientation-X,Orientation-Y,Orientation-Z,jump
-9.790338,0.292978,-1.989807,0.169857,-0.039057,0.076887,37.070886,-2.859529,27.074412,4.63583E+18,0.63677,-0.092951,0.763777,0.050288,-9.547442,1.901399,-1.206412,-0.185231,0.508365,0.142691,38.008811,-26.16763,2.367368,4.63582E+18,0.41295,-0.488827,0.568963,0.516529,-9.980157,-0.000403,0.158696,-0.228407,-0.463024,0.003791,42.221924,14.1791,8.810523,4.63583E+18,0.579373,0.492918,0.541388,-0.358131,0
-9.741978,0.225274,-1.922104,0.145655,-0.027312,0.068181,37.153794,-2.708919,27.119309,4.63583E+18,0.63692,-0.092323,0.763744,0.050043,-9.64047,1.956977,-1.423583,-0.19013,0.502693,0.138527,37.893914,-26.111635,2.585006,4.63582E+18,0.411071,-0.489914,0.569702,0.516184,-9.953733,-0.012207,0.165001,-0.219381,-0.464163,0.008651,42.292348,14.185002,8.571086,4.63583E+18,0.580984,0.491581,0.540614,-0.358528,0
-9.613227,0.139817,-1.865664,0.113912,-0.010582,0.060522,37.171543,-2.673421,27.137058,4.63583E+18,0.637007,-0.091806,0.763745,0.049871,-9.667849,1.890489,-1.648829,-0.17835,0.498421,0.143609,37.752462,-26.111635,2.712116,4.63582E+18,0.409212,-0.490956,0.570467,0.515825,-9.899804,-0.018511,0.126778,-0.21025,-0.466816,0.016714,42.286446,14.140877,8.435316,4.63583E+18,0.582591,0.490277,0.539802,-0.358929,0
-9.524787,-0.032658,-1.807172,0.081429,0.000985,0.062979,37.171543,-2.741116,27.069362,4.63583E+18,0.637044,-0.091371,0.763771,0.049805,-9.664883,1.697731,-1.675795,-0.136072,0.487522,0.155762,37.725909,-26.170531,2.869979,4.63582E+18,0.407438,-0.491872,0.571326,0.515405,-9.887997,-0.043326,0.041326,-0.198466,-0.469503,0.024672,42.330572,14.061729,8.435316,4.63583E+18,0.584193,0.489009,0.538952,-0.359332,0
-9.499896,-0.198971,-1.775146,0.059538,0.025207,0.070859,37.103843,-2.8846,27.061276,4.63583E+18,0.636994,-0.090974,0.763859,0.04982,-9.683856,1.538953,-1.57691,-0.080605,0.465497,0.168139,37.756678,-26.341422,2.908337,4.63582E+18,0.405802,-0.492615,0.572289,0.514918,-9.856482,-0.054734,-0.018909,-0.187303,-0.471605,0.03439,42.321475,14.064124,8.284046,4.63583E+18,0.58579,0.487784,0.538056,-0.359739,0
-9.449008,-0.328645,-1.808755,0.03862,0.050438,0.074326,37.028069,-2.985262,27.063812,4.63583E+18,0.636855,-0.090626,0.764011,0.049902,-9.622822,1.666864,-1.464888,-0.041479,0.449583,0.173776,37.649793,-26.394568,2.907405,4.63582E+18,0.40427,-0.493242,0.573319,0.514377,-9.814355,-0.029923,-0.042924,-0.176036,-0.476533,0.045553,42.192309,14.099551,7.997387,4.63583E+18,0.58728,0.486765,0.53696,-0.360328,0
-9.45566,-0.392691,-1.857579,0.015568,0.069926,0.079001,37.138544,-3.061035,27.141165,4.63583E+18,0.636644,-0.090329,0.764212,0.050062,-9.553384,1.831515,-1.427053,-0.030241,0.443281,0.175176,37.508338,-26.257316,3.094698,4.63582E+18,0.402771,-0.493831,0.574363,0.513823,-9.827754,-0.056323,-0.092945,-0.161564,-0.483975,0.056269,42.109238,14.061738,7.767035,4.63583E+18,0.58877,0.485791,0.535801,-0.360936,0
-9.480077,-0.489873,-1.896742,-0.004548,0.073702,0.082649,37.171543,-2.950558,27.084113,4.63583E+18,0.636412,-0.090074,0.764419,0.050294,-9.488954,1.926975,-1.300384,-0.033989,0.443281,0.170028,37.511154,-26.293354,3.222754,4.63582E+18,0.401275,-0.494436,0.575386,0.513267,-9.863978,-0.110262,-0.140583,-0.1483,-0.482664,0.066915,42.267171,13.988498,7.621744,4.63583E+18,0.590244,0.484872,0.534601,-0.361543,0
-9.504493,-0.541721,-1.923695,-0.022929,0.059318,0.079931,36.910449,-2.724167,27.131504,4.63583E+18,0.63622,-0.089873,0.764584,0.050583,-9.447727,2.168125,-1.18792,-0.064756,0.449533,0.154338,37.652638,-26.508081,3.260581,4.63582E+18,0.399731,-0.495142,0.576319,0.512743,-9.856887,-0.077969,-0.114985,-0.143683,-0.475774,0.078733,42.464833,13.871153,7.524485,4.63583E+18,0.592152,0.483344,0.533979,-0.361388,0
-9.4999,-0.510662,-1.919102,-0.039393,0.058927,0.073967,36.841942,-2.808771,27.08159,4.63583E+18,0.636024,-0.089735,0.764741,0.050908,-9.387093,2.351427,-1.159303,-0.124535,0.466956,0.136881,37.654037,-26.641556,3.362038,4.63582E+18,0.398059,-0.496024,0.577115,0.512296,-9.883272,-0.011419,-0.060249,-0.146957,-0.473189,0.089311,42.424269,13.83217,7.533544,4.63583E+18,0.59374,0.482329,0.532895,-0.361738,0
-9.55537,-0.40382,-1.926231,-0.0588,0.068276,0.062482,37.035309,-3.037692,26.996134,4.63583E+18,0.635794,-0.089688,0.764915,0.051262,-9.400891,2.168154,-1.084871,-0.165299,0.480035,0.122768,37.491152,-26.672382,3.485296,4.63582E+18,0.396299,-0.497034,0.577814,0.511894,-10.012819,-0.038192,0.001178,-0.151746,-0.474292,0.098441,42.385281,13.94951,7.524098,4.63583E+18,0.595354,0.481315,0.531798,-0.362051,0
-9.676959,-0.281743,-1.957776,-0.077403,0.066268,0.047972,37.08609,-2.953112,27.046041,4.63583E+18,0.635566,-0.089735,0.765073,0.051637,-9.506557,1.837925,-0.955188,-0.165022,0.482366,0.114888,37.34966,-26.594936,3.676413,4.63582E+18,0.394549,-0.498065,0.578498,0.511471,-10.133318,-0.066554,0.087016,-0.158223,-0.472019,0.106917,42.458521,13.988511,7.326048,4.63583E+18,0.596983,0.480308,0.530694,-0.362324,0
-9.811228,-0.227353,-1.975059,-0.096406,0.055006,0.027098,37.028087,-2.849897,27.131486,4.63583E+18,0.635371,-0.089897,0.76519,0.052021,-9.587408,1.846086,-0.962557,-0.155651,0.478197,0.105677,37.239005,-26.513689,3.796502,4.63582E+18,0.392846,-0.499091,0.579174,0.511017,-10.156168,0.020462,0.178376,-0.170075,-0.462854,0.113878,42.531765,13.833376,7.045277,4.63583E+18,0.598621,0.479304,0.529611,-0.362536,0
-9.848833,-0.171403,-1.967933,-0.11563,0.051493,0.007207,37.070842,-3.025438,27.158931,4.63583E+18,0.635185,-0.090172,0.765286,0.052416,-9.611034,2.035221,-1.216266,-0.166872,0.482906,0.100004,37.134922,-26.52025,3.830102,4.63582E+18,0.391118,-0.500156,0.579819,0.510568,-10.150651,0.035064,0.270121,-0.184477,-0.457167,0.121354,42.605007,13.721121,6.808614,4.63583E+18,0.600282,0.47829,0.528543,-0.362688,0
-9.899709,-0.168363,-1.984726,-0.134012,0.044504,-0.014558,37.211762,-3.27927,27.016469,4.63583E+18,0.635018,-0.090564,0.76535,0.052814,-9.590819,2.012258,-1.469874,-0.17644,0.484802,0.093894,37.223122,-26.708346,3.994962,4.63582E+18,0.389378,-0.501254,0.580432,0.510126,-10.150259,-0.012207,0.367799,-0.196712,-0.454411,0.131038,42.640461,13.765227,6.714072,4.63583E+18,0.601973,0.477268,0.52748,-0.362779,0
-9.970408,-0.267564,-1.999473,-0.140328,0.019044,-0.030222,37.186792,-3.264959,27.05569,4.63583E+18,0.634934,-0.091016,0.76534,0.0532,-9.566014,1.946741,-1.580519,-0.171408,0.474924,0.085751,37.391277,-26.872694,4.220735,4.63582E+18,0.387687,-0.50234,0.581019,0.509677,-10.125441,-0.062637,0.415052,-0.202983,-0.446311,0.14279,42.640461,13.724625,6.663642,4.63583E+18,0.603676,0.476264,0.526422,-0.362805,0
-9.946993,-0.370303,-1.982683,-0.142687,-0.00748,-0.049182,36.978229,-3.111849,27.298332,4.63583E+18,0.634937,-0.09153,0.765251,0.053554,-9.479401,2.084432,-1.755997,-0.186395,0.470284,0.078206,37.357689,-26.821923,4.284799,4.63582E+18,0.38599,-0.503456,0.581549,0.509259,-10.057307,-0.153987,0.440263,-0.200707,-0.439491,0.155642,42.678277,13.610059,6.471446,4.63583E+18,0.605374,0.475305,0.525349,-0.362788,0
-9.888498,-0.477628,-1.987265,-0.155818,-0.025504,-0.063556,36.995056,-3.211586,27.356791,4.63583E+18,0.634996,-0.09212,0.765106,0.053919,-9.341698,2.102319,-1.917339,-0.192832,0.463842,0.069396,37.239037,-26.655218,4.2806,4.63582E+18,0.384313,-0.504588,0.582034,0.508854,-10.06679,-0.201621,0.539508,-0.192093,-0.439595,0.171182,42.713703,13.530517,6.234807,4.63583E+18,0.606971,0.474551,0.524092,-0.362926,0
-9.817802,-0.645472,-1.970478,-0.172684,-0.03476,-0.071299,37.206139,-3.314821,27.134506,4.63583E+18,0.635151,-0.091763,0.765051,0.053478,-9.265032,2.010023,-1.982184,-0.180783,0.455297,0.065457,37.105535,-26.605676,4.272591,4.63582E+18,0.382688,-0.50569,0.582519,0.508428,-10.15775,-0.176015,0.648183,-0.190786,-0.445557,0.186066,42.669589,13.489181,6.146626,4.63583E+18,0.608598,0.473822,0.522786,-0.363038,0
-9.754229,-0.751256,-1.936403,-0.183009,-0.040545,-0.077707,37.121711,-3.139359,27.066357,4.63583E+18,0.635251,-0.092467,0.764854,0.053897,-9.228413,1.985226,-2.026813,-0.172973,0.446385,0.057913,37.083046,-26.797937,4.310365,4.63582E+18,0.381115,-0.506776,0.582989,0.507989,-10.218387,-0.171695,0.626902,-0.199917,-0.456858,0.198883,42.628254,13.451372,6.10212,4.63583E+18,0.610283,0.473078,0.521438,-0.363117,0
-9.654553,-0.807713,-1.909446,-0.190707,-0.028131,-0.084961,37.028122,-3.020842,27.141106,4.63583E+18,0.635309,-0.093217,0.764685,0.054317,-9.216973,1.953184,-2.034055,-0.168767,0.432732,0.044694,37.147129,-26.991336,4.449611,4.63582E+18,0.379611,-0.507857,0.583416,0.507545,-10.204207,-0.333935,0.466635,-0.189648,-0.457512,0.213905,42.747966,13.460041,5.998165,4.63583E+18,0.611969,0.472389,0.520041,-0.36318,0
-9.612321,-0.875857,-1.952656,-0.193957,-0.004281,-0.089901,37.080467,-3.196225,27.248414,4.63583E+18,0.635291,-0.093997,0.764576,0.054724,-9.278773,2.032919,-1.989424,-0.170971,0.415409,0.030142,37.117753,-27.014219,4.607152,4.63582E+18,0.378174,-0.508938,0.583778,0.507119,-10.124662,-0.444979,0.284313,-0.154778,-0.441352,0.23265,42.942102,13.381674,5.850494,4.63583E+18,0.61413,0.47106,0.519312,-0.362301,0
-9.674854,-0.852496,-1.994375,-0.195248,-0.009076,-0.093329,37.088636,-3.247169,27.194051,4.63583E+18,0.635287,-0.09479,0.764451,0.055129,-9.367653,2.28582,-2.028326,-0.185823,0.407999,0.019861,37.057481,-26.936785,4.696793,4.63582E+18,0.376744,-0.51005,0.584073,0.506726,-10.102215,-0.28236,0.226426,-0.13786,-0.424365,0.248533,43.01889,13.105648,5.711494,4.63583E+18,0.615796,0.470473,0.517987,-0.362134,0
-9.77963,-0.851972,-1.97303,-0.199698,-0.03542,-0.102451,36.960494,-3.053943,27.24131,4.63583E+18,0.635368,-0.095618,0.764252,0.055534,-9.403896,2.398386,-2.169481,-0.208355,0.404795,0.009447,37.049469,-26.880703,4.794452,4.63582E+18,0.375295,-0.511214,0.584291,0.506377,-10.119937,-0.13389,0.294542,-0.141581,-0.412685,0.261385,43.01889,12.870164,5.569746,4.63583E+18,0.61746,0.469918,0.51667,-0.3619,0
-9.821863,-0.8352,-1.955733,-0.205038,-0.05518,-0.112285,36.995009,-3.128588,27.336404,4.63583E+18,0.635511,-0.096486,0.763994,0.055937,-9.42869,2.317488,-2.171779,-0.210726,0.398653,-0.000701,37.024295,-26.939441,4.892112,4.63582E+18,0.373875,-0.512392,0.584472,0.506028,-10.195528,-0.235461,0.423698,-0.13321,-0.406379,0.276373,42.974795,12.837454,5.43073,4.63583E+18,0.619007,0.469578,0.515188,-0.361812,0
-9.865598,-0.801125,-1.972504,-0.209533,-0.08495,-0.123589,37.080463,-3.229334,27.279515,4.63583E+18,0.635774,-0.097069,0.763692,0.056066,-9.460737,2.432713,-2.145819,-0.207588,0.391309,0.002937,36.946858,-27.080971,4.989767,4.63582E+18,0.372471,-0.513539,0.584653,0.505692,-10.279023,-0.348106,0.594981,-0.109025,-0.402624,0.290741,42.977528,12.878811,5.333077,4.63583E+18,0.620518,0.469334,0.513648,-0.361729,0
-9.924089,-0.793481,-2.103178,-0.210425,-0.145956,-0.135339,37.088638,-3.247169,27.036955,4.63583E+18,0.636208,-0.098004,0.763182,0.056462,-9.469126,2.241662,-2.229761,-0.199848,0.387973,0.007811,36.920132,-27.048981,5.020312,4.63582E+18,0.37108,-0.514653,0.584853,0.50535,-10.297139,-0.246952,0.759188,-0.084044,-0.400004,0.305211,43.056676,12.759152,5.191339,4.63583E+18,0.621993,0.469187,0.512048,-0.361655,0
-9.936827,-0.764509,-2.281159,-0.227326,-0.21853,-0.147086,37.08609,-3.372717,26.910759,4.63583E+18,0.636868,-0.099004,0.762469,0.05691,-9.510314,1.98254,-2.196586,-0.185556,0.373289,0.004574,36.972029,-26.79683,4.985561,4.63582E+18,0.369761,-0.51572,0.585053,0.504998,-10.359729,-0.115,0.855295,-0.074253,-0.406651,0.320131,43.136218,12.564998,5.00193,4.63583E+18,0.623483,0.469085,0.510384,-0.361574,0
-9.888536,-0.834124,-2.184193,-0.243619,-0.268573,-0.165597,37.028143,-3.28031,26.960516,4.63583E+18,0.637683,-0.100093,0.76161,0.057381,-9.495499,2.072182,-2.169469,-0.197134,0.359966,-0.001133,36.905312,-26.636555,5.138101,4.63582E+18,0.368461,-0.516789,0.585193,0.504692,-10.400321,-0.104343,0.916715,-0.074219,-0.417781,0.335669,43.133506,12.488173,4.863297,4.63583E+18,0.625017,0.468996,0.508659,-0.361472,0
-9.798531,-0.951091,-2.061588,-0.261952,-0.262508,-0.185046,37.07079,-3.121625,26.978361,4.63583E+18,0.638474,-0.101294,0.760752,0.057856,-9.337543,2.169845,-2.196959,-0.22357,0.359232,-0.007175,36.797307,-26.695265,5.355977,4.63582E+18,0.367117,-0.517911,0.585262,0.504442,-10.426278,-0.065407,0.945881,-0.085823,-0.435692,0.346698,43.129911,12.450396,4.721183,4.63583E+18,0.626625,0.46887,0.506881,-0.36135,0
-9.84572,-0.966936,-2.057948,-0.283711,-0.241594,-0.194131,37.211617,-3.156063,26.823869,4.63583E+18,0.63919,-0.102587,0.759938,0.058367,-9.252843,2.141727,-2.202263,-0.246073,0.354895,-0.011782,36.834666,-26.861956,5.390742,4.63582E+18,0.365744,-0.519067,0.585266,0.504247,-10.537301,0.006682,0.832932,-0.100507,-0.455233,0.353692,43.285009,12.295299,4.525864,4.63583E+18,0.628309,0.468689,0.505058,-0.361213,0
-9.969805,-0.974041,-2.024425,-0.285865,-0.262477,-0.198006,37.370324,-3.367057,26.715447,4.63583E+18,0.63997,-0.103892,0.759064,0.058883,-9.258136,1.944436,-2.279326,-0.244844,0.343417,-0.014253,36.861435,-26.995492,5.368165,4.63582E+18,0.364405,-0.520202,0.585247,0.504068,-10.431957,-0.088906,0.568759,-0.09094,-0.446567,0.367745,43.441388,12.101146,4.336854,4.63583E+18,0.630846,0.467352,0.504346,-0.359514,0
-9.949579,-0.928308,-1.994908,-0.291955,-0.284383,-0.20966,37.471084,-3.418073,26.697592,4.63583E+18,0.640841,-0.104936,0.758165,0.059135,-9.347783,1.925313,-2.340365,-0.233828,0.327793,-0.014954,36.750829,-27.080948,5.499362,4.63582E+18,0.363129,-0.521287,0.585224,0.503894,-10.121644,-0.176434,0.25768,-0.054808,-0.41883,0.381463,43.438706,11.986523,4.147458,4.63583E+18,0.632498,0.467262,0.50262,-0.359145,0
-9.734079,-0.905901,-1.931879,-0.303878,-0.239403,-0.225233,37.546863,-3.282908,26.765174,4.63583E+18,0.641546,-0.106355,0.757334,0.059603,-9.39095,1.990542,-2.409785,-0.226048,0.315342,-0.014954,36.701117,-27.137058,5.627613,4.63582E+18,0.361899,-0.522333,0.585198,0.503727,-9.847169,0.05533,0.122456,-0.02929,-0.38772,0.393313,43.315485,11.869215,4.008794,4.63583E+18,0.633951,0.467447,0.500783,-0.358909,0
-9.545299,-0.913003,-1.916562,-0.315007,-0.16562,-0.237877,37.687696,-3.314755,26.638215,4.63583E+18,0.642013,-0.107866,0.75669,0.060042,-9.321543,2.038636,-2.449136,-0.221776,0.304694,-0.014954,36.859787,-27.078402,5.656941,4.63582E+18,0.360703,-0.523349,0.585163,0.503571,-9.679328,0.470356,0.172046,-0.038269,-0.35743,0.401657,43.28268,11.672763,3.967406,4.63583E+18,0.635366,0.467668,0.499022,-0.358572,0
-9.480601,-1.002454,-1.984151,-0.322309,-0.132644,-0.243713,37.720875,-3.400209,26.445444,4.63583E+18,0.642371,-0.109432,0.756125,0.060482,-9.273798,1.988365,-2.370984,-0.213838,0.297249,-0.013121,36.964016,-26.966154,5.713065,4.63582E+18,0.359538,-0.524331,0.585136,0.503414,-9.669022,0.816156,0.276753,-0.066756,-0.33565,0.40104,43.487703,11.52265,3.917059,4.63583E+18,0.636788,0.467843,0.497359,-0.358132,0
-9.492254,-1.179891,-2.021323,-0.326183,-0.156055,-0.240382,37.720875,-3.360147,26.259799,4.63583E+18,0.642798,-0.111004,0.755495,0.060964,-9.340087,1.816767,-2.282784,-0.194855,0.286046,-0.008514,36.93889,-26.995468,5.717252,4.63582E+18,0.358431,-0.525249,0.585141,0.50324,-9.717852,0.996231,0.373274,-0.096532,-0.31584,0.398386,43.761043,11.411645,3.769052,4.63583E+18,0.638645,0.467368,0.496355,-0.356835,0
-9.478054,-1.336574,-2.007123,-0.32263,-0.176941,-0.234197,37.595389,-3.277259,26.289072,4.63583E+18,0.643289,-0.112541,0.754809,0.06146,-9.423762,1.735217,-2.278598,-0.171451,0.26728,-0.006043,36.861466,-27.051605,5.821569,4.63582E+18,0.357416,-0.526086,0.585171,0.503054,-9.659703,1.087971,0.434308,-0.12602,-0.295029,0.392396,43.797896,11.214825,3.63038,4.63583E+18,0.640179,0.467286,0.495032,-0.35603,0
-9.405369,-1.454112,-1.99236,-0.312221,-0.161934,-0.229477,37.436682,-3.259377,26.384184,4.63583E+18,0.643734,-0.114038,0.754166,0.061929,-9.366206,1.99369,-2.291511,-0.163886,0.258827,-0.003509,36.830442,-27.026484,6.106526,4.63582E+18,0.356431,-0.526886,0.585209,0.50287,-9.519899,1.24853,0.463881,-0.166285,-0.274736,0.380581,43.689171,10.976997,3.639306,4.63583E+18,0.641628,0.467239,0.493715,-0.355312,0
-9.377841,-1.515707,-1.989807,-0.293715,-0.140125,-0.222671,37.4614,-3.384864,26.337044,4.63583E+18,0.644117,-0.11547,0.753587,0.062347,-9.297855,2.208134,-2.3358,-0.178962,0.261087,0.000366,36.824144,-27.007665,6.165058,4.63582E+18,0.3554,-0.527703,0.585227,0.502723,-9.429285,1.417927,0.457591,-0.21273,-0.256644,0.367797,43.697707,10.782813,3.642602,4.63583E+18,0.643109,0.467066,0.492538,-0.354495,0
-9.365634,-1.535577,-1.999458,-0.272578,-0.135655,-0.218573,37.737315,-3.360165,26.2323,4.63583E+18,0.644492,-0.116833,0.753026,0.062708,-9.319132,2.019803,-2.306153,-0.194403,0.264443,0.001434,36.665458,-27.059627,5.745154,4.63582E+18,0.354323,-0.528547,0.585218,0.502607,-9.305355,1.451937,0.401356,-0.256456,-0.23567,0.35825,43.85234,10.712183,3.45023,4.63583E+18,0.644929,0.466349,0.491913,-0.352999,0
-9.353426,-1.518828,-2.011666,-0.254592,-0.139033,-0.215368,37.931806,-3.277263,26.286512,4.63583E+18,0.644907,-0.117874,0.752501,0.062797,-9.387842,1.801464,-2.204657,-0.190741,0.255593,0.004334,36.615582,-27.026493,5.465777,4.63582E+18,0.353269,-0.529358,0.58521,0.502505,-9.1537,1.453422,0.303703,-0.298112,-0.212787,0.34582,44.040615,10.718101,3.251605,4.63583E+18,0.646541,0.46583,0.491145,-0.351801,0
-9.292976,-1.513718,-2.014221,-0.240039,-0.139083,-0.208788,37.897482,-3.259377,26.374498,4.63583E+18,0.645306,-0.119093,0.751944,0.063061,-9.403538,1.721244,-2.181982,-0.177863,0.24952,0.010376,36.778456,-27.00347,5.659684,4.63582E+18,0.352245,-0.530122,0.585231,0.502393,-9.025336,1.615454,0.281512,-0.349675,-0.189191,0.32818,44.161577,10.680366,3.298964,4.63583E+18,0.648178,0.465167,0.49055,-0.350494,0
-9.21009,-1.523366,-2.004573,-0.22531,-0.143924,-0.19709,37.812036,-3.326914,26.025776,4.63583E+18,0.645722,-0.120259,0.751379,0.063335,-9.387493,1.700324,-2.283817,-0.157113,0.239481,0.016815,36.890774,-27.139467,5.946038,4.63582E+18,0.351277,-0.530818,0.585295,0.502261,-8.928792,1.896577,0.342915,-0.42266,-0.16469,0.307271,44.165278,10.51909,3.393658,4.63583E+18,0.649873,0.464295,0.49017,-0.349039,0
-9.12463,-1.477679,-2.002014,-0.220486,-0.139358,-0.190181,37.852018,-3.277283,25.774135,4.63583E+18,0.646122,-0.121392,0.750829,0.063609,-9.374942,1.647655,-2.372764,-0.12751,0.22416,0.025726,36.86567,-27.307961,5.984779,4.63582E+18,0.350393,-0.531416,0.585418,0.502103,-8.91806,2.044924,0.441305,-0.505388,-0.144461,0.284324,44.129765,10.243519,3.299345,4.63583E+18,0.651649,0.463179,0.490007,-0.347437,0
-9.058481,-1.45524,-2.021311,-0.220038,-0.125972,-0.181464,37.867367,-3.133947,25.877933,4.63583E+18,0.646478,-0.122499,0.750318,0.063899,-9.31322,1.677969,-2.392308,-0.096595,0.209969,0.034607,36.78406,-27.249394,5.949874,4.63582E+18,0.349593,-0.531917,0.585603,0.501914,-8.93582,2.044556,0.462778,-0.589318,-0.123551,0.261342,44.136052,9.969772,3.216835,4.63583E+18,0.653504,0.461817,0.490062,-0.345683,0
-9.084274,-1.42374,-2.065017,-0.205689,-0.11524,-0.175228,37.934894,-3.10068,25.993494,4.63583E+18,0.646805,-0.123551,0.749842,0.064155,-9.236822,1.857565,-2.376601,-0.079043,0.203314,0.040253,36.690592,-27.082686,6.068779,4.63582E+18,0.348836,-0.532364,0.585828,0.501704,-8.942106,2.088931,0.420972,-0.675833,-0.102804,0.232344,44.141972,9.895382,3.17246,4.63583E+18,0.655433,0.460189,0.490348,-0.343791,0
-9.152396,-1.425705,-2.113845,-0.184154,-0.110691,-0.173264,37.952816,-3.226087,25.946449,4.63583E+18,0.647127,-0.12454,0.749384,0.064346,-9.262256,2.006197,-2.44284,-0.0838,0.201089,0.041658,36.609323,-27.007638,6.189154,4.63582E+18,0.348071,-0.53281,0.586042,0.501513,-8.891452,2.148868,0.446482,-0.753547,-0.078596,0.201465,44.097968,10.012259,3.125095,4.63583E+18,0.657406,0.458321,0.490861,-0.341781,0
-9.187053,-1.408973,-2.124088,-0.163411,-0.100734,-0.173884,37.952816,-3.326904,25.851351,4.63583E+18,0.647428,-0.125477,0.748957,0.064466,-9.339002,1.964038,-2.543322,-0.091831,0.192178,0.040926,36.590446,-27.063812,6.126425,4.63582E+18,0.347311,-0.533249,0.586224,0.50136,-8.787871,2.16071,0.438372,-0.818027,-0.051438,0.178093,44.062804,9.963879,3.275961,4.63583E+18,0.659405,0.45626,0.491583,-0.339644,0
-9.250048,-1.423142,-2.133734,-0.150714,-0.083078,-0.178328,37.885299,-3.27731,25.753701,4.63583E+18,0.647682,-0.126399,0.748578,0.064525,-9.350535,1.871914,-2.526262,-0.08131,0.181102,0.041716,36.671711,-27.034546,6.006042,4.63582E+18,0.346599,-0.533648,0.586414,0.501206,-8.671362,2.179566,0.396559,-0.87454,-0.024122,0.156118,44.15672,9.731953,3.46207,4.63583E+18,0.661419,0.454025,0.492501,-0.337386,0
-9.381176,-1.447559,-2.145942,-0.139188,-0.073135,-0.177761,37.867367,-3.259377,25.733206,4.63583E+18,0.647909,-0.12729,0.748228,0.064544,-9.338999,1.888302,-2.482284,-0.055645,0.167582,0.04776,36.749135,-27.032714,6.072938,4.63582E+18,0.345965,-0.533967,0.58665,0.501028,-8.574796,2.222471,0.390637,-0.936192,0.005784,0.132102,44.277336,9.581726,3.453248,4.63583E+18,0.663442,0.451608,0.493624,-0.335008,0
-9.479427,-1.510554,-2.109921,-0.126595,-0.07241,-0.173093,37.992758,-3.269022,25.51136,4.63583E+18,0.64814,-0.128133,0.747885,0.064535,-9.350537,1.900174,-2.511212,-0.030069,0.154399,0.052003,36.834584,-27.195584,6.268248,4.63582E+18,0.345411,-0.534211,0.586931,0.500822,-8.532613,2.315293,0.334075,-1.008372,0.034592,0.108053,44.281452,9.546189,3.606973,4.63583E+18,0.665496,0.448973,0.494966,-0.332486,0
-9.507005,-1.583797,-2.070738,-0.115466,-0.065038,-0.164376,38.026062,-3.204068,25.44279,4.63583E+18,0.64835,-0.12892,0.747569,0.064512,-9.301379,1.942301,-2.52627,-0.014559,0.143074,0.051579,36.836439,-27.278704,6.329807,4.63582E+18,0.344919,-0.534409,0.587226,0.500604,-8.47678,2.37416,0.293338,-1.079288,0.062912,0.083487,44.251839,9.583892,3.991302,4.63583E+18,0.66758,0.446114,0.496529,-0.329816,0
-9.528856,-1.628102,-2.063051,-0.102254,-0.0453,-0.150545,38.026062,-3.118624,25.662042,4.63583E+18,0.648503,-0.129635,0.747317,0.064474,-9.232314,2.109688,-2.465564,-0.017235,0.139956,0.045507,36.673562,-27.168176,6.197181,4.63582E+18,0.344442,-0.534619,0.587497,0.500389,-8.42275,2.368236,0.261203,-1.143279,0.09395,0.058371,44.251839,9.619433,4.174932,4.63583E+18,0.669667,0.443058,0.498302,-0.327018,0
-9.533982,-1.645436,-2.101626,-0.092587,-0.022025,-0.135591,38.161073,-3.033174,25.865655,4.63583E+18,0.648629,-0.129745,0.747231,0.063967,-9.196354,2.225267,-2.449839,-0.029966,0.141332,0.039858,36.561172,-27.093066,6.222586,4.63582E+18,0.343945,-0.534864,0.587731,0.500195,-8.410901,2.33682,0.131769,-1.193718,0.127062,0.035485,44.176439,9.537752,4.174932,4.63583E+18,0.671727,0.439852,0.500263,-0.324115,0
-9.582195,-1.638357,-2.150451,-0.080668,-0.021309,-0.124857,38.254821,-3.015229,25.759471,4.63583E+18,0.648713,-0.130308,0.747066,0.063902,-9.241984,2.126633,-2.457539,-0.034546,0.137003,0.03626,36.590419,-27.174333,6.320237,4.63582E+18,0.343455,-0.535115,0.587941,0.500016,-8.385771,2.238093,0.017418,-1.218363,0.157974,0.01629,44.111629,9.379066,4.32571,4.63583E+18,0.673723,0.436565,0.502367,-0.321147,0
-9.575732,-1.568288,-2.151067,-0.073756,-0.030025,-0.121993,38.144843,-2.957368,25.566704,4.63583E+18,0.648824,-0.13086,0.746878,0.063844,-9.322605,2.001687,-2.462371,-0.031228,0.127361,0.030217,36.671693,-27.251755,6.422074,4.63582E+18,0.34301,-0.535356,0.58813,0.499841,-8.330663,2.103819,-0.005926,-1.223579,0.187362,-0.001317,44.167808,9.25807,4.662642,4.63583E+18,0.675627,0.433248,0.504585,-0.318147,0
-9.522391,-1.482842,-2.158146,-0.079384,-0.025295,-0.125144,38.044015,-2.874486,25.525681,4.63583E+18,0.648919,-0.131439,0.746699,0.063792,-9.330308,2.019375,-2.51505,-0.020209,0.117439,0.027069,36.694803,-27.278718,6.490161,4.63582E+18,0.34262,-0.535569,0.58832,0.499657,-8.294752,2.057481,0.012563,-1.23564,0.21782,-0.017308,44.215214,9.21659,4.896593,4.63583E+18,0.677448,0.42989,0.506922,-0.315101,0
-9.499926,-1.426324,-2.102864,-0.096364,-0.007471,-0.130259,38.093548,-2.856532,25.670298,4.63583E+18,0.64895,-0.132084,0.74656,0.063769,-9.318425,2.11638,-2.568376,-0.009501,0.110666,0.028137,36.613213,-27.168214,6.515544,4.63582E+18,0.342268,-0.53575,0.588525,0.499463,-8.30767,2.15063,0.05582,-1.268512,0.250443,-0.037757,44.133562,9.21659,5.044493,4.63583E+18,0.67921,0.426428,0.509415,-0.311978,0
-9.468434,-1.367849,-2.029614,-0.118123,0.006076,-0.13307,38.111511,-2.789039,25.631655,4.63583E+18,0.648927,-0.1328,0.74645,0.063799,-9.326456,2.090031,-2.620415,0.006972,0.100996,0.029205,36.49467,-27.063812,6.546378,4.63582E+18,0.341975,-0.535885,0.588752,0.499251,-8.33801,2.253149,0.072891,-1.322775,0.285171,-0.068887,44.144441,9.21659,5.23352,4.63583E+18,0.680929,0.42278,0.512115,-0.308758,0
-9.441456,-1.355022,-2.014221,-0.138022,0.016981,-0.132675,38.044025,-2.838568,25.466515,4.63583E+18,0.648859,-0.133572,0.746364,0.063886,-9.313928,1.985951,-2.59568,0.023893,0.088937,0.029177,36.448735,-27.205799,6.519716,4.63582E+18,0.34175,-0.53597,0.588997,0.499025,-8.362425,2.188581,0.079878,-1.378041,0.322618,-0.101357,44.271383,9.178908,5.422912,4.63583E+18,0.682598,0.41894,0.515031,-0.305438,0
-9.436323,-1.335742,-2.023861,-0.148811,0.031879,-0.125703,38.083898,-2.92401,25.350904,4.63583E+18,0.648736,-0.134356,0.746319,0.064017,-9.264784,2.03959,-2.56773,0.025608,0.079297,0.02558,36.565347,-27.50809,6.558597,4.63582E+18,0.34156,-0.536043,0.589223,0.49881,-8.393117,1.936407,0.141616,-1.404737,0.364335,-0.126898,44.199843,9.061712,5.668454,4.63583E+18,0.684166,0.415005,0.518128,-0.302047,0
-9.445963,-1.282404,-2.074632,-0.156514,0.031875,-0.119687,38.166789,-3.009468,25.48461,4.63583E+18,0.648607,-0.135141,0.746274,0.064188,-9.195714,2.161982,-2.584112,0.016923,0.071201,0.019171,36.544155,-27.476639,6.427537,4.63582E+18,0.341384,-0.536127,0.589405,0.498625,-8.423457,1.650443,0.283559,-1.402295,0.403729,-0.14713,44.09314,8.940703,5.911172,4.63583E+18,0.685591,0.411065,0.52135,-0.298638,0
-9.438891,-1.221372,-2.135664,-0.172425,0.021698,-0.121938,38.252236,-2.959958,25.747392,4.63583E+18,0.64853,-0.135641,0.746257,0.064119,-9.1806,2.237497,-2.591828,0.002811,0.069037,0.013493,36.458708,-27.307961,6.29902,4.63582E+18,0.341193,-0.53624,0.589542,0.498472,-8.460425,1.519648,0.466312,-1.396069,0.438427,-0.165836,44.181023,8.943138,6.144143,4.63583E+18,0.686697,0.407452,0.524427,-0.295647,0
-9.455599,-1.227809,-2.052121,-0.193111,0.016697,-0.125367,38.27021,-2.874517,25.951023,4.63583E+18,0.648431,-0.136514,0.746162,0.064375,-9.249675,2.147225,-2.571586,0.001827,0.062206,0.007028,36.431707,-27.33719,6.361655,4.63582E+18,0.34103,-0.536357,0.589652,0.498327,-8.553187,1.469782,0.662311,-1.41584,0.467113,-0.183414,44.226386,8.984649,6.425242,4.63583E+18,0.687905,0.403444,0.52787,-0.292186,0
-9.451098,-1.290782,-1.968595,-0.211102,0.040481,-0.130259,38.202736,-2.789059,25.91245,4.63583E+18,0.648248,-0.13745,0.746124,0.064654,-9.281475,2.100998,-2.563555,0.003147,0.052281,-0.002194,36.48375,-27.33908,6.515567,4.63582E+18,0.340914,-0.536473,0.589731,0.498188,-8.687461,1.434542,0.863204,-1.475708,0.487316,-0.206025,44.077834,8.896787,6.76841,4.63583E+18,0.689113,0.39922,0.531463,-0.288608,0
-9.438892,-1.344745,-1.953184,-0.225661,0.073985,-0.132226,38.184757,-2.77108,25.74733,4.63583E+18,0.647953,-0.138443,0.746171,0.064956,-9.240345,2.243302,-2.571913,-0.00509,0.047335,-0.008237,36.446467,-27.205464,6.579791,4.63582E+18,0.340804,-0.536606,0.589771,0.498072,-8.802915,1.402819,1.046315,-1.570096,0.503858,-0.235414,43.977341,8.77609,7.10884,4.63583E+18,0.690373,0.394657,0.535243,-0.284861,0
-9.44596,-1.383932,-2.020642,-0.237016,0.082022,-0.13245,38.126936,-2.905995,25.641334,4.63583E+18,0.647624,-0.139499,0.746229,0.065314,-9.221421,2.264766,-2.600504,-0.009162,0.042275,-0.01175,36.365202,-27.203579,6.546366,4.63582E+18,0.340705,-0.536743,0.589789,0.497972,-8.894293,1.210352,1.23569,-1.664795,0.516584,-0.263673,43.945623,8.778151,7.345324,4.63583E+18,0.691687,0.389755,0.53919,-0.280953,0
-9.506342,-1.42055,-2.221706,-0.240951,0.065386,-0.133293,38.169324,-3.067243,25.700421,4.63583E+18,0.647343,-0.140563,0.74624,0.065691,-9.319406,2.048557,-2.582811,0.005541,0.029034,-0.014309,36.400585,-27.337207,6.54898,4.63582E+18,0.340676,-0.536837,0.589812,0.497862,-8.954643,0.898911,1.430997,-1.727273,0.533334,-0.283787,43.872383,8.851392,7.584893,4.63583E+18,0.692997,0.384629,0.543257,-0.276924,0
-9.579585,-1.476441,-2.347657,-0.265007,0.040651,-0.131832,38.252203,-3.033236,25.720999,4.63583E+18,0.647132,-0.141583,0.746196,0.066075,-9.424766,1.86323,-2.494163,0.030895,0.009414,-0.019958,36.61548,-27.36417,6.74429,4.63582E+18,0.340765,-0.536869,0.589848,0.497726,-8.978716,0.581518,1.638864,-1.737578,0.557932,-0.295477,43.805413,8.843069,8.022181,4.63583E+18,0.694212,0.379449,0.547396,-0.272847,0
-9.546845,-1.566383,-2.233347,-0.300817,0.013329,-0.123795,38.144954,-2.889974,25.711364,4.63583E+18,0.646973,-0.142764,0.746054,0.066694,-9.468768,1.801875,-2.503162,0.067351,-0.01265,-0.01917,36.694809,-27.337197,6.872768,4.63582E+18,0.340987,-0.536801,0.589929,0.497551,-9.07248,0.402165,1.827216,-1.738174,0.578625,-0.30509,43.819663,8.883094,8.495516,4.63583E+18,0.695326,0.374243,0.55158,-0.268745,0
-9.466537,-1.615867,-2.081713,-0.325556,0.03024,-0.107437,37.918815,-2.789088,25.785871,4.63583E+18,0.646741,-0.143966,0.745958,0.067424,-9.448208,1.770718,-2.551347,0.107771,-0.032185,-0.013858,36.533858,-27.393414,6.839355,4.63582E+18,0.341336,-0.536622,0.590078,0.497327,-9.34374,0.372157,1.998448,-1.771611,0.582022,-0.308116,43.785924,8.960234,8.773557,4.63583E+18,0.696434,0.368917,0.555778,-0.264559,0
-9.487061,-1.565789,-2.185701,-0.333429,0.042217,-0.087596,37.867367,-2.838509,25.80645,4.63583E+18,0.646461,-0.145131,0.745903,0.068224,-9.415763,1.785495,-2.555523,0.136638,-0.050399,-0.010653,36.287791,-27.368357,6.804341,4.63582E+18,0.341788,-0.536356,0.590268,0.497078,-9.622141,0.303493,2.22547,-1.820864,0.574575,-0.311498,43.601798,8.834776,9.06958,4.63583E+18,0.697583,0.363406,0.55998,-0.260262,0
-9.603312,-1.40586,-2.135059,-0.312417,-0.007617,-0.08163,37.934789,-3.049173,25.893138,4.63583E+18,0.646345,-0.146206,0.745721,0.069005,-9.378825,1.746294,-2.601131,0.167612,-0.071733,-0.008545,36.285848,-27.320169,6.864736,4.63582E+18,0.342358,-0.535996,0.590497,0.496803,-9.729637,0.049711,2.443839,-1.886342,0.56652,-0.319465,43.50125,8.716086,9.510033,4.63583E+18,0.698793,0.357649,0.564206,-0.255826,0
-9.583481,-1.155325,-1.977032,-0.315829,-0.034005,-0.095507,37.952816,-3.168105,25.839262,4.63583E+18,0.646312,-0.147326,0.745458,0.069775,-9.271862,1.911391,-2.665071,0.187263,-0.082557,-0.007815,36.448721,-27.290943,6.839367,4.63582E+18,0.342996,-0.535584,0.590752,0.496504,-9.71015,-0.510568,2.614733,-1.922637,0.561297,-0.322032,43.513458,8.753715,9.935922,4.63583E+18,0.700015,0.351748,0.56842,-0.251301,0
-9.435756,-1.02161,-1.940977,-0.342749,0.010655,-0.111137,38.078032,-3.186132,25.674178,4.63583E+18,0.646127,-0.148579,0.745296,0.070559,-9.130821,2.173867,-2.66988,0.177456,-0.079773,-0.008966,36.586221,-27.230542,6.741712,4.63582E+18,0.343607,-0.535194,0.590987,0.496222,-9.711828,-1.261826,2.867165,-1.871113,0.565716,-0.314379,43.368878,8.663902,10.370795,4.63583E+18,0.701107,0.34599,0.572543,-0.246848,0
-9.361172,-1.049167,-1.960241,-0.361926,0.083338,-0.120191,38.111511,-3.118708,25.625914,4.63583E+18,0.645706,-0.149933,0.745316,0.071333,-9.123418,2.200252,-2.672481,0.157273,-0.081179,-0.017173,36.609376,-27.226683,6.67745,4.63582E+18,0.344194,-0.534849,0.59116,0.49598,-9.835568,-1.805101,3.184203,-1.764619,0.571488,-0.298299,43.151166,8.426039,10.708564,4.63583E+18,0.701926,0.34074,0.57641,-0.24279,0
-9.447191,-1.1391,-2.00392,-0.359407,0.094281,-0.123454,37.918874,-3.168105,25.777452,4.63583E+18,0.645251,-0.151294,0.745362,0.072084,-9.159726,2.128575,-2.587656,0.142967,-0.079353,-0.026786,36.531957,-27.259758,6.744228,4.63582E+18,0.344763,-0.534553,0.591285,0.495756,-10.068828,-1.940312,3.48937,-1.676668,0.56759,-0.28453,43.117546,8.432371,10.947761,4.63583E+18,0.702743,0.335415,0.580324,-0.238481,0
-9.569254,-1.256012,-2.043114,-0.355301,0.040681,-0.124748,37.867367,-3.243918,25.674196,4.63583E+18,0.644965,-0.152631,0.745263,0.072851,-9.159414,2.144018,-2.588594,0.126297,-0.076204,-0.033843,36.475719,-27.307961,6.872768,4.63582E+18,0.345303,-0.534303,0.591364,0.495555,-10.374679,-1.922832,3.813365,-1.6323,0.549747,-0.274369,43.159441,8.582802,11.278691,4.63583E+18,0.703438,0.330378,0.583995,-0.234469,0
-9.61428,-1.32993,-2.012322,-0.357153,0.005637,-0.1334,37.934779,-3.394204,25.414044,4.63583E+18,0.644787,-0.153989,0.745062,0.073623,-9.151689,2.157775,-2.632627,0.115279,-0.075446,-0.037074,36.475719,-27.282928,6.901973,4.63582E+18,0.345822,-0.534079,0.591413,0.495375,-10.666627,-1.960112,4.180204,-1.602309,0.516436,-0.262591,43.134035,8.499326,11.663343,4.63583E+18,0.704145,0.325404,0.587494,-0.230527,0
-9.619433,-1.342814,-1.91535,-0.356144,0.025277,-0.144923,37.827635,-3.362875,25.585883,4.63583E+18,0.644551,-0.155385,0.744904,0.074349,-9.184449,2.250334,-2.607903,0.102015,-0.073364,-0.04278,36.500753,-27.205511,6.95822,4.63582E+18,0.346318,-0.533892,0.591426,0.495215,-10.854023,-2.046217,4.62723,-1.549455,0.469816,-0.250871,43.154482,8.267398,11.947406,4.63583E+18,0.704871,0.320549,0.590763,-0.226727,0
-9.619433,-1.304298,-1.901777,-0.359906,0.045525,-0.154987,37.794121,-3.277425,25.792191,4.63583E+18,0.644251,-0.156829,0.744791,0.075045,-9.195734,2.250027,-2.538222,0.082087,-0.071851,-0.048093,36.607361,-27.149265,6.862283,4.63582E+18,0.346777,-0.53375,0.591387,0.495093,-11.007446,-2.199969,5.165374,-1.476788,0.413634,-0.233059,43.208268,8.192157,12.280972,4.63583E+18,0.705621,0.315882,0.593749,-0.223116,0
-9.667579,-1.23621,-1.971759,-0.37283,0.005322,-0.158703,37.919298,-3.201602,25.821237,4.63583E+18,0.644067,-0.158306,0.744561,0.075798,-9.163892,2.221446,-2.453386,0.061768,-0.064766,-0.052392,36.69068,-27.120077,6.644092,4.63582E+18,0.347183,-0.533662,0.591308,0.494999,-11.159208,-2.526899,5.601196,-1.3647,0.362596,-0.204105,43.101387,8.221522,12.763298,4.63583E+18,0.706348,0.311551,0.596421,-0.219751,0
-9.72861,-1.105205,-1.893527,-0.391152,-0.071277,-0.163366,37.885422,-3.2439,25.751262,4.63583E+18,0.644108,-0.159823,0.744115,0.076645,-9.225845,2.168138,-2.41259,0.044444,-0.061953,-0.059896,36.605223,-27.005423,6.608985,4.63582E+18,0.347558,-0.533623,0.591179,0.494931,-11.181002,-2.972279,5.762221,-1.17785,0.31055,-0.167704,42.950605,8.134111,12.957015,4.63583E+18,0.706971,0.307803,0.598704,-0.216804,0
-9.625976,-0.977975,-1.646297,-0.417118,-0.092868,-0.170392,37.867367,-3.32677,25.733206,4.63583E+18,0.644199,-0.161423,0.743595,0.077568,-9.310079,2.09103,-2.384614,0.036967,-0.062682,-0.066955,36.548965,-26.951292,6.669412,4.63582E+18,0.347933,-0.533611,0.591019,0.494872,-11.182962,-3.129729,5.849306,-0.953511,0.240892,-0.128183,42.87142,8.056886,12.915433,4.63583E+18,0.707496,0.304749,0.600512,-0.21439,0
-9.431349,-0.865529,-1.519569,-0.445732,-0.054403,-0.173657,38.059917,-3.277435,25.733206,4.63583E+18,0.64415,-0.163122,0.743164,0.078544,-9.289535,2.004988,-2.384314,0.032409,-0.065913,-0.07128,36.607327,-27.092994,6.6441,4.63582E+18,0.348309,-0.533614,0.590837,0.494821,-11.231136,-3.026135,6.002052,-0.719373,0.171147,-0.083181,42.798181,8.056886,13.015693,4.63583E+18,0.707927,0.302433,0.601839,-0.212518,0
-9.300854,-0.842311,-1.713293,-0.480465,-0.021052,-0.170739,38.111511,-3.326762,25.810218,4.63583E+18,0.644047,-0.164201,0.742968,0.078994,-9.240409,1.949908,-2.364068,0.033842,-0.070159,-0.079095,36.7157,-27.061732,6.579791,4.63582E+18,0.348711,-0.533628,0.590638,0.494761,-11.230487,-2.909685,6.079287,-0.465952,0.110294,-0.032433,42.724941,8.013027,13.204735,4.63583E+18,0.708231,0.300933,0.602695,-0.211203,0
-9.287252,-0.919311,-1.943324,-0.521831,-0.04022,-0.154676,37.986387,-3.469954,25.907865,4.63583E+18,0.643891,-0.166049,0.742558,0.080247,-9.183837,2.05174,-2.414391,0.031236,-0.072295,-0.084775,36.67848,-26.838716,6.608972,4.63582E+18,0.349119,-0.53366,0.59042,0.494699,-11.249928,-2.68144,6.098081,-0.217485,0.054867,0.019932,42.689289,7.889991,13.300127,4.63583E+18,0.708408,0.300244,0.603104,-0.210421,0
-9.309084,-1.026592,-1.999431,-0.556134,-0.09416,-0.128713,38.02019,-3.503525,25.784153,4.63583E+18,0.643867,-0.16789,0.742005,0.081712,-9.155257,2.140759,-2.547771,0.021676,-0.071879,-0.090506,36.626379,-26.788394,6.665242,4.63582E+18,0.349513,-0.533723,0.590172,0.494648,-11.248324,-2.458036,6.047012,0.008191,0.004698,0.079361,42.689289,7.856582,13.306069,4.63583E+18,0.708479,0.300327,0.603093,-0.210095,0
-9.227616,-1.126843,-1.934633,-0.577232,-0.121976,-0.099254,38.038269,-3.503525,25.668407,4.63583E+18,0.643899,-0.169686,0.741387,0.083341,-9.106131,2.16875,-2.558795,0.011959,-0.066903,-0.099415,36.663592,-26.980433,6.736094,4.63582E+18,0.349888,-0.533836,0.589894,0.494594,-11.187291,-2.380126,5.781223,0.22334,-0.042242,0.141226,42.689289,7.935766,13.255968,4.63583E+18,0.708451,0.301164,0.602676,-0.210189,0
-9.050382,-1.234121,-1.839562,-0.589494,-0.099091,-0.074401,37.90352,-3.638275,25.580379,4.63583E+18,0.64384,-0.171445,0.740838,0.085057,-9.049559,2.144041,-2.494183,-0.016409,-0.059349,-0.11231,36.744872,-27.120094,6.83943,4.63582E+18,0.350204,-0.53404,0.589541,0.494571,-11.082415,-2.286822,5.296646,0.452341,-0.08546,0.203262,42.726866,7.933858,13.158309,4.63583E+18,0.708296,0.302796,0.60185,-0.210732,0
-9.009064,-1.343974,-1.886268,-0.600174,-0.066599,-0.059325,38.002095,-3.799535,25.494937,4.63583E+18,0.643664,-0.173197,0.740379,0.086823,-9.050144,2.116047,-2.46977,-0.060461,-0.046557,-0.131171,36.818112,-26.947156,6.641787,4.63582E+18,0.350427,-0.534383,0.589076,0.494597,-10.948459,-2.096826,4.679101,0.705151,-0.115061,0.270607,42.843939,7.823047,13.010561,4.63583E+18,0.707952,0.305315,0.600626,-0.211745,0
-9.114919,-1.463462,-1.942848,-0.607488,-0.078341,-0.048192,38.16337,-3.900487,25.476851,4.63583E+18,0.64351,-0.174928,0.739889,0.088649,-9.111472,2.161585,-2.453688,-0.092768,-0.037699,-0.145319,36.86636,-26.722006,6.451133,4.63582E+18,0.350582,-0.534828,0.588527,0.494659,-10.901526,-1.971023,4.07629,0.944945,-0.137601,0.337293,42.958796,7.751701,12.865344,4.63583E+18,0.707408,0.308685,0.599032,-0.213187,0
-9.249188,-1.537414,-1.876208,-0.61558,-0.09847,-0.043405,38.071878,-3.918576,25.553828,4.63583E+18,0.643407,-0.176658,0.73934,0.090527,-9.146931,2.175634,-2.495346,-0.11369,-0.034181,-0.15027,36.895519,-26.751166,6.675604,4.63582E+18,0.350692,-0.535322,0.587928,0.494758,-10.86959,-1.959446,3.389211,1.144165,-0.173619,0.382207,42.994473,7.789268,12.817774,4.63583E+18,0.706724,0.312715,0.597085,-0.215036,0
-9.364212,-1.55034,-1.807422,-0.627491,-0.1017,-0.043568,38.163336,-3.985921,25.497545,4.63583E+18,0.643301,-0.178418,0.738773,0.092443,-9.115053,1.996414,-2.567432,-0.121379,-0.036367,-0.151677,36.976799,-26.74915,6.73145,4.63582E+18,0.350793,-0.535827,0.587307,0.494878,-10.746581,-1.971652,2.65275,1.312647,-0.210261,0.412196,42.950651,7.862508,12.717607,4.63583E+18,0.705919,0.317276,0.594822,-0.217258,0
-9.4356,-1.55034,-1.813731,-0.632733,-0.093055,-0.043794,38.379772,-4.071378,25.332528,4.63583E+18,0.643206,-0.179832,0.73831,0.094051,-9.172781,1.921869,-2.551347,-0.118564,-0.042776,-0.150219,36.970919,-26.611568,6.477967,4.63582E+18,0.350913,-0.53631,0.586685,0.495007,-10.600414,-2.134092,2.031148,1.483869,-0.23417,0.437091,42.94658,7.90445,12.528559,4.63583E+18,0.704943,0.322371,0.59228,-0.219856,0
-9.496633,-1.454134,-1.905489,-0.633412,-0.082375,-0.053054,38.371181,-4.214548,25.370705,4.63583E+18,0.643037,-0.181595,0.737787,0.095903,-9.253212,2.034755,-2.597139,-0.122207,-0.049913,-0.146312,36.783102,-26.563309,6.503227,4.63582E+18,0.351034,-0.536774,0.586054,0.495166,-10.334678,-2.426758,1.451452,1.681284,-0.250658,0.448704,43.019825,7.947956,12.339189,4.63583E+18,0.703722,0.328045,0.589464,-0.222921,0
-9.538425,-1.351313,-1.976866,-0.634253,-0.064119,-0.066485,38.230611,-4.373226,25.401018,4.63583E+18,0.642806,-0.183455,0.737285,0.097748,-9.236564,2.034196,-2.677305,-0.128518,-0.056272,-0.143107,36.734582,-26.534176,6.438564,4.63582E+18,0.351149,-0.537226,0.585407,0.495359,-9.994137,-2.457152,0.909034,1.91634,-0.24647,0.461137,43.130619,8.027455,12.143882,4.63583E+18,0.70214,0.334426,0.58639,-0.22651,0
-9.594284,-1.272894,-2.018663,-0.635321,-0.042983,-0.082054,38.196964,-4.541537,25.336275,4.63583E+18,0.642512,-0.185373,0.736823,0.099538,-9.216868,1.985366,-2.669538,-0.125653,-0.062414,-0.139903,37.064181,-26.502829,6.16002,4.63582E+18,0.351278,-0.537653,0.584764,0.495564,-9.776275,-2.061891,0.452677,2.147985,-0.221276,0.477651,43.23955,7.987736,11.898509,4.63583E+18,0.700138,0.341523,0.583104,-0.230563,0
-9.645702,-1.295838,-2.151474,-0.648173,-0.040137,-0.095552,38.139253,-4.702821,25.250822,4.63583E+18,0.6422,-0.187367,0.736346,0.101327,-9.25765,1.96983,-2.677306,-0.116283,-0.0763,-0.137427,37.25228,-26.580232,6.199414,4.63582E+18,0.351458,-0.538031,0.584125,0.49578,-9.736177,-1.331687,0.225064,2.276379,-0.195721,0.487677,43.268988,7.916656,11.61179,4.63583E+18,0.697841,0.349012,0.579705,-0.234842,0
-9.656056,-1.392762,-2.233219,-0.659987,-0.051531,-0.097428,38.181433,-4.861517,25.242321,4.63583E+18,0.64191,-0.189391,0.735827,0.103157,-9.298155,2.035298,-2.62793,-0.105795,-0.087272,-0.137815,37.166834,-26.582469,6.384472,4.63582E+18,0.351687,-0.538371,0.583491,0.495995,-9.678318,-0.640533,0.051396,2.309497,-0.168364,0.491375,43.256781,7.997695,11.324779,4.63583E+18,0.695369,0.356605,0.576291,-0.239132,0
-9.607962,-1.598817,-2.226925,-0.658885,-0.045217,-0.095518,38.322008,-4.962501,25.167959,4.63583E+18,0.641595,-0.191408,0.735321,0.104982,-9.297607,2.103834,-2.513629,-0.114024,-0.092249,-0.142476,37.135467,-26.419611,6.251338,4.63582E+18,0.35192,-0.538725,0.582821,0.496233,-9.463626,-0.334326,-0.229358,2.315744,-0.134679,0.492964,43.244573,8.23177,11.081873,4.63583E+18,0.692741,0.364225,0.572907,-0.243368,0
-9.614252,-1.763398,-2.202514,-0.64115,-0.023373,-0.092541,38.490293,-5.047936,25.147251,4.63583E+18,0.641254,-0.193155,0.734937,0.106548,-9.294539,2.045322,-2.425386,-0.121041,-0.099433,-0.150316,37.21287,-26.361033,6.027115,4.63582E+18,0.352171,-0.539092,0.582108,0.496493,-9.276096,-0.211946,-0.42879,2.316839,-0.09943,0.489652,43.351243,8.474081,10.8365,4.63583E+18,0.689957,0.371847,0.56957,-0.247547,0
-9.677136,-1.832957,-2.149247,-0.611371,-0.021524,-0.096068,38.401544,-5.123775,25.224187,4.63583E+18,0.640902,-0.195016,0.734515,0.108172,-9.342553,1.904085,-2.420686,-0.118905,-0.109339,-0.157405,37.244249,-26.469809,6.124766,4.63582E+18,0.352465,-0.539453,0.581369,0.496759,-9.129005,-0.052648,-0.525832,2.297627,-0.068015,0.46849,43.502148,8.513597,10.643637,4.63583E+18,0.687041,0.379362,0.566321,-0.251672,0
-9.750382,-1.881787,-2.203617,-0.586058,-0.030846,-0.099726,38.175523,-5.27396,25.177588,4.63583E+18,0.640592,-0.196854,0.734061,0.109749,-9.330615,1.917371,-2.392921,-0.125502,-0.112883,-0.163497,37.220912,-26.361406,6.155882,4.63582E+18,0.352764,-0.53983,0.580597,0.49704,-9.101984,0.311856,-0.517753,2.238951,-0.042981,0.436501,43.50002,8.434406,10.502196,4.63583E+18,0.684067,0.386623,0.563206,-0.255684,0
-9.74669,-1.892148,-2.221747,-0.562561,-0.03143,-0.106296,38.123722,-5.377534,25.169074,4.63583E+18,0.640302,-0.198648,0.733607,0.111237,-9.380248,1.923271,-2.412907,-0.141359,-0.121933,-0.172383,37.348215,-26.077832,6.024958,4.63582E+18,0.353068,-0.540232,0.579758,0.497365,-9.249382,1.030387,-0.469833,2.150003,-0.032592,0.413161,43.414569,8.354906,10.269043,4.63583E+18,0.681129,0.393554,0.560205,-0.259516,0
-9.76074,-1.911379,-2.14482,-0.547476,-0.017514,-0.115455,38.441047,-5.453368,25.238978,4.63583E+18,0.639999,-0.200326,0.733215,0.112545,-9.444107,1.782016,-2.363283,-0.138426,-0.139633,-0.179495,37.501144,-25.965147,5.862916,4.63582E+18,0.353436,-0.54061,0.578882,0.497713,-9.351172,1.833908,-0.420099,2.018408,-0.054456,0.392788,43.44796,8.319496,9.982035,4.63583E+18,0.678384,0.400013,0.557273,-0.263118,0
-9.775538,-1.916562,-2.037545,-0.533817,-0.012203,-0.120862,38.584259,-5.468917,25.18019,4.63583E+18,0.63968,-0.202057,0.732816,0.113856,-9.465956,1.803599,-2.303572,-0.13502,-0.149633,-0.185177,37.447096,-25.965147,5.765256,4.63582E+18,0.353847,-0.540976,0.577986,0.498066,-9.275524,2.48531,-0.234591,1.804048,-0.109245,0.366007,43.638218,8.325449,9.739105,4.63583E+18,0.676051,0.40572,0.554427,-0.266377,0
-9.806971,-1.916562,-2.023835,-0.519093,-0.021844,-0.120928,38.474832,-5.536212,24.947959,4.63583E+18,0.639399,-0.203748,0.732393,0.115133,-9.591389,1.879676,-2.377078,-0.1417,-0.162814,-0.190904,37.317504,-25.969304,5.667601,4.63582E+18,0.354286,-0.541337,0.577042,0.498456,-9.154651,2.852381,0.158749,1.519447,-0.187482,0.338288,43.788857,8.369226,9.493756,4.63583E+18,0.674314,0.410459,0.551693,-0.269181,0
-9.747462,-1.906949,-2.209076,-0.521803,-0.017838,-0.11986,38.441113,-5.621659,24.813991,4.63583E+18,0.639095,-0.205477,0.731968,0.116446,-9.552686,1.876303,-2.47057,-0.141359,-0.176335,-0.198357,37.323225,-26.002287,5.574109,4.63582E+18,0.354773,-0.541687,0.576061,0.498864,-9.212727,2.75469,0.634209,1.245111,-0.273397,0.308824,43.855844,8.454673,9.107,4.63583E+18,0.673185,0.414257,0.54905,-0.271583,0
-9.681236,-1.85629,-2.469855,-0.537692,-0.021069,-0.11038,38.383436,-5.697498,24.947043,4.63583E+18,0.638779,-0.207217,0.731531,0.117835,-9.341529,1.958113,-2.531088,-0.148608,-0.187698,-0.205516,37.456984,-26.050598,5.517746,4.63582E+18,0.355285,-0.54204,0.575032,0.499303,-9.283286,2.319149,0.779499,1.024108,-0.344669,0.272433,43.885616,8.496353,8.874783,4.63583E+18,0.672542,0.417263,0.546505,-0.2737,0
-9.581746,-1.756801,-2.469255,-0.573514,-0.04346,-0.095266,38.36787,-5.713065,25.065459,4.63583E+18,0.638509,-0.208879,0.731058,0.119291,-9.220486,2.030325,-2.57654,-0.166381,-0.196971,-0.215834,37.567373,-26.079687,5.484502,4.63582E+18,0.3558,-0.542423,0.573927,0.49979,-9.190408,1.712999,0.71428,0.829221,-0.411592,0.223615,43.929371,8.415091,8.874783,4.63583E+18,0.672326,0.419521,0.544074,-0.275613,0
-9.404589,-1.714225,-2.23259,-0.595599,-0.056705,-0.073356,38.492838,-5.914938,24.797824,4.63583E+18,0.638231,-0.21061,0.73053,0.120958,-9.229309,1.951903,-2.619924,-0.172973,-0.209833,-0.225083,37.73021,-26.106969,5.420087,4.63582E+18,0.35635,-0.542811,0.572768,0.500307,-9.050178,1.073178,0.876491,0.670353,-0.486383,0.176877,43.927316,8.256404,8.831031,4.63583E+18,0.6725,0.421131,0.541696,-0.277415,0
-9.209271,-1.670584,-2.153692,-0.606801,-0.046972,-0.049856,38.459274,-6.094389,24.575797,4.63583E+18,0.637893,-0.212334,0.730029,0.122738,-9.281781,1.83111,-2.5137,-0.168812,-0.223651,-0.232901,37.809713,-25.963352,5.38685,4.63582E+18,0.356957,-0.543182,0.571578,0.500833,-8.884657,0.575041,1.319147,0.572754,-0.558936,0.139468,43.83562,8.2977,8.589347,4.63583E+18,0.672958,0.422294,0.539286,-0.279225,0
-9.119706,-1.621764,-2.148503,-0.607162,-0.034544,-0.028044,38.316175,-6.060842,24.681041,4.63583E+18,0.637502,-0.213997,0.729576,0.124565,-9.302296,1.806186,-2.425374,-0.174857,-0.235126,-0.240764,37.745293,-25.711161,5.22273,4.63582E+18,0.357594,-0.543555,0.570339,0.501386,-8.639344,0.065956,1.649166,0.553658,-0.612508,0.108124,43.781707,8.454647,8.20496,4.63583E+18,0.673523,0.423274,0.536792,-0.281177,0
-9.11634,-1.659462,-2.100418,-0.615964,-0.010166,-0.020133,38.474757,-6.177302,24.729608,4.63583E+18,0.637039,-0.215565,0.729216,0.126326,-9.355528,1.716335,-2.399949,-0.170749,-0.251808,-0.249627,37.828355,-25.521023,4.900703,4.63582E+18,0.358297,-0.543906,0.569062,0.501953,-8.440114,-0.269433,1.678083,0.593406,-0.642757,0.078637,43.81324,8.415119,7.826554,4.63583E+18,0.674043,0.42426,0.53421,-0.283352,0
-9.176643,-1.816697,-2.13556,-0.631082,0.000777,-0.021752,38.65161,-6.405945,24.587916,4.63583E+18,0.636512,-0.217263,0.728847,0.128188,-9.407755,1.664864,-2.269569,-0.153769,-0.261014,-0.253514,38.018512,-25.489562,4.617796,4.63582E+18,0.359068,-0.544221,0.567797,0.502494,-8.442718,-0.323929,1.703943,0.625043,-0.65972,0.036258,43.880232,8.462616,7.491882,4.63583E+18,0.674486,0.425219,0.531608,-0.285745,0
-9.230645,-1.903614,-2.167738,-0.62354,-0.007121,-0.022431,38.435203,-6.457716,24.62603,4.63583E+18,0.636007,-0.218963,0.728448,0.130053,-9.412158,1.675565,-2.16046,-0.148451,-0.268919,-0.258943,38.045823,-25.512972,4.586582,4.63582E+18,0.35988,-0.544523,0.566518,0.50303,-8.421377,-0.960359,1.333291,0.731843,-0.642495,-0.013399,43.947517,8.700517,7.248889,4.63583E+18,0.674633,0.426383,0.529006,-0.28848,0
-9.154458,-2.031957,-2.172918,-0.597876,-0.008772,-0.018224,38.108231,-6.457716,24.646748,4.63583E+18,0.635525,-0.220579,0.728058,0.131851,-9.423869,1.57866,-2.123842,-0.14561,-0.282782,-0.272464,38.018498,-25.48955,4.651021,4.63582E+18,0.360758,-0.544821,0.565191,0.50357,-8.293639,-1.825219,0.458932,0.989643,-0.564837,-0.049958,44.020757,8.732531,7.053582,4.63583E+18,0.674096,0.428275,0.526368,-0.291739,0
-9.006131,-2.188058,-2.230613,-0.560622,-0.008545,-0.004469,38.105581,-6.650034,24.589052,4.63583E+18,0.635065,-0.222054,0.727697,0.133573,-9.387248,1.63726,-2.116276,-0.148921,-0.291626,-0.283828,38.157904,-25.508833,4.58876,4.63582E+18,0.361672,-0.545132,0.563816,0.504119,-7.840219,-2.112452,-0.293587,1.36423,-0.477755,-0.070151,44.093999,8.661296,6.764577,4.63583E+18,0.672658,0.431267,0.523542,-0.295709,0
-8.866666,-2.298675,-2.342321,-0.529515,-0.008545,0.018284,38.373734,-6.894183,24.496576,4.63583E+18,0.634617,-0.223377,0.727371,0.135259,-9.358928,1.790582,-2.177558,-0.163897,-0.294467,-0.2931,38.348093,-25.423381,4.434704,4.63582E+18,0.362578,-0.545479,0.562383,0.504694,-7.870995,-1.236795,0.369479,1.6581,-0.447057,-0.122247,44.11727,8.829666,6.329929,4.63583E+18,0.670532,0.434993,0.520505,-0.300405,0
-8.79008,-2.377102,-2.272077,-0.500675,-0.027897,0.049582,38.450728,-7.071019,24.562387,4.63583E+18,0.634265,-0.224357,0.727085,0.136819,-9.371617,1.790099,-2.192463,-0.173361,-0.299144,-0.303417,38.346401,-25.313044,4.332907,4.63582E+18,0.363493,-0.545852,0.560898,0.505284,-8.052055,0.058775,0.170312,1.906175,-0.313635,-0.140448,44.099101,9.022123,5.997807,4.63583E+18,0.667605,0.439517,0.51753,-0.305435,0
-8.796354,-2.315724,-2.082692,-0.465945,-0.051623,0.081012,38.261001,-7.239331,24.518398,4.63583E+18,0.633967,-0.225295,0.726733,0.138518,-9.428509,1.724664,-2.070379,-0.165841,-0.30549,-0.312668,38.204535,-25.150185,4.193981,4.63582E+18,0.364458,-0.546221,0.559395,0.505856,-6.837659,-0.685494,-2.783679,2.278364,-0.075501,-0.138808,44.049425,9.057893,5.858423,4.63583E+18,0.663439,0.445347,0.514702,-0.3108,0
-8.811153,-2.073852,-1.990563,-0.438044,-0.040627,0.103573,38.401467,-7.275612,24.42334,4.63583E+18,0.633647,-0.226097,0.726445,0.14018,-9.473185,1.639461,-1.97321,-0.154092,-0.308758,-0.321939,38.202075,-24.979295,3.969634,4.63582E+18,0.365475,-0.546585,0.55789,0.506391,-7.395558,-0.233221,-3.128355,2.429942,-0.019793,-0.141121,43.920258,9.21402,5.667087,4.63583E+18,0.65873,0.451745,0.511676,-0.316525,0
-8.842585,-1.908475,-1.977599,-0.4183,0.002376,0.116295,38.703267,-7.333292,24.479505,4.63583E+18,0.633223,-0.226738,0.72632,0.141693,-9.509802,1.64479,-1.98245,-0.145973,-0.317644,-0.334796,38.360745,-24.812566,3.751117,4.63582E+18,0.366558,-0.546945,0.556356,0.506907,-9.512265,3.805045,-0.684687,2.259606,-0.111028,-0.088391,43.905472,9.52543,5.4238,4.63583E+18,0.654543,0.457624,0.508473,-0.321883,0
-8.898438,-1.870326,-1.987214,-0.405188,0.033849,0.116041,38.520745,-7.483455,24.509873,4.63583E+18,0.632699,-0.227449,0.726258,0.14321,-9.49251,1.729304,-2.104524,-0.14672,-0.325847,-0.351523,38.465527,-24.678753,3.715667,4.63582E+18,0.367692,-0.547325,0.554768,0.507416,-9.632376,7.330614,0.130364,1.937265,-0.108469,-0.055022,44.052234,9.686714,5.172581,4.63583E+18,0.65121,0.462274,0.505957,-0.325938,0
-8.997924,-1.858119,-1.99942,-0.377457,0.042886,0.108631,38.328348,-7.644733,24.522079,4.63583E+18,0.63218,-0.228093,0.726233,0.144597,-9.411908,1.70051,-2.185125,-0.145549,-0.337274,-0.367545,38.519436,-24.593304,3.772088,4.63582E+18,0.368887,-0.547714,0.553126,0.507921,-8.912359,6.950908,-1.06045,1.603997,-0.042215,-0.030416,44.079821,9.648978,4.835921,4.63583E+18,0.648205,0.466412,0.50375,-0.329434,0
-9.117401,-1.855525,-2.011627,-0.337002,0.051364,0.104291,38.352303,-7.745747,24.447769,4.63583E+18,0.631675,-0.228652,0.726247,0.145843,-9.424345,1.622895,-2.176834,-0.128722,-0.353678,-0.384654,38.707142,-24.561755,3.643568,4.63582E+18,0.370192,-0.54808,0.551453,0.508396,-8.672945,4.180267,-2.762725,1.428164,-0.021387,0.008338,44.032104,9.607226,4.557389,4.63583E+18,0.645524,0.47017,0.501741,-0.332408,0
-9.220239,-1.865137,-2.052669,-0.297644,0.066864,0.105292,38.310198,-7.696626,24.35012,4.63583E+18,0.631153,-0.229139,0.726318,0.146982,-9.452676,1.546194,-2.148273,-0.098391,-0.37363,-0.403518,38.926415,-24.581104,3.298305,4.63582E+18,0.371651,-0.548397,0.549767,0.508815,-8.236826,2.813391,-3.336095,1.229749,0.015256,0.002768,44.032104,9.688374,4.46791,4.63583E+18,0.643128,0.47342,0.500101,-0.334901,0
-9.337108,-1.877343,-2.159155,-0.2634,0.046952,0.110792,38.16969,-7.745729,24.406237,4.63583E+18,0.630719,-0.229507,0.726362,0.14805,-9.460737,1.587876,-2.128234,-0.063909,-0.393904,-0.423852,39.010259,-24.470784,3.112888,4.63582E+18,0.373276,-0.548661,0.548073,0.509168,-7.656131,2.701863,-3.197786,0.922001,0.109713,-0.046609,44.025863,9.809618,4.461668,4.63583E+18,0.641062,0.475865,0.499229,-0.336692,0
-9.564913,-1.87994,-2.165903,-0.235331,-0.001459,0.123088,38.193595,-7.888854,24.436626,4.63583E+18,0.630451,-0.229734,0.726306,0.149111,-9.481459,1.688766,-2.165306,-0.037972,-0.412786,-0.449868,38.974545,-24.249935,3.141898,4.63582E+18,0.375056,-0.548901,0.546343,0.509461,-7.776483,2.730971,-3.386132,0.598676,0.202153,-0.100414,43.982448,9.888823,4.505633,4.63583E+18,0.639363,0.477459,0.49916,-0.337769,0
-9.763589,-1.899161,-2.112658,-0.215356,-0.066636,0.134451,38.218781,-8.047539,24.516104,4.63583E+18,0.63039,-0.229834,0.726101,0.150204,-9.521774,1.68854,-2.167871,-0.011513,-0.434169,-0.481609,39.097749,-23.970293,3.13203,4.63582E+18,0.37701,-0.549123,0.544559,0.509689,-8.443808,2.994101,-3.80116,0.269256,0.282998,-0.143017,43.946651,9.962063,4.653212,4.63583E+18,0.638088,0.478197,0.499853,-0.33811,0
-9.937086,-1.894745,-1.984353,-0.184585,-0.126587,0.137564,38.086839,-8.148571,24.469611,4.63583E+18,0.630539,-0.229806,0.725761,0.151268,-9.521774,1.751147,-1.988462,0.024763,-0.454766,-0.51863,39.288016,-23.890336,2.907713,4.63582E+18,0.37917,-0.549324,0.54273,0.509821,-9.156982,2.912638,-3.947862,0.049407,0.385282,-0.156376,43.946651,10.041548,4.74868,4.63583E+18,0.637017,0.478466,0.501151,-0.337826,0
-10.156018,-1.892148,-1.722571,-0.146204,-0.174172,0.127702,38.175391,-8.1091,24.220815,4.63583E+18,0.630873,-0.229676,0.725309,0.152237,-9.600489,1.941641,-1.864032,0.050643,-0.472257,-0.557119,39.34446,-23.909718,2.589679,4.63582E+18,0.381507,-0.549529,0.540837,0.509869,-9.816067,2.51677,-3.769288,-0.040232,0.477202,-0.149492,43.902945,10.03961,4.648781,4.63583E+18,0.635934,0.478647,0.502798,-0.337163,0
-10.378364,-1.748001,-1.496841,-0.11677,-0.214833,0.104793,38.3341,-8.093509,24.004695,4.63583E+18,0.631371,-0.229512,0.724746,0.153094,-9.865573,1.985221,-1.954069,0.067791,-0.4965,-0.603108,39.452175,-23.712409,2.265328,4.63582E+18,0.384032,-0.549753,0.53883,0.509856,-10.388253,2.218891,-3.050346,-0.122969,0.532413,-0.159429,43.829967,9.997864,4.703278,4.63583E+18,0.634815,0.478765,0.504628,-0.336371,0
-10.559647,-1.439987,-1.404637,-0.119495,-0.240058,0.070751,38.36787,-8.218424,24.049613,4.63583E+18,0.631965,-0.229442,0.724081,0.153894,-10.16202,1.961909,-2.046701,0.099989,-0.527896,-0.65617,39.769555,-23.268378,2.136296,4.63582E+18,0.38681,-0.549973,0.536714,0.509751,-10.682621,1.7811,-1.678547,-0.243001,0.541301,-0.186754,43.762683,10.035343,5.089954,4.63583E+18,0.633874,0.478518,0.506701,-0.335379,0
-10.759372,-1.175057,-1.209081,-0.138584,-0.27151,0.02855,38.435128,-8.319464,23.852002,4.63583E+18,0.63266,-0.229529,0.72328,0.15467,-10.348387,2.113398,-1.964091,0.152018,-0.561998,-0.710278,40.004093,-22.825893,2.132154,4.63582E+18,0.389892,-0.550149,0.534522,0.509515,-10.661604,1.139823,-0.365926,-0.368239,0.504091,-0.227566,43.814359,10.152303,5.516047,4.63583E+18,0.633446,0.477423,0.509282,-0.333835,0
-11.005332,-1.026995,-0.90988,-0.149858,-0.313257,-0.013563,38.568622,-8.280005,23.561622,4.63583E+18,0.633497,-0.229745,0.72232,0.155409,-10.437764,2.382178,-1.748499,0.202813,-0.586908,-0.769846,40.05249,-22.632959,2.061967,4.63582E+18,0.393267,-0.550315,0.532253,0.509118,-10.645987,0.705485,0.658302,-0.46012,0.45558,-0.27558,43.897823,10.267274,5.744573,4.63583E+18,0.633054,0.476178,0.511704,-0.33265,0
-11.117545,-0.924157,-0.755854,-0.153358,-0.357884,-0.041764,38.609414,-8.197168,23.720196,4.63583E+18,0.634482,-0.230026,0.721211,0.156126,-10.482019,2.621312,-1.545123,0.230776,-0.60787,-0.846119,40.106322,-22.681355,1.874723,4.63582E+18,0.396908,-0.550549,0.529825,0.508573,-10.831077,0.354605,1.391336,-0.469962,0.415089,-0.30621,43.772922,10.384234,5.83627,4.63583E+18,0.632718,0.474785,0.514086,-0.331606,0
-11.113941,-0.816897,-0.732444,-0.156335,-0.400222,-0.048679,38.544777,-8.2462,23.780022,4.63583E+18,0.635593,-0.230307,0.71998,0.156874,-10.560891,2.743163,-1.32498,0.243287,-0.630412,-0.934825,40.289845,-22.511617,1.807758,4.63582E+18,0.400806,-0.550899,0.52717,0.507895,-10.918538,-0.183898,1.454707,-0.365075,0.394619,-0.310211,43.572497,10.536676,5.983878,4.63583E+18,0.632138,0.473735,0.516175,-0.330969,0
-11.003062,-0.649379,-0.713231,-0.175511,-0.478029,-0.062584,38.593811,-8.3893,23.635919,4.63583E+18,0.636926,-0.230629,0.718513,0.157716,-10.808966,2.902921,-1.060557,0.260721,-0.65588,-1.029528,40.521786,-22.011113,1.862531,4.63582E+18,0.40499,-0.55136,0.52428,0.507066,-10.758168,-0.507307,0.988328,-0.201014,0.394742,-0.298364,43.538682,10.6894,6.22289,4.63583E+18,0.631246,0.47314,0.518012,-0.330651,0
-10.820778,-0.495112,-0.631191,-0.209932,-0.554678,-0.088076,38.794507,-8.490342,23.452838,4.63583E+18,0.638468,-0.231067,0.716792,0.158666,-11.049166,3.134001,-0.791806,0.269137,-0.659391,-1.125328,40.78682,-21.59343,1.472698,4.63582E+18,0.409393,-0.551993,0.521166,0.50605,-10.519983,-0.455959,0.395849,-0.044812,0.406092,-0.280703,43.624135,10.810635,6.360057,4.63583E+18,0.630283,0.472631,0.51997,-0.330143,0
-10.683084,-0.377433,-0.668002,-0.243957,-0.585519,-0.093157,38.911194,-8.50856,23.336957,4.63583E+18,0.640161,-0.231176,0.715091,0.159364,-11.284804,3.057254,-0.511275,0.271779,-0.655083,-1.217051,41.054319,-21.283317,0.898185,4.63582E+18,0.413972,-0.552812,0.517838,0.504847,-10.213422,-0.303515,-0.077141,0.069882,0.434106,-0.257107,43.578481,10.889839,6.360057,4.63583E+18,0.628887,0.472784,0.521546,-0.330099,0
-10.580227,-0.277179,-0.97175,-0.278748,-0.640041,-0.082004,38.919805,-8.518164,23.018402,4.63583E+18,0.641879,-0.231721,0.713092,0.160614,-11.587738,2.312334,-0.22593,0.324666,-0.655952,-1.291791,41.147019,-20.839264,0.798036,4.63582E+18,0.418817,-0.553679,0.514428,0.503384,-9.915885,-0.038434,-0.212937,0.13728,0.47365,-0.230429,43.50122,10.881931,6.509868,4.63583E+18,0.627307,0.473224,0.523078,-0.330053,0
-10.472966,-0.246751,-1.30915,-0.306432,-0.77724,-0.075681,39.109286,-8.453538,22.784043,4.63583E+18,0.643966,-0.232226,0.710707,0.162094,-12.150084,0.951366,0.322762,0.493952,-0.691109,-1.351424,41.188606,-20.338781,0.821414,4.63582E+18,0.424236,-0.554282,0.511154,0.501515,-9.827513,0.227637,-0.0333,0.175491,0.503862,-0.200424,43.513429,10.840174,6.846541,4.63583E+18,0.625626,0.473861,0.52458,-0.329944,0
-10.228667,-0.359385,-1.552291,-0.289212,-0.911556,-0.101659,39.411028,-8.435316,22.588743,4.63583E+18,0.646498,-0.232573,0.707968,0.163495,-12.912656,-0.312784,1.030781,0.802869,-0.78303,-1.377928,41.42196,-19.896235,0.690667,4.63582E+18,0.430599,-0.554176,0.508276,0.499129,-9.788961,0.361358,0.490591,0.189062,0.523609,-0.17553,43.438254,10.95876,7.081395,4.63583E+18,0.623907,0.474612,0.526063,-0.329759,0
-9.909493,-0.448253,-1.445526,-0.177189,-0.915375,-0.113993,39.728413,-8.502535,22.316609,4.63583E+18,0.649136,-0.232703,0.705255,0.164581,-13.666054,-0.430442,0.840746,1.154171,-0.9298,-1.390545,41.766885,-19.508716,0.495348,4.63582E+18,0.438083,-0.553126,0.505804,0.496284,-9.797948,0.433774,1.391216,0.175957,0.525361,-0.163331,43.323252,11.153244,7.172808,4.63583E+18,0.62222,0.475358,0.527539,-0.329514,0
-9.906378,-0.300655,-1.375047,-0.081262,-0.938399,-0.101918,39.786534,-8.530369,22.110073,4.63583E+18,0.651917,-0.232517,0.702547,0.165435,-13.668653,1.110094,-0.060741,1.364272,-1.052082,-1.430206,41.965725,-18.921366,0.357949,4.63582E+18,0.446356,-0.55148,0.503412,0.493166,-10.057043,0.289416,2.147741,0.187453,0.503854,-0.14168,43.287453,11.230811,7.264501,4.63583E+18,0.620581,0.476152,0.528896,-0.329282,0
-10.078239,-0.361969,-1.472843,-0.028576,-1.111041,-0.080627,39.783928,-8.532975,21.840555,4.63583E+18,0.655227,-0.231998,0.699414,0.166353,-12.819271,3.781101,-0.785657,1.329884,-1.065266,-1.475596,42.13308,-18.197652,0.341807,4.63582E+18,0.454632,-0.549918,0.500776,0.490024,-10.260731,-0.084116,2.187006,0.263386,0.478268,-0.115691,43.250012,11.187132,7.461993,4.63583E+18,0.618882,0.47716,0.53003,-0.329198,0
-9.899108,-0.755485,-1.11746,0.074026,-1.233026,-0.073318,40.091168,-8.475367,21.249938,4.63583E+18,0.658971,-0.231095,0.696008,0.167112,-11.664699,5.425019,-1.545855,1.115853,-0.962942,-1.490049,42.472545,-17.588079,0.308723,4.63582E+18,0.462197,-0.548955,0.497823,0.487027,-10.22872,-0.218107,1.565269,0.367537,0.461867,-0.092075,43.139337,11.182795,7.754953,4.63583E+18,0.616973,0.478572,0.53083,-0.329442,0
-9.483963,-1.123321,-0.696411,0.175779,-1.191845,-0.090274,40.481768,-8.40213,20.732196,4.63583E+18,0.662685,-0.229989,0.692749,0.167488,-10.974258,5.029613,-2.072508,0.876618,-0.789736,-1.463326,42.860588,-17.166361,0.177987,4.63582E+18,0.468769,-0.548711,0.494745,0.484148,-10.21217,0.003252,0.735708,0.440551,0.455529,-0.0545,43.105155,11.262278,7.941864,4.63583E+18,0.614979,0.480244,0.531435,-0.329761,0
-9.493091,-1.292323,-0.552771,0.255338,-1.121204,-0.117745,40.689997,-8.19449,20.236921,4.63583E+18,0.666276,-0.228785,0.689697,0.167485,-11.032722,3.606377,-2.060323,0.673893,-0.563154,-1.413849,42.933827,-16.893293,-0.017316,4.63582E+18,0.474285,-0.549188,0.491787,0.481239,-10.291919,0.271258,-0.001308,0.454344,0.443046,-0.015668,43.215826,11.347725,7.833919,4.63583E+18,0.613271,0.481636,0.532252,-0.329596,0
-9.857767,-1.136003,-0.79632,0.325908,-1.185559,-0.170104,40.839096,-8.02714,19.832415,4.63583E+18,0.670129,-0.227521,0.686438,0.167226,-11.355418,2.325184,-1.725378,0.389845,-0.245833,-1.451176,43.060813,-16.447938,-0.146489,4.63582E+18,0.478555,-0.550915,0.48878,0.478091,-10.433236,0.552818,-0.641487,0.411531,0.417863,0.004912,43.250025,11.345843,7.690664,4.63583E+18,0.611555,0.483206,0.532766,-0.329656,0
-10.073816,-0.606527,-0.943515,0.425567,-1.426216,-0.254883,41.119951,-7.928659,19.367633,4.63583E+18,0.674816,-0.225989,0.682491,0.166611,-11.922426,1.248975,-1.415165,0.058129,0.079933,-1.48727,43.259676,-15.751758,-0.154756,4.63582E+18,0.481454,-0.554005,0.485659,0.47478,-10.422966,0.776653,-1.170794,0.334478,0.416315,0.018347,43.139345,11.260386,7.890296,4.63583E+18,0.610014,0.484601,0.533356,-0.329508,0
-10.059738,-0.00577,-0.618845,0.505732,-1.657964,-0.343382,41.427735,-7.795217,18.956136,4.63583E+18,0.680261,-0.224335,0.677825,0.16575,-12.146309,0.075739,-0.74389,-0.059388,0.218342,-1.32687,43.344355,-15.089817,-0.170904,4.63582E+18,0.483466,-0.557259,0.482937,0.471693,-10.134094,1.048155,-1.085996,0.239706,0.431602,0.021791,43.030291,11.25603,8.131202,4.63583E+18,0.608568,0.485887,0.53401,-0.32923,0
-9.816333,0.563597,0.06058,0.548131,-1.737518,-0.451127,41.550553,-7.571942,18.565499,4.63583E+18,0.686006,-0.222791,0.672824,0.164522,-10.852874,-1.568783,-0.713106,0.004031,0.130934,-1.103735,43.418923,-14.729826,-0.137847,4.63582E+18,0.485351,-0.559751,0.480668,0.469118,-10.136145,1.500873,-0.3756,0.088124,0.409086,0.012179,42.950815,11.37293,8.17896,4.63583E+18,0.607463,0.486735,0.534832,-0.328683,0
-9.648159,1.297761,0.929839,0.568871,-1.638946,-0.550894,41.690955,-7.337436,18.021399,4.63583E+18,0.691512,-0.221562,0.667974,0.162889,-8.735403,-2.471503,-0.726653,0.131344,0.013676,-0.900925,43.663042,-14.615469,-0.073244,4.63582E+18,0.487362,-0.561339,0.478876,0.466963,-10.402574,1.377676,0.261421,-0.073511,0.380167,0.002565,42.91526,11.450544,8.322411,4.63583E+18,0.606735,0.487112,0.535821,-0.327858,0
-9.533075,2.002231,1.257417,0.5465,-1.469486,-0.582374,41.96479,-7.16308,17.435475,4.63583E+18,0.69651,-0.220587,0.663532,0.161062,-7.263538,-2.991407,-0.632653,0.131124,0.002736,-0.723787,43.820448,-14.361985,-0.077374,4.63582E+18,0.489044,-0.562546,0.477469,0.465189,-10.72311,0.607641,0.369821,-0.138905,0.366167,0.000046,42.96488,11.413131,8.609383,4.63583E+18,0.60648,0.486781,0.537336,-0.326338,0
-9.125705,2.167696,0.631822,0.46804,-1.359944,-0.547559,42.33718,-6.879613,16.772691,4.63583E+18,0.701077,-0.219808,0.659357,0.159445,-6.618726,-4.15438,-0.998512,0.036126,0.045728,-0.565669,43.837149,-14.004749,-0.056544,4.63582E+18,0.490108,-0.563711,0.476333,0.463821,-11.13085,0.076595,0.09425,-0.133358,0.357852,0.019594,43.006683,11.3773,8.752708,4.63583E+18,0.606007,0.486903,0.538411,-0.32526,0
-8.426408,1.875486,-0.056838,0.386497,-1.309463,-0.483549,42.66059,-6.437543,16.15635,4.63583E+18,0.705362,-0.219116,0.655309,0.158187,-6.23995,-5.687418,-1.216791,0.040308,0.065141,-0.421382,43.939295,-13.843195,0.028904,4.63582E+18,0.490862,-0.564617,0.475582,0.462692,-11.254177,-0.148587,-0.216907,-0.119495,0.365444,0.058684,42.925629,11.452118,8.846231,4.63583E+18,0.605539,0.48716,0.539404,-0.324101,0
-7.938179,1.621777,0.054154,0.356986,-1.227961,-0.417703,42.917812,-6.335642,15.95156,4.63583E+18,0.709355,-0.21827,0.651554,0.157005,-5.854007,-6.756772,-1.418718,0.123916,0.05977,-0.340254,44.044312,-13.814298,0.085452,4.63582E+18,0.491666,-0.565178,0.47517,0.461575,-11.087949,0.023917,-0.141796,-0.126315,0.380989,0.097566,42.854218,11.523788,9.085437,4.63583E+18,0.6051,0.487505,0.540367,-0.322795,0
-8.118,1.737857,0.56341,0.344322,-1.121607,-0.351711,43.094786,-6.268482,15.844313,4.63583E+18,0.712965,-0.217423,0.648121,0.156035,-5.453873,-6.792027,-1.868974,0.266219,0.011867,-0.296212,44.040183,-13.699949,0.056554,4.63582E+18,0.492813,-0.565267,0.475037,0.460378,-10.993156,0.555038,0.322578,-0.192856,0.379511,0.119201,42.947459,11.486389,9.272431,4.63583E+18,0.604826,0.487727,0.541371,-0.321286,0
-8.642029,1.887802,0.817914,0.323341,-1.004886,-0.256955,43.17672,-5.933629,15.513825,4.63583E+18,0.716165,-0.216443,0.645095,0.155281,-4.603767,-5.931301,-2.55873,0.562423,-0.071235,-0.13842,44.032104,-13.58684,0,4.63582E+18,0.494518,-0.564274,0.47567,0.459112,-10.880162,0.874003,0.324645,-0.286063,0.35976,0.121178,42.987458,11.406906,9.364122,4.63583E+18,0.604784,0.487693,0.542443,-0.319605,0
-9.023944,1.878188,0.614678,0.272978,-0.851057,-0.142654,43.314509,-5.789784,14.969663,4.63583E+18,0.718818,-0.215407,0.642586,0.154866,-3.950575,-5.918928,-3.634544,1.07029,-0.15746,0.186423,44.032104,-13.590967,0.061901,4.63582E+18,0.49696,-0.561418,0.477855,0.457706,-10.312157,1.002562,-0.232707,-0.336693,0.353625,0.114746,42.833444,11.321459,9.567741,4.63583E+18,0.604848,0.487505,0.54358,-0.317834,0
-9.104109,1.695042,0.203951,0.201026,-0.675034,-0.036907,43.473211,-5.908417,14.633136,4.63583E+18,0.720855,-0.214433,0.640638,0.154821,-5.475184,-7.839249,-2.992477,1.965222,-0.476451,0.483034,44.007343,-13.623808,0.249139,4.63582E+18,0.501541,-0.555483,0.481757,0.455857,-9.620026,1.230049,-0.574261,-0.359144,0.357852,0.102908,42.68852,11.242249,9.766948,4.63583E+18,0.604865,0.487346,0.544683,-0.316153,0
-9.145094,1.293066,-0.110767,0.137785,-0.529177,0.051356,43.507187,-5.877856,14.566046,4.63583E+18,0.722384,-0.2135,0.639165,0.155072,-7.08272,-7.767217,-1.270269,2.893556,-0.844677,0.708403,43.905217,-13.816711,0.37843,4.63582E+18,0.508521,-0.546389,0.487116,0.453413,-9.325691,1.522753,-0.548314,-0.401725,0.341996,0.085796,42.61528,11.125391,9.864602,4.63583E+18,0.60498,0.487017,0.545835,-0.314449,0
-9.270662,0.745479,-0.218866,0.117419,-0.432746,0.131541,43.37289,-5.677297,14.333213,4.63583E+18,0.723578,-0.212499,0.638029,0.155558,-5.532053,-4.60858,-0.70685,3.544808,-1.010034,0.953643,43.75066,-14.210934,0.382555,4.63582E+18,0.51675,-0.534991,0.493811,0.450449,-9.296064,1.423479,-0.481815,-0.410818,0.308342,0.070365,42.579422,11.004092,9.962249,4.63583E+18,0.605166,0.486585,0.546943,-0.312831,0
-9.330818,0.334803,-0.414198,0.104449,-0.369956,0.199672,43.460982,-5.752315,13.98268,4.63583E+18,0.724547,-0.211396,0.637131,0.156227,-4.03602,-1.35005,-0.339112,3.874872,-1.12003,1.118565,43.628923,-14.540534,0.423639,4.63582E+18,0.525488,-0.522188,0.50112,0.447282,-9.233523,1.102891,-0.607147,-0.338074,0.270348,0.059184,42.666629,11.005851,10.153337,4.63583E+18,0.605273,0.486259,0.547882,-0.311482,0
-9.329072,0.054938,-0.626934,0.090564,-0.300761,0.255592,43.552525,-5.920588,13.904232,4.63583E+18,0.725281,-0.210231,0.636482,0.157041,-3.753084,0.206908,0.477808,3.92221,-1.140924,1.225141,43.555681,-14.956741,0.492421,4.63582E+18,0.534012,-0.508858,0.508547,0.444157,-9.024494,1.274831,-0.775796,-0.272071,0.230325,0.0463,42.756557,11.004097,10.384275,4.63583E+18,0.605692,0.485359,0.549243,-0.30967,0
-9.355226,-0.182207,-0.642638,0.102692,-0.228136,0.303119,43.453144,-5.947623,14.134389,4.63583E+18,0.725799,-0.208951,0.636099,0.157902,-3.303426,1.169898,1.499848,3.829922,-1.06398,1.273954,43.486567,-15.513782,0.533494,4.63582E+18,0.541921,-0.495615,0.515921,0.441037,-9.005325,1.444959,-0.805689,-0.258514,0.186425,0.025919,42.718937,10.962248,10.48018,4.63583E+18,0.605845,0.484936,0.550032,-0.308633,0
-9.487757,-0.251122,-0.442971,0.148774,-0.175637,0.328073,43.354598,-6.01214,13.976624,4.63583E+18,0.726201,-0.207498,0.635925,0.158669,-3.23545,2.396878,1.867895,3.44411,-0.901632,1.2714,43.363681,-15.898813,0.598163,4.63582E+18,0.548541,-0.48341,0.522805,0.438284,-9.237252,1.136812,-0.793234,-0.241033,0.147646,0.008437,42.639716,10.924883,10.535979,4.63583E+18,0.605965,0.484578,0.550636,-0.307881,0
-9.598484,-0.07417,-0.189274,0.193783,-0.100959,0.298633,43.393814,-6.097578,13.76302,4.63583E+18,0.72646,-0.206037,0.635981,0.159164,-3.254616,3.270655,1.731375,2.736055,-0.644388,1.232598,43.123675,-16.090476,0.664121,4.63582E+18,0.553132,-0.473278,0.528799,0.436377,-9.444284,0.753641,-0.793729,-0.202536,0.114992,0.005929,42.641202,10.926369,10.533999,4.63583E+18,0.606078,0.484269,0.551114,-0.307289,0
-9.801629,0.16737,-0.047978,0.23651,-0.004444,0.224022,43.543775,-6.240569,13.807424,4.63583E+18,0.726548,-0.204708,0.636291,0.159236,-3.322649,3.042749,1.531485,1.842636,-0.278038,1.13172,42.945325,-16.400421,0.892418,4.63582E+18,0.55527,-0.466035,0.533748,0.43543,-9.639837,0.591936,-0.818142,-0.164129,0.079767,0.00909,42.677082,11.005835,10.529747,4.63583E+18,0.606408,0.483639,0.55178,-0.306431,0
-10.14865,0.373166,-0.149079,0.282594,0.069114,0.128957,43.580429,-6.274605,13.898115,4.63583E+18,0.726571,-0.203425,0.636809,0.158704,-5.562629,-1.369728,2.60295,1.037128,0.04187,0.925504,42.872082,-16.815473,1.218374,4.63582E+18,0.555474,-0.461668,0.537545,0.435151,-9.984323,0.505017,-0.755391,-0.144702,0.056483,0.020509,42.683308,10.966762,10.671228,4.63583E+18,0.606617,0.483325,0.552103,-0.305933,0
-10.479102,0.549289,-0.317349,0.358113,0.035493,0.023146,43.513309,-6.217075,13.772614,4.63583E+18,0.726787,-0.202286,0.637147,0.157811,-10.060623,-7.773883,1.980992,0.292004,0.3251,0.590674,42.741133,-17.176924,1.510071,4.63582E+18,0.554205,-0.460278,0.539991,0.435213,-10.354569,0.389903,-0.515512,-0.144221,0.042031,0.036969,42.732872,10.770709,10.816738,4.63583E+18,0.606881,0.483027,0.55236,-0.305417,0
-10.691018,0.672248,-0.219782,0.474146,-0.012805,-0.060405,43.494976,-6.201361,13.800446,4.63583E+18,0.727281,-0.200985,0.637344,0.156396,-10.690747,-9.202817,-4.085097,-0.600597,0.733382,0.31731,42.529971,-17.404412,1.512942,4.63582E+18,0.550795,-0.462299,0.541229,0.435862,-10.554637,0.397592,-0.080102,-0.153983,0.033636,0.046539,42.899248,10.619711,10.764984,4.63583E+18,0.607194,0.482717,0.552587,-0.304874,0
-10.739894,0.60954,0.046975,0.61169,0.006929,-0.119688,43.562085,-6.201361,13.972172,4.63583E+18,0.727886,-0.199384,0.637653,0.154358,-10.872329,-10.559476,-5.471436,-0.489033,0.585076,0.074016,42.486505,-17.488778,1.453457,4.63582E+18,0.548367,-0.464337,0.541853,0.435981,-10.520848,0.414568,0.270255,-0.171073,0.036925,0.059462,42.969093,10.621166,10.569678,4.63583E+18,0.607546,0.482404,0.552812,-0.304259,0
-10.732931,0.24092,0.119451,0.724981,0.005729,-0.148993,43.637936,-6.06718,14.157864,4.63583E+18,0.728594,-0.197543,0.637993,0.151962,-14.719238,-9.636523,-0.349118,0.300188,0.148787,0.092149,42.616352,-17.432173,1.673645,4.63582E+18,0.548416,-0.463735,0.542946,0.435201,-10.375326,0.322167,0.223299,-0.156574,0.042768,0.066728,42.802963,10.657063,10.529973,4.63583E+18,0.607862,0.482155,0.553017,-0.303649,0
-10.586552,-0.495618,-0.117518,0.810596,-0.068074,-0.152136,43.720759,-5.905869,14.110957,4.63583E+18,0.729562,-0.195403,0.638154,0.149389,-12.894957,-4.413271,3.130874,0.938671,0.110649,0.32492,42.636039,-17.461009,1.966599,4.63582E+18,0.549356,-0.461073,0.545554,0.433578,-10.153196,0.461741,0.060316,-0.129141,0.051942,0.071692,42.689289,10.657063,10.633609,4.63583E+18,0.608051,0.482101,0.55311,-0.303186,0
-10.307575,-1.35193,-0.25979,0.918391,-0.155521,-0.140774,43.672033,-5.680064,14.00108,4.63583E+18,0.730831,-0.192852,0.638115,0.146638,-8.293037,0.995348,3.377029,1.21157,0.363972,0.530154,42.583541,-17.600013,2.226621,4.63582E+18,0.549861,-0.457766,0.549615,0.431307,-9.811409,0.957908,0.130207,-0.114104,0.054392,0.062184,42.732851,10.613502,10.681478,4.63583E+18,0.608323,0.481826,0.55342,-0.302511,0
-9.992857,-1.873532,-0.175359,1.038763,-0.190878,-0.121021,43.462018,-5.503036,13.977477,4.63583E+18,0.732262,-0.189877,0.638041,0.143675,-7.748458,2.95338,3.41103,1.403162,0.50036,0.638687,42.566916,-17.819437,2.38898,4.63582E+18,0.550202,-0.453999,0.554519,0.428569,-9.44471,1.425625,0.213271,-0.069285,0.03659,0.029029,42.737403,10.534273,10.731262,4.63583E+18,0.608431,0.481699,0.553578,-0.302206,0
-9.694618,-2.224143,-0.127322,1.134543,-0.203856,-0.103011,43.601194,-5.401833,14.121228,4.63583E+18,0.73378,-0.186536,0.637989,0.140504,-9.82612,1.814843,4.12013,1.822778,0.394045,0.65257,42.407215,-17.961498,2.58133,4.63582E+18,0.551526,-0.449022,0.559923,0.42507,-8.942094,1.393832,0.182874,-0.015104,0.015877,0.012294,42.701496,10.498366,10.822693,4.63583E+18,0.608458,0.481643,0.553652,-0.302108,0
-9.478321,-2.55372,-0.160404,1.215647,-0.232984,-0.090953,43.902819,-5.316387,14.083927,4.63583E+18,0.735412,-0.182892,0.63789,0.137171,-11.405879,0.987077,5.377815,2.188735,0.415962,0.703587,42.106446,-18.104584,3.025616,4.63582E+18,0.553349,-0.443087,0.566075,0.42076,-8.586847,1.762494,0.058914,0.016249,-0.002343,0.003563,42.782377,10.535696,10.914362,4.63583E+18,0.608453,0.481621,0.553659,-0.302138,0
-9.388418,-2.720402,-0.190066,1.287973,-0.293149,-0.087818,43.836932,-5.173459,13.832983,4.63583E+18,0.737237,-0.178978,0.637632,0.133695,-12.451494,0.769936,5.753224,2.456136,0.509349,0.677546,41.97346,-18.36095,3.636444,4.63582E+18,0.555432,-0.436713,0.572802,0.415542,-8.526753,1.989896,-0.111046,0.045192,-0.028061,-0.009151,42.941074,10.534281,10.956026,4.63583E+18,0.608434,0.481611,0.553591,-0.302318,0
-9.336963,-2.622116,-0.042026,1.348409,-0.331938,-0.089265,43.742678,-5.014767,13.683724,4.63583E+18,0.739183,-0.174871,0.637262,0.130098,-13.299968,1.076099,5.631303,2.627681,0.547662,0.584637,42.079488,-18.502023,4.282956,4.63582E+18,0.557827,-0.430176,0.579675,0.409578,-8.775823,1.305148,-0.326426,0.10822,-0.060689,-0.013362,42.938017,10.461041,10.906495,4.63583E+18,0.608359,0.481709,0.553369,-0.30272,0
-9.374366,-2.300512,0.306621,1.422863,-0.326865,-0.103139,43.717336,-4.913547,13.660085,4.63583E+18,0.741151,-0.170568,0.636916,0.126252,-13.5861,1.655227,5.545984,2.667909,0.58388,0.482658,42.147749,-18.445387,4.889744,4.63582E+18,0.560307,-0.423796,0.586442,0.403162,-9.438022,0.16867,-0.600492,0.211526,-0.080152,-0.004633,42.77311,10.462443,10.721525,4.63583E+18,0.60813,0.482067,0.552947,-0.303379,0
-9.54079,-1.905572,0.553515,1.493517,-0.299337,-0.125258,43.71471,-4.578993,13.717571,4.63583E+18,0.743078,-0.166114,0.636652,0.122126,-13.221575,2.638689,5.41898,2.50843,0.695418,0.34862,41.983958,-18.507215,5.561338,4.63582E+18,0.562387,-0.418249,0.592889,0.396574,-10.405202,-1.146003,-0.813539,0.3492,-0.099664,0.013525,42.683069,10.61655,10.484296,4.63583E+18,0.607632,0.4829,0.552169,-0.304469,0
-9.812722,-1.349502,0.550265,1.547621,-0.275908,-0.159652,43.781768,-4.233675,13.723749,4.63583E+18,0.744967,-0.161589,0.636438,0.117728,-12.645627,4.046862,5.298634,2.150443,0.877404,0.225829,41.740768,-18.599651,6.166757,4.63582E+18,0.563536,-0.414099,0.598894,0.390223,-11.416497,-1.193056,-1.127247,0.468618,-0.1284,0.039301,42.720619,10.730308,10.438256,4.63583E+18,0.60699,0.484056,0.551112,-0.305825,0
-10.124851,-0.588507,0.632919,1.610395,-0.236106,-0.224696,43.98217,-3.971139,13.711542,4.63583E+18,0.746802,-0.156989,0.636321,0.112854,-12.554574,5.009001,5.078363,1.681186,1.041199,0.170366,41.700801,-18.460627,6.638725,4.63582E+18,0.563511,-0.411422,0.604376,0.384599,-11.735003,-0.079941,-1.324158,0.474702,-0.15081,0.060441,42.725222,10.730308,10.535909,4.63583E+18,0.606465,0.48515,0.55003,-0.307079,0
-10.336871,0.025596,0.544248,1.650637,-0.147658,-0.302359,44.032104,-3.726991,13.622701,4.63583E+18,0.74842,-0.152556,0.636404,0.107628,-12.736135,4.898059,4.171395,1.127517,1.154098,0.095555,41.691635,-18.298897,7.139671,4.63582E+18,0.56234,-0.410391,0.609073,0.379978,-11.080651,0.556012,-1.007695,0.388344,-0.174894,0.076584,42.726602,10.730308,10.484319,4.63583E+18,0.606196,0.486015,0.548975,-0.308126,0
-10.452927,0.203965,0.292387,1.699675,-0.059825,-0.379726,43.897993,-3.482843,13.436199,4.63583E+18,0.74983,-0.14822,0.636699,0.101984,-12.592714,4.679102,3.419778,0.537183,1.274094,-0.01375,41.549578,-18.331853,7.746329,4.63582E+18,0.560006,-0.411193,0.612905,0.376379,-10.347738,0.330989,-0.589644,0.347893,-0.196156,0.099015,42.799846,10.730308,10.289001,4.63583E+18,0.606084,0.486804,0.547869,-0.309069,0
-10.416483,-0.144236,0.07869,1.766487,-0.0668,-0.433159,43.928246,-3.114202,13.458569,4.63583E+18,0.751281,-0.143806,0.636932,0.095995,-12.299887,4.276605,2.953135,0.073129,1.378548,-0.058507,41.464127,-18.425393,8.384781,4.63582E+18,0.556661,-0.413343,0.616156,0.373668,-10.063748,0.203593,-0.414138,0.390454,-0.212721,0.123077,42.835777,10.730308,10.193182,4.63583E+18,0.60579,0.488018,0.54636,-0.310398,0
-10.103795,-0.655994,-0.116623,1.831116,-0.083759,-0.447472,44.00412,-2.83588,13.53444,4.63583E+18,0.752776,-0.139213,0.637091,0.089794,-12.101359,3.386877,2.507352,-0.215321,1.424201,-0.094564,41.378683,-18.42435,8.925535,4.63582E+18,0.552738,-0.41631,0.61898,0.371523,-9.929474,0.360913,-0.360005,0.438259,-0.235795,0.149799,42.835777,10.693004,10.143444,4.63583E+18,0.605647,0.489094,0.544932,-0.311494,0
-9.543445,-1.180863,-0.359806,1.900835,-0.00021,-0.426835,44.019897,-2.591755,13.617255,4.63583E+18,0.754033,-0.134373,0.63751,0.083423,-11.91272,2.682645,1.7678,-0.399761,1.402217,-0.122402,41.293244,-18.286406,9.3398,4.63582E+18,0.548575,-0.419725,0.621397,0.369814,-9.670871,0.185267,-0.441046,0.506162,-0.265721,0.174305,42.873077,10.657063,10.002275,4.63583E+18,0.605463,0.490354,0.543286,-0.312741,0
-9.153346,-1.533394,-0.836411,1.95564,0.036906,-0.389009,43.895403,-2.213544,13.693128,4.63583E+18,0.755159,-0.12926,0.638043,0.076993,-11.271503,2.209971,1.272395,-0.439281,1.324114,-0.079772,41.178969,-18.266679,9.628673,4.63582E+18,0.54446,-0.422983,0.623626,0.368427,-9.410563,0.112332,-0.624371,0.632124,-0.293976,0.207089,42.946317,10.582474,9.812959,4.63583E+18,0.605124,0.491967,0.541334,-0.314246,0
-8.91951,-1.656628,-0.837261,2.013384,-0.005497,-0.358474,43.851622,-1.683576,13.61315,4.63583E+18,0.756365,-0.123862,0.638433,0.070523,-9.995091,2.867395,0.864429,-0.445296,1.247831,0.011791,41.012184,-18.352131,9.942379,4.63582E+18,0.540374,-0.425887,0.625814,0.367387,-9.494039,0.697845,-0.738882,0.720729,-0.330486,0.237285,42.982265,10.467069,9.667373,4.63583E+18,0.604657,0.493926,0.539008,-0.316066,0
-8.644977,-1.586237,-0.537583,2.076546,-0.012294,-0.345786,43.973471,-1.246566,13.424062,4.63583E+18,0.757561,-0.11822,0.638779,0.063924,-8.150866,4.806417,0.237388,-0.532473,1.241346,0.155746,40.8782,-18.437573,10.390727,4.63582E+18,0.535913,-0.428588,0.62809,0.366897,-9.556859,1.327909,-0.68851,0.692478,-0.362256,0.244587,43.019548,10.505898,9.520017,4.63583E+18,0.604461,0.495546,0.536834,-0.3176,0
-8.399882,-1.304025,-0.55963,2.125553,0.0421,-0.345619,44.065138,-1.025655,13.29314,4.63583E+18,0.758577,-0.112429,0.63926,0.057162,-6.548447,6.199533,-0.684701,-0.617291,1.265358,0.426489,40.792744,-18.551841,10.939661,4.63582E+18,0.530804,-0.430791,0.630751,0.367179,-9.491584,1.352184,-0.591513,0.628738,-0.388587,0.246256,43.130065,10.670798,9.275007,4.63583E+18,0.604375,0.497101,0.534549,-0.319185,0
-8.397739,-0.926551,-0.710429,2.189685,0.130339,-0.351945,44.080933,-0.730278,13.413071,4.63583E+18,0.759326,-0.106463,0.63998,0.050163,-6.795579,4.702953,-1.978029,-0.398302,1.111371,0.723103,40.657918,-18.72273,11.321067,4.63582E+18,0.52602,-0.431479,0.633916,0.367803,-9.590334,1.109346,-0.449709,0.594205,-0.413507,0.263556,43.233065,10.711233,8.988243,4.63583E+18,0.604432,0.498572,0.532202,-0.320701,0
-8.717261,-0.58382,-0.725504,2.303506,0.152284,-0.366122,44.071359,-0.151791,13.500427,4.63583E+18,0.760001,-0.100171,0.640728,0.042801,-8.873575,2.215842,-2.610594,0.284824,0.63848,0.9047,40.450669,-18.922439,11.483465,4.63582E+18,0.523421,-0.429453,0.6374,0.367862,-9.773869,0.627848,-0.174081,0.586489,-0.437701,0.287502,43.269251,10.551241,8.800671,4.63583E+18,0.604586,0.500039,0.52975,-0.322184,0
-9.165328,-0.282949,-0.567062,2.462214,0.078192,-0.377118,44.011284,0.294142,13.571036,4.63583E+18,0.760865,-0.093383,0.641202,0.035006,-10.046148,2.723285,-2.031661,1.022372,0.165403,1.125856,40.26729,-19.232273,11.548203,4.63582E+18,0.523041,-0.424493,0.641358,0.367279,-10.049708,0.213091,-0.012207,0.609165,-0.468094,0.318141,43.231765,10.43733,8.709229,4.63583E+18,0.604633,0.501845,0.526872,-0.323999,0
-9.523902,-0.104852,-0.544065,2.598919,0.016634,-0.383381,43.928468,0.512458,13.577267,4.63583E+18,0.76186,-0.086158,0.641424,0.026847,-9.780398,4.789916,-1.460248,1.46836,-0.162815,1.382121,40.035378,-19.647275,11.614013,4.63582E+18,0.523907,-0.41735,0.6457,0.366623,-10.298345,-0.13988,-0.210971,0.659613,-0.489344,0.375561,43.307809,10.362794,8.518184,4.63583E+18,0.604692,0.503865,0.523746,-0.325818,0
-9.738603,-0.235973,-0.587622,2.717034,-0.018111,-0.402122,43.900458,0.932224,13.411904,4.63583E+18,0.762897,-0.078595,0.641463,0.018321,-9.399179,5.405402,-1.305671,1.765618,-0.487879,1.544638,39.745871,-20.037635,11.875125,4.63582E+18,0.52587,-0.408588,0.650015,0.366056,-10.512927,-0.61315,-0.645059,0.723697,-0.514079,0.444386,43.496261,10.210103,8.082379,4.63583E+18,0.604915,0.505895,0.520566,-0.327351,0
-9.835569,-0.58711,-0.684321,2.804759,-0.110845,-0.45136,44.022273,1.602443,13.185218,4.63583E+18,0.764111,-0.070867,0.641111,0.009432,-9.215656,4.701298,-1.155056,2.083881,-0.783816,1.685076,39.425265,-20.346561,12.199976,4.63582E+18,0.528901,-0.398249,0.654329,0.365396,-10.800103,-0.328163,-0.885143,0.731816,-0.552061,0.505192,43.319825,10.330862,7.707382,4.63583E+18,0.605213,0.508117,0.517043,-0.328938,0
-9.736507,-0.85328,-0.79418,2.853874,-0.216669,-0.512993,44.113953,2.332203,13.183028,4.63583E+18,0.765514,-0.063133,0.640314,0.000244,-8.872937,4.384172,-1.197907,2.410607,-0.989624,1.848461,39.324158,-20.648282,12.329477,4.63582E+18,0.532704,-0.38637,0.658856,0.36449,-10.720274,0.172178,-0.853881,0.675561,-0.592088,0.554197,42.788061,10.833277,7.57395,4.63583E+18,0.605773,0.510237,0.513383,-0.330357,0
-9.379517,-0.826791,-0.932732,2.863473,-0.217494,-0.565952,43.995787,2.815679,13.033519,4.63583E+18,0.766809,-0.055501,0.639406,-0.009137,-8.310921,4.753308,-1.67846,2.6153,-1.109705,2.002948,39.254122,-21.038628,12.333589,4.63582E+18,0.536828,-0.373355,0.663549,0.363489,-10.187908,0.312449,-0.737177,0.635962,-0.626193,0.601829,42.624152,10.934458,7.382948,4.63583E+18,0.606543,0.512301,0.509579,-0.331637,0
-8.916597,-0.547294,-1.174929,2.854493,-0.166274,-0.605271,43.949289,3.087195,12.758993,4.63583E+18,0.767849,-0.047993,0.638558,-0.018632,-7.573591,4.829762,-2.161871,2.700592,-1.139522,2.137736,38.964612,-21.351651,12.403366,4.63582E+18,0.540846,-0.359649,0.668369,0.362521,-9.813495,0.583308,-0.615741,0.617188,-0.658816,0.648171,42.825037,10.506594,7.096196,4.63583E+18,0.607475,0.514359,0.505608,-0.332821,0
-8.488387,-0.179439,-1.558306,2.845256,-0.152976,-0.641586,44.071052,3.520077,12.523451,4.63583E+18,0.768736,-0.040603,0.637652,-0.028218,-6.793523,4.64565,-2.577777,2.614741,-1.058431,2.204264,38.590579,-21.661431,12.590573,4.63582E+18,0.544287,-0.345993,0.673191,0.361739,-9.567671,1.017195,-0.586165,0.591516,-0.689719,0.685519,42.654477,10.433844,6.771967,4.63583E+18,0.608566,0.516375,0.501503,-0.333915,0
-8.14033,0.151136,-1.762828,2.832525,-0.15442,-0.672041,44.095778,4.132758,12.380276,4.63583E+18,0.769507,-0.03333,0.636644,-0.037864,-6.458072,3.844102,-3.044464,2.379763,-0.913076,2.170217,38.326664,-22.047639,12.757092,4.63582E+18,0.546919,-0.333112,0.677799,0.361255,-9.418324,1.39414,-0.52367,0.538216,-0.725655,0.713162,42.644413,10.47208,6.34369,4.63583E+18,0.609871,0.518252,0.49731,-0.334896,0
-7.954265,0.391976,-1.717936,2.809429,-0.155719,-0.690833,43.968743,4.722336,12.258202,4.63583E+18,0.770161,-0.026176,0.635539,-0.047504,-6.958214,1.826311,-3.054553,2.192651,-0.76804,2.071417,38.200838,-22.377225,12.829981,4.63582E+18,0.548931,-0.321095,0.682196,0.360807,-9.25632,1.476063,-0.277878,0.486859,-0.760738,0.733455,43.114473,10.047529,5.861629,4.63583E+18,0.611375,0.519978,0.493044,-0.335786,0
-7.941738,0.688202,-1.696829,2.764545,-0.120792,-0.691785,44.049245,5.162041,12.059617,4.63583E+18,0.770608,-0.019158,0.634464,-0.057025,-8.523572,-0.989957,-2.413668,2.201328,-0.688103,1.940435,38.05353,-22.73969,12.928577,4.63582E+18,0.550835,-0.309498,0.686502,0.359871,-9.13197,1.409851,0.076365,0.485664,-0.78203,0.759183,42.988441,9.6546,5.640028,4.63583E+18,0.612946,0.52171,0.488657,-0.336645,0
-8.033124,1.10128,-1.878607,2.718525,-0.060859,-0.685232,44.138337,5.564903,11.925979,4.63583E+18,0.770787,-0.012255,0.633505,-0.066401,-10.569077,-3.632056,-1.544787,2.427417,-0.643597,1.827309,37.736187,-23.162775,13.254358,4.63582E+18,0.552983,-0.297721,0.690992,0.357912,-9.446866,1.379024,0.479806,0.478766,-0.807809,0.796131,42.479079,9.570604,5.608579,4.63583E+18,0.614622,0.523449,0.484121,-0.337442,0
-8.16213,1.464217,-2.00531,2.691243,-0.03779,-0.6878,44.020231,6.159109,11.806542,4.63583E+18,0.770798,-0.005438,0.632542,-0.075705,-11.923767,-4.938989,-1.302875,2.734678,-0.617788,1.732609,37.443424,-23.524457,13.608051,4.63582E+18,0.555481,-0.285495,0.69576,0.354755,-9.630419,1.212295,0.79511,0.460354,-0.832755,0.831251,42.639548,9.458905,5.219067,4.63583E+18,0.616422,0.525162,0.479457,-0.338156,0
-8.372908,1.643351,-1.997733,2.686392,-0.093836,-0.713227,43.791967,6.614674,11.46449,4.63583E+18,0.770845,0.001278,0.631316,-0.085067,-11.911945,-3.775499,-1.505956,2.952159,-0.619816,1.630327,37.199276,-23.723317,13.925781,4.63582E+18,0.558286,-0.273003,0.700586,0.350665,-9.645274,1.229389,0.971812,0.467991,-0.844433,0.856308,43.094576,9.357076,4.541658,4.63583E+18,0.619103,0.525708,0.476017,-0.337269,0
-8.738779,1.557625,-1.961109,2.673,-0.189535,-0.758434,43.786955,7.084496,10.985103,4.63583E+18,0.771024,0.007798,0.629702,-0.094529,-10.970927,-1.001517,-1.5336,2.872335,-0.558589,1.470875,37.008528,-23.808755,14.312251,4.63582E+18,0.560945,-0.261198,0.705119,0.346299,-9.890624,1.584194,1.142908,0.455763,-0.850281,0.87928,43.151755,9.356874,4.068844,4.63583E+18,0.621058,0.527354,0.471305,-0.337722,0
-9.065105,1.267641,-1.838391,2.661768,-0.245812,-0.813429,43.924522,7.764127,10.704607,4.63583E+18,0.771226,0.014114,0.627829,-0.104127,-9.860871,1.015708,-1.432371,2.476944,-0.396385,1.209622,36.894336,-23.869579,14.75638,4.63582E+18,0.562984,-0.251277,0.709064,0.342253,-9.959836,1.620976,1.177111,0.428747,-0.86161,0.90115,43.111147,9.077893,3.837723,4.63583E+18,0.623108,0.528942,0.46654,-0.338079,0
-9.159833,0.823292,-1.701481,2.661362,-0.225158,-0.861666,43.949294,8.305203,10.561414,4.63583E+18,0.771247,0.020309,0.62594,-0.113864,-9.199837,1.681505,-1.600598,1.945522,-0.191661,0.883407,36.698792,-23.877682,15.198767,4.63582E+18,0.564266,-0.24383,0.712314,0.33876,-9.720688,1.272563,0.949368,0.43929,-0.877598,0.932301,43.283457,8.416686,3.555347,4.63583E+18,0.625191,0.53058,0.461637,-0.338398,0
-9.301664,0.433298,-1.835013,2.629185,-0.102178,-0.919312,43.879698,8.783922,10.37239,4.63583E+18,0.770818,0.026305,0.624382,-0.123677,-9.10683,1.613022,-2.113592,1.401396,-0.000572,0.553461,36.425929,-23.824319,15.35313,4.63582E+18,0.564861,-0.238897,0.714868,0.335893,-9.793923,1.247745,0.713037,0.476182,-0.903424,0.969072,43.483966,7.796746,3.133518,4.63583E+18,0.627197,0.532435,0.456398,-0.338877,0
-9.702076,0.200999,-2.635456,2.530628,-0.170914,-0.97266,43.794256,9.336473,10.15532,4.63583E+18,0.770449,0.031807,0.622577,-0.133396,-9.131138,0.618781,-2.752879,0.980466,0.153455,0.26814,36.207157,-23.718985,15.545184,4.63582E+18,0.564961,-0.236013,0.71689,0.333445,-9.910818,1.614765,0.597366,0.50322,-0.924526,0.982118,43.512591,7.56859,2.756482,4.63583E+18,0.629335,0.534131,0.451262,-0.339122,0
-10.08944,0.034375,-2.882578,2.515916,-0.503263,-1.013051,43.823564,9.900643,9.71564,4.63583E+18,0.770822,0.036967,0.619638,-0.143234,-9.086001,-0.547691,-3.460542,0.763106,0.264075,0.060454,36.231778,-23.718985,15.89486,4.63582E+18,0.564796,-0.234412,0.718656,0.331044,-9.684483,2.352387,0.698213,0.501347,-0.951035,0.977863,43.42714,7.487947,2.376659,4.63583E+18,0.63142,0.535864,0.445932,-0.339563,0
-10.149643,0.105182,-2.109068,2.588973,-0.732226,-1.070513,43.827223,10.395197,9.062191,4.63583E+18,0.771632,0.042071,0.615844,-0.15346,-8.984548,-1.344634,-3.947599,0.723681,0.335513,-0.080429,36.305019,-23.690265,16.183723,4.63582E+18,0.564567,-0.23342,0.72039,0.328356,-9.719645,2.806721,1.115192,0.388768,-0.984461,0.961635,43.465736,7.0936,1.863218,4.63583E+18,0.633774,0.537205,0.440694,-0.339898,0
-9.90528,0.335101,-0.926299,2.659459,-0.612452,-1.156131,43.748074,11.072138,8.519327,4.63583E+18,0.771954,0.047252,0.612312,-0.1641,-8.968438,-2.012012,-4.188036,0.777322,0.372503,-0.200451,36.32493,-23.551487,16.497301,4.63582E+18,0.564436,-0.232711,0.722158,0.325184,-9.54713,2.256777,1.385638,0.317158,-1.028629,0.934425,43.748445,6.47726,1.438136,4.63583E+18,0.636309,0.538226,0.435486,-0.340257,0
-9.657488,0.553191,-0.56358,2.691981,-0.118122,-1.248822,43.526115,11.928839,8.07623,4.63583E+18,0.770826,0.052631,0.610273,-0.174998,-8.927209,-2.851561,-4.31661,0.826662,0.387711,-0.336164,36.292812,-23.278609,16.8101,4.63582E+18,0.564483,-0.23231,0.723887,0.321526,-9.786898,2.098538,1.81332,0.44485,-1.147469,0.935919,44.064473,6.059125,1.151359,4.63583E+18,0.638676,0.539496,0.429643,-0.341237,0
-9.836707,0.569478,-0.996088,2.595002,0.490829,-1.294059,43.279328,12.56179,7.744599,4.63583E+18,0.768021,0.058019,0.610178,-0.185635,-8.903986,-4.089206,-3.998847,0.982708,0.395685,-0.463449,36.36605,-22.977747,16.964484,4.63582E+18,0.564816,-0.231933,0.725706,0.317083,-10.135252,2.125841,2.320953,0.608282,-1.261431,0.935478,44.091788,5.901603,0.7714,4.63583E+18,0.641005,0.540824,0.423488,-0.342463,0
-10.435595,0.733631,-2.165182,2.698097,0.803051,-1.311043,43.092567,12.99899,7.515927,4.63583E+18,0.764262,0.063926,0.61091,-0.196484,-9.837049,-6.670191,-3.194119,1.286687,0.411493,-0.569359,36.381869,-22.758211,17.156485,4.63582E+18,0.565517,-0.231174,0.727839,0.311447,-9.496513,1.94231,2.62163,0.807992,-1.335868,0.9012,43.964297,5.661189,0.351158,4.63583E+18,0.642856,0.542587,0.416782,-0.344425,0
-11.855178,1.182756,-5.225826,2.486041,0.564653,-1.279529,43.055511,13.535614,7.595199,4.63583E+18,0.761075,0.069031,0.610954,-0.206726,-13.022332,-11.548854,-2.759606,1.672392,0.333198,-0.797511,36.312923,-22.509388,17.596419,4.63582E+18,0.567096,-0.230084,0.730033,0.304164,-9.051694,2.956269,3.036873,0.98121,-1.423999,0.843253,43.965631,5.152771,-0.108048,4.63583E+18,0.644271,0.544647,0.409577,-0.347161,0
-13.048575,1.045456,-4.521783,2.467402,0.099362,-1.200607,42.854777,14.300523,7.600951,4.63583E+18,0.759041,0.073868,0.609433,-0.216776,-15.820743,-14.164081,-4.369196,2.131977,0.172628,-1.134962,36.403214,-21.934396,18.125094,4.63582E+18,0.569985,-0.228713,0.732046,0.294815,-8.797759,4.303808,3.117008,1.010286,-1.50343,0.744083,44.001491,4.567422,-0.812301,4.63583E+18,0.645572,0.546464,0.402314,-0.350369,0
-13.711851,0.919233,-2.775505,2.513094,-0.210745,-1.142893,42.607958,14.984656,7.277527,4.63583E+18,0.757733,0.078706,0.606791,-0.226828,-13.766874,-10.176843,-4.96286,2.558324,0.027143,-1.278485,36.69618,-21.047573,18.560262,4.63582E+18,0.573831,-0.22656,0.734012,0.283928,-8.761881,4.470013,2.575633,1.040469,-1.569039,0.624513,44.026464,4.222645,-1.617145,4.63583E+18,0.646696,0.548027,0.395074,-0.354073,0
-13.936138,0.434952,-2.328386,2.642342,-0.22187,-1.101289,42.602802,15.497778,6.654851,4.63583E+18,0.756345,0.084034,0.603895,-0.237047,-10.324128,-2.735908,-4.577869,2.623636,-0.029428,-1.223504,36.935873,-20.217437,18.967405,4.63582E+18,0.577764,-0.223983,0.735867,0.272985,-8.91066,3.969882,1.875475,1.201879,-1.602271,0.505374,44.124682,4.150517,-2.281053,4.63583E+18,0.647285,0.549739,0.38775,-0.358412,0
-14.146886,0.247832,-3.578517,2.692438,-0.075534,-1.081842,42.482221,16.040765,6.114636,4.63583E+18,0.754481,0.089702,0.601317,-0.247245,-6.504932,2.430129,-4.458746,2.478979,0.016473,-1.114816,37.045546,-19.387433,19.398443,4.63582E+18,0.581218,-0.221442,0.737669,0.262667,-9.352057,3.859385,1.580766,1.379883,-1.623859,0.390661,44.184604,4.113341,-2.854766,4.63583E+18,0.647281,0.551668,0.380333,-0.363368,0
-14.770737,0.15547,-4.380046,2.662781,0.065259,-1.079666,42.120143,16.611864,5.910455,4.63583E+18,0.752168,0.095413,0.599124,-0.257275,-5.280117,5.898993,-3.830704,2.26871,0.073563,-1.020417,37.131167,-18.64342,19.699084,4.63582E+18,0.584132,-0.219156,0.739379,0.253141,-10.260628,4.029176,1.754418,1.481078,-1.662342,0.277363,44.12903,4.040101,-3.471847,4.63583E+18,0.64688,0.553585,0.372885,-0.368846,0
-15.722937,0.143839,-4.017093,2.690076,0.007859,-1.076552,42.020533,17.176,5.492105,4.63583E+18,0.749882,0.101141,0.596634,-0.267349,-6.731728,8.476508,-2.583927,1.789726,0.147855,-1.044147,37.298242,-18.09424,19.878191,4.63582E+18,0.58635,-0.218167,0.740675,0.244942,-11.468276,3.978149,2.188971,1.564935,-1.726242,0.164762,44.025175,3.960661,-4.230171,4.63583E+18,0.646153,0.555402,0.36536,-0.374869,0
-16.277375,0.21339,-3.442318,2.824881,-0.286972,-1.06559,42.017883,17.54638,5.001172,4.63583E+18,0.74817,0.106973,0.592977,-0.277807,-9.071781,10.368419,-0.325795,1.257254,0.176259,-1.112726,37.526067,-17.540509,20.130858,4.63582E+18,0.588031,-0.218706,0.74139,0.238177,-12.696407,3.702313,2.70165,1.649314,-1.81113,0.066626,43.884343,3.838048,-5.078442,4.63583E+18,0.645823,0.556468,0.358656,-0.380292,0
-16.054736,0.451759,-3.3682,2.932187,-0.552771,-1.043573,41.81718,17.930674,4.436417,4.63583E+18,0.746967,0.112868,0.588259,-0.288534,-11.275288,10.802138,2.084454,0.559076,0.249346,-1.179549,37.749889,-16.905917,20.501163,4.63582E+18,0.588893,-0.221225,0.7415,0.233329,-13.698621,3.181087,3.053292,1.731525,-1.903112,0.001837,43.750612,3.685555,-5.827796,4.63583E+18,0.644684,0.558026,0.350815,-0.387193,0
-15.565925,0.608273,-3.362338,3.014237,-0.697618,-1.010646,41.618184,18.515048,3.764512,4.63583E+18,0.745987,0.118904,0.582871,-0.299377,-12.967989,7.361628,1.888965,-0.251994,0.425732,-1.3467,37.899893,-16.463381,20.814012,4.63582E+18,0.588604,-0.226415,0.741076,0.230407,-15.175289,2.212558,3.316743,1.823017,-2.006228,-0.036585,43.690116,3.570035,-6.44364,4.63583E+18,0.643261,0.559615,0.342473,-0.394662,0
-15.253852,0.759041,-3.137199,3.120892,-0.800079,-0.970374,41.501949,19.02568,2.925205,4.63583E+18,0.745111,0.125218,0.5769,-0.310348,-14.091144,1.70521,0.555469,-0.641426,0.500578,-1.508295,37.863126,-16.30061,20.902949,4.63582E+18,0.587847,-0.233121,0.740277,0.22821,-16.442361,1.140884,3.596778,1.946687,-2.083248,-0.071816,43.628544,3.52794,-7.159793,4.63583E+18,0.641516,0.561282,0.333755,-0.402527,0
-15.064394,1.252303,-3.190971,3.236026,-0.905045,-0.956315,41.404287,19.243706,1.912403,4.63583E+18,0.744293,0.131762,0.57033,-0.321544,-12.863613,-2.749637,-0.764991,-0.506539,0.463761,-1.521334,37.826801,-15.99048,20.801187,4.63582E+18,0.587318,-0.23949,0.739467,0.22559,-17.082412,0.21282,3.481934,2.116886,-2.114499,-0.094616,43.481353,3.490786,-8.107145,4.63583E+18,0.639555,0.563019,0.32504,-0.410278,0
-14.87441,1.790365,-3.26098,3.322933,-1.094623,-0.949071,41.306646,19.590853,1.006111,4.63583E+18,0.743724,0.138308,0.562925,-0.332957,-8.83961,-2.880036,-2.095803,-0.272591,0.427012,-1.444506,37.945152,-15.433206,20.789581,4.63582E+18,0.587038,-0.245004,0.73883,0.222463,-17.507367,-0.671242,2.955952,2.267927,-2.127843,-0.087402,43.211727,3.330849,-9.144775,4.63583E+18,0.636993,0.565204,0.315711,-0.418463,0
-14.440205,1.933022,-2.726901,3.4003,-1.297139,-0.908985,41.208991,20.108347,0.206322,4.63583E+18,0.743465,0.144874,0.55463,-0.344466,-4.949887,-1.355596,-1.722753,-0.007232,0.484713,-1.276462,38.177073,-15.018697,20.97677,4.63582E+18,0.586673,-0.249397,0.738725,0.218863,-17.590165,-1.03091,2.531191,2.302123,-2.131992,-0.067186,42.913281,3.092907,-10.033743,4.63583E+18,0.634287,0.567406,0.306208,-0.426576,0
-13.681693,1.730748,-1.868629,3.412824,-1.230992,-0.840619,40.920214,20.285002,-0.918963,4.63583E+18,0.742963,0.151696,0.546346,-0.355668,-4.850215,-2.061973,-0.326513,0.291805,0.504738,-1.142793,38.302595,-14.717246,21.167996,4.63582E+18,0.586417,-0.252657,0.739058,0.214643,-17.665855,-1.087854,2.411049,2.226821,-2.110386,-0.063608,42.774568,2.941461,-10.834068,4.63583E+18,0.631637,0.569358,0.296834,-0.434461,0
-13.01404,1.309292,-1.079952,3.399958,-0.780857,-0.754375,40.587964,20.291355,-1.996365,4.63583E+18,0.741401,0.159306,0.539293,-0.366208,-6.827735,-3.104914,1.36277,0.558016,0.450363,-1.068321,38.23761,-14.277656,21.3511,4.63582E+18,0.586526,-0.254982,0.739554,0.209835,-17.860486,-1.698022,2.249892,2.156375,-2.064345,-0.072169,42.66966,2.824871,-11.73198,4.63583E+18,0.628984,0.571109,0.28768,-0.442101,0
-12.802363,0.912302,-1.183119,3.40758,-0.196151,-0.633713,40.439925,20.5276,-2.756875,4.63583E+18,0.738545,0.168067,0.533839,-0.375927,-8.821543,-2.695275,2.747272,0.654104,0.461575,-1.015151,38.270479,-13.813948,21.566929,4.63582E+18,0.586639,-0.25691,0.740196,0.204843,-18.130783,-3.28073,1.901741,2.235892,-2.028275,-0.067698,42.406078,2.70333,-12.579028,4.63583E+18,0.626014,0.573053,0.278416,-0.449669,0
-13.115606,0.877883,-1.859381,3.386348,0.083443,-0.52119,40.533382,20.851897,-3.220705,4.63583E+18,0.735105,0.177416,0.529089,-0.384978,-10.557469,-1.045861,2.193087,0.412672,0.555684,-1.067257,38.416969,-13.423446,21.880433,4.63582E+18,0.586231,-0.259662,0.740786,0.200362,-18.76895,-5.583887,1.479857,2.518128,-2.045336,-0.053332,42.150963,2.580752,-13.379124,4.63583E+18,0.622313,0.575622,0.268494,-0.457489,0
-13.896349,1.07268,-1.711124,3.361227,-0.099084,-0.447595,40.498317,20.913934,-3.671285,4.63583E+18,0.732056,0.186521,0.52366,-0.393807,-11.496206,1.028849,-0.056744,0.094361,0.692414,-1.143698,38.48572,-13.089835,22.226118,4.63582E+18,0.585103,-0.263534,0.741339,0.196523,-19.753102,-8.167382,1.009958,3.013262,-2.111215,-0.032903,41.980061,2.304457,-14.178109,4.63583E+18,0.617413,0.579254,0.25735,-0.465872,0
-14.221089,1.428785,-0.448536,3.345254,-0.490638,-0.445371,40.221812,20.844409,-4.431261,4.63583E+18,0.72973,0.194902,0.516956,-0.40282,-11.681729,2.912602,-1.845208,-0.09359,0.836261,-1.182869,38.396184,-12.768377,22.535496,4.63582E+18,0.583337,-0.268094,0.74202,0.193004,-20.412477,-10.549432,0.162408,3.655612,-2.191336,0.014332,41.765847,1.870523,-14.928733,4.63583E+18,0.610974,0.584277,0.244567,-0.474887,0
-13.694558,2.258935,0.651805,3.307959,-0.893961,-0.507977,39.949515,20.873601,-5.436048,4.63583E+18,0.728049,0.202317,0.509032,-0.412188,-10.947773,4.547323,-2.543041,-0.272692,0.998328,-1.233111,38.298524,-12.410146,22.840367,4.63582E+18,0.580885,-0.273363,0.742865,0.189728,-20.260584,-12.401802,-1.844128,4.357202,-2.294168,0.113611,41.391936,1.351147,-15.766159,4.63583E+18,0.60291,0.590771,0.2298,-0.484438,0
-12.391759,3.602594,1.716862,3.203158,-1.144378,-0.59634,39.874691,20.934628,-6.55258,4.63583E+18,0.726684,0.208754,0.500498,-0.421728,-10.300128,4.10762,-2.666226,-0.353352,1.126917,-1.260692,38.204959,-12.023739,23.056187,4.63582E+18,0.577938,-0.279002,0.74389,0.186479,-20.144237,-13.851956,-4.243932,5.14035,-2.472218,0.375452,41.027399,0.678224,-16.693922,4.63583E+18,0.593326,0.598836,0.212245,-0.49428,0
-10.659507,4.520318,4.140468,3.159957,-0.974293,-0.666466,39.735659,20.938353,-7.544537,4.63583E+18,0.724732,0.215169,0.492514,-0.431157,-11.094082,-0.154986,-3.309496,-0.129632,1.10217,-1.201533,38.144048,-11.722785,23.402353,4.63582E+18,0.575253,-0.283885,0.745061,0.182698,-20.690872,-13.865448,-5.304868,5.891677,-2.740279,0.921263,40.907009,-0.294806,-17.57213,4.63583E+18,0.582844,0.608298,0.190977,-0.503779,0
-9.1107,4.592128,5.894854,3.181217,-0.587555,-0.627758,39.631614,20.868836,-8.343891,4.63583E+18,0.721896,0.222381,0.48553,-0.440083,-11.588035,-4.00964,-4.041588,0.319098,0.986375,-1.122153,38.099131,-11.392775,23.841645,4.63582E+18,0.573372,-0.287345,0.746357,0.177844,-22.090581,-11.128928,-4.987862,6.552705,-3.073914,1.717198,40.554379,-1.708086,-18.439304,4.63583E+18,0.572133,0.618785,0.165332,-0.512283,0
-7.366335,4.374563,5.392242,3.109034,-0.508388,-0.589719,39.603472,20.907546,-9.024277,4.63583E+18,0.718905,0.229557,0.478792,-0.448595,-11.140871,-3.718916,-4.525315,0.8097,0.850786,-1.023761,37.993356,-10.839145,24.14653,4.63582E+18,0.572404,-0.289215,0.74778,0.171854,-25.107342,-5.179141,-4.874065,7.188021,-3.379178,2.617806,39.778132,-3.411598,-19.429263,4.63583E+18,0.561301,0.630088,0.135101,-0.519305,0
-5.814879,3.691121,5.192381,3.001714,-0.555095,-0.582373,39.467116,20.84709,-9.683459,4.63583E+18,0.715999,0.236298,0.472025,-0.456838,-10.839632,-1.324135,-4.626226,1.225221,0.774751,-0.892481,37.895704,-10.26583,24.362324,4.63582E+18,0.572053,-0.289616,0.749443,0.164966,-28.838789,0.025216,-7.762394,7.75394,-3.552793,3.582451,38.936038,-5.553037,-20.503449,4.63583E+18,0.550417,0.642039,0.100528,-0.524138,0
-4.3854,2.207227,6.040854,2.975489,-0.420935,-0.611391,39.172031,20.82583,-10.342721,4.63583E+18,0.712682,0.243119,0.465658,-0.464909,-10.559246,0.597715,-4.529263,1.374912,0.793382,-0.846391,37.798048,-9.887522,24.671689,4.63582E+18,0.571762,-0.289514,0.751268,0.157689,-29.844017,1.205606,-14.081599,8.426784,-3.478404,4.584669,38.112169,-8.31485,-21.330236,4.63583E+18,0.53899,0.655067,0.061812,-0.525886,0
-2.787981,-0.295951,6.1027,3.013232,-0.179704,-0.666322,38.842455,20.873582,-11.001876,4.63583E+18,0.708635,0.250372,0.459913,-0.472896,-10.138872,2.662808,-4.344491,1.220906,0.935009,-0.892331,37.671796,-9.476234,25.009282,4.63582E+18,0.569295,-0.297565,0.750277,0.156343,-29.330481,-1.342948,-19.085851,9.554431,-3.199147,5.460125,37.195312,-11.429364,-21.61931,4.63583E+18,0.525236,0.670134,0.018743,-0.524115,0
-1.560329,-2.38076,5.434197,3.040637,-0.040353,-0.698559,38.62748,20.886868,-11.670546,4.63583E+18,0.704109,0.257877,0.454483,-0.480807,-9.734532,2.711141,-3.43332,1.056769,1.166605,-0.93609,37.488687,-8.873886,25.351339,4.63582E+18,0.567512,-0.298737,0.752579,0.149369,-29.746641,-6.421047,-20.794202,10.559398,-2.863486,5.971085,36.033738,-14.874394,-21.322466,4.63583E+18,0.508465,0.686515,-0.02725,-0.519055,0
-0.544876,-3.52127,4.755258,3.080384,-0.063884,-0.749867,38.6449,20.81047,-12.332449,4.63583E+18,0.699363,0.265309,0.44888,-0.488886,-10.584964,0.52193,-3.268893,1.140381,1.267573,-0.957431,37.276976,-8.243286,25.84382,4.63582E+18,0.565531,-0.299626,0.755177,0.1418,-27.9028,-11.221599,-19.373765,10.702953,-2.360001,6.01899,34.684086,-18.481556,-20.686953,4.63583E+18,0.49007,0.70244,-0.072547,-0.511025,0
-0.157721,-4.028821,3.840942,3.165349,-0.027611,-0.81446,38.536713,20.722366,-12.838823,4.63583E+18,0.694197,0.272893,0.443201,-0.497185,-10.843051,-1.810128,-5.209418,1.468686,1.288552,-0.944877,36.951229,-7.640964,26.462581,4.63582E+18,0.563806,-0.29988,0.757903,0.133334,-23.089104,-11.023732,-18.543306,10.11255,-1.621611,5.721241,33.378826,-21.885865,-19.768075,4.63583E+18,0.47174,0.717042,-0.114021,-0.500311,0
-1.026525,-4.104346,2.116932,3.213856,0.07969,-0.878177,38.36847,20.636916,-13.302691,4.63583E+18,0.688515,0.28067,0.43772,-0.505542,-10.356371,-3.311428,-8.229652,2.022759,1.256718,-0.880773,36.597568,-6.981817,27.117272,4.63582E+18,0.562784,-0.298583,0.760868,0.123296,-20.324492,-8.763413,-21.07998,8.673629,-1.013106,5.072072,32.238592,-24.854413,-18.286541,4.63583E+18,0.455661,0.728915,-0.149123,-0.488691,0
-3.0769,-3.920266,0.72288,3.188949,0.073998,-0.834254,38.264408,20.484625,-13.995738,4.63583E+18,0.682833,0.28839,0.43214,-0.513639,-10.555235,-2.656451,-9.085882,2.596183,1.16207,-0.812083,36.467553,-6.269588,27.511744,4.63582E+18,0.562666,-0.295636,0.763891,0.111702,-21.031412,-12.218456,-21.493552,6.566877,-0.892903,4.277807,31.244662,-27.193274,-16.733597,4.63583E+18,0.443784,0.736498,-0.177083,-0.47882,0
-5.056613,-3.335094,0.909948,3.16651,0.014198,-0.72046,38.112131,20.371021,-14.742978,4.63583E+18,0.677403,0.296068,0.426221,-0.521348,-10.351438,-1.813503,-8.919897,2.996707,1.12799,-0.784764,36.386005,-5.47631,27.849608,4.63582E+18,0.563124,-0.290941,0.767172,0.098441,-20.676815,-14.1832,-18.481592,4.298006,-1.038683,3.531993,30.21173,-28.90469,-15.817153,4.63583E+18,0.436908,0.739551,-0.198351,-0.472052,0
-6.833819,-2.489364,1.285793,3.056719,0.10189,-0.524524,37.941264,20.282928,-15.344299,4.63583E+18,0.67226,0.303922,0.420472,-0.528111,-9.903809,-0.682882,-8.914754,3.150035,1.133984,-0.83181,36.1662,-4.650032,28.333933,4.63582E+18,0.56358,-0.286477,0.770128,0.084918,-19.153531,-13.988188,-15.710339,2.293637,-1.270016,2.751535,29.144553,-30.023418,-15.434703,4.63583E+18,0.434304,0.738852,-0.213614,-0.468878,0
-8.91343,-1.750976,1.164139,3.01711,0.208814,-0.284551,37.903988,19.939789,-15.753104,4.63583E+18,0.667398,0.312271,0.414736,-0.53391,-9.113421,0.082213,-8.0231,3.191259,1.133726,-0.908353,35.860904,-3.551036,28.883266,4.63582E+18,0.563989,-0.282085,0.772849,0.071055,-18.478919,-18.500685,-14.684368,1.002925,-1.559651,1.999663,28.335341,-30.705359,-15.400697,4.63583E+18,0.433865,0.735784,-0.224524,-0.469013,0
-11.057515,-0.425383,0.242462,2.975068,0.021967,-0.125509,37.961244,19.591577,-16.042947,4.63583E+18,0.663163,0.320313,0.408302,-0.539355,-8.481014,0.340964,-6.68818,3.172722,1.169957,-0.988843,35.543701,-2.314306,29.334635,4.63582E+18,0.564161,-0.277882,0.775409,0.056959,-17.507867,-22.713082,-14.451614,0.389193,-1.760164,1.283904,27.904498,-31.10609,-15.714018,4.63583E+18,0.433675,0.731807,-0.232381,-0.471576,0
-12.239489,1.314655,-0.486676,2.901486,-0.189954,-0.127028,37.97723,19.38604,-16.540527,4.63583E+18,0.659284,0.327624,0.401389,-0.544881,-9.265774,-0.599097,-5.011455,3.169602,1.125035,-1.076752,35.348399,-1.240141,29.595051,4.63582E+18,0.564351,-0.274143,0.777505,0.042885,-15.85754,-23.224405,-14.467867,0.06203,-1.810271,0.518063,27.536679,-31.232722,-16.17787,4.63583E+18,0.432899,0.72783,-0.237336,-0.475956,0
-11.914497,2.567876,-1.042455,2.791316,-0.511741,-0.268417,37.967688,19.024284,-17.235665,4.63583E+18,0.655677,0.333617,0.393976,-0.550972,-9.493183,-1.273553,-3.176587,3.200148,1.035673,-1.157611,35.095961,-0.14549,29.924812,4.63582E+18,0.564757,-0.270519,0.779134,0.028615,-13.766829,-21.456057,-14.160703,-0.38782,-1.799927,-0.315921,27.172083,-31.356232,-16.592256,4.63583E+18,0.431818,0.723843,-0.23884,-0.482225,0
-10.355622,2.826788,-2.428878,2.612633,-0.886037,-0.443263,37.77417,18.542434,-17.90131,4.63583E+18,0.652441,0.33793,0.38614,-0.557691,-9.39967,-0.833229,-1.630513,3.130609,0.95165,-1.27477,34.786865,0.969356,30.376468,4.63582E+18,0.565249,-0.267368,0.780257,0.014382,-12.251602,-18.144293,-12.329984,-0.961817,-1.818668,-1.171992,27.156726,-31.390299,-17.212004,4.63583E+18,0.430698,0.719579,-0.236629,-0.490624,0
-7.966824,2.975257,-3.871152,2.089848,-0.898671,-0.556883,37.396425,18.36638,-18.405164,4.63583E+18,0.649623,0.340569,0.379599,-0.563833,-9.203993,-0.134393,-0.45933,2.961471,0.870125,-1.416124,34.616034,2.043522,30.734302,4.63582E+18,0.565709,-0.264747,0.78095,0.000261,-12.26082,-14.988028,-10.492039,-1.527388,-1.798901,-2.045962,27.271498,-30.792634,-18.08486,4.63583E+18,0.429452,0.715106,-0.230579,-0.501027,0
-6.407914,3.101112,-2.791245,1.754548,-1.058607,-0.642162,37.048171,18.404983,-18.945387,4.63583E+18,0.647276,0.34176,0.373501,-0.569852,-8.328303,-0.313509,0.053103,2.761713,0.794292,-1.563159,34.522509,3.117773,30.872579,4.63582E+18,0.566081,-0.263295,0.781058,-0.013277,-13.253184,-13.601938,-9.608236,-1.939293,-1.75533,-2.909102,27.407188,-29.48908,-18.920466,4.63583E+18,0.427583,0.710658,-0.220976,-0.513135,0
-5.498376,2.609853,-0.200767,1.786853,-1.038607,-0.641748,36.842643,18.34464,-19.726329,4.63583E+18,0.644801,0.343058,0.367349,-0.575846,-7.043197,-0.675907,0.435837,2.548089,0.710597,-1.70202,34.351317,4.27354,30.974366,4.63582E+18,0.566375,-0.262503,0.780774,-0.026536,-14.040552,-13.602182,-8.041995,-1.935947,-1.711316,-3.675736,28.016078,-28.180154,-19.825225,4.63583E+18,0.423978,0.706794,-0.20897,-0.526323,0
-4.559132,2.351401,0.357805,1.637929,-0.216717,-0.549791,36.79578,18.256523,-20.501829,4.63583E+18,0.641458,0.346044,0.363607,-0.580151,-6.388127,-1.518639,1.066543,2.322709,0.598442,-1.845493,33.85073,5.620373,31.096357,4.63582E+18,0.566672,-0.262734,0.779945,-0.039233,-14.209573,-13.830833,-5.722729,-1.523351,-1.611493,-4.323907,28.86914,-27.173651,-20.683844,4.63583E+18,0.417666,0.704171,-0.195711,-0.539811,0
-5.1949,2.309867,-1.480343,1.452504,0.318006,-0.47127,36.602312,18.17108,-20.886555,4.63583E+18,0.637732,0.349931,0.361611,-0.583168,-5.794135,-2.739168,1.371025,2.072395,0.4756,-1.978286,33.346384,6.832608,31.092186,4.63582E+18,0.566992,-0.264152,0.778542,-0.051156,-14.895392,-13.305728,-3.576397,-0.811129,-1.46018,-4.876138,29.329451,-25.863108,-21.243522,4.63583E+18,0.407968,0.703268,-0.182093,-0.553008,0
-6.720159,2.412136,-3.125035,1.193025,-0.283822,-0.405181,36.42495,18.085631,-20.871586,4.63583E+18,0.635428,0.351752,0.358537,-0.586475,-5.525987,-3.352871,0.890789,1.808213,0.351349,-2.105763,33.191974,7.577073,30.982324,4.63582E+18,0.567297,-0.266342,0.776738,-0.062565,-16.201272,-11.841278,-2.38383,0.079017,-1.281082,-5.353719,29.833991,-24.246018,-21.621485,4.63583E+18,0.394499,0.704304,-0.168739,-0.565556,0
-7.299681,2.10763,-3.232639,1.00514,-1.030586,-0.298299,36.266266,18.066957,-21.136402,4.63583E+18,0.634756,0.351398,0.353776,-0.590293,-5.782445,-3.133069,0.141904,1.550125,0.237435,-2.241743,33.17556,8.317827,30.900995,4.63582E+18,0.567592,-0.269846,0.774387,-0.073129,-17.2666,-9.4922,-2.383033,0.976952,-1.068845,-5.784483,30.892804,-22.727225,-21.969431,4.63583E+18,0.377308,0.707215,-0.155798,-0.577246,0
-6.264163,2.052375,-3.536379,0.857207,-0.623959,-0.160541,36.098037,18.057418,-21.445386,4.63583E+18,0.634022,0.351846,0.350243,-0.592917,-6.193374,-3.060175,-1.005594,1.351513,0.142746,-2.342832,32.976182,9.449028,30.937692,4.63582E+18,0.567865,-0.274138,0.77166,-0.083176,-17.867723,-7.27138,-3.687858,1.761394,-0.837598,-6.177247,32.106384,-21.008927,-22.082438,4.63582E+18,0.356762,0.711693,-0.143123,-0.587987,0
-5.728294,1.481217,-2.827053,0.703827,0.163341,-0.002387,35.879441,17.930752,-21.4236,4.63583E+18,0.632745,0.354058,0.348932,-0.593736,-6.706246,-3.642203,-2.421799,1.265395,0.070114,-2.401212,32.744211,10.637147,31.035279,4.63582E+18,0.568181,-0.278809,0.768628,-0.092994,-18.400933,-5.870848,-5.904029,2.340526,-0.609594,-6.529524,33.013043,-19.309388,-21.855319,4.63582E+18,0.333496,0.717242,-0.130377,-0.597784,0
-6.90421,0.76518,-1.903883,0.680578,0.545817,0.197529,35.952727,17.581291,-21.533114,4.63583E+18,0.631434,0.357443,0.348388,-0.593424,-7.161606,-4.366375,-3.927145,1.289644,-0.000027,-2.421842,32.467527,11.654326,30.982351,4.63582E+18,0.568668,-0.283478,0.765297,-0.102845,-19.5723,-3.99422,-7.698881,2.56076,-0.417733,-6.85463,33.820184,-18.115989,-21.667843,4.63582E+18,0.308572,0.723115,-0.116833,-0.606826,0
-8.500561,0.553147,-1.794871,0.619358,0.602669,0.322815,36.302151,17.168947,-21.780299,4.63583E+18,0.630433,0.360983,0.347953,-0.5926,-6.163906,-4.911625,-4.830164,1.383994,-0.041294,-2.38301,32.198975,12.561711,30.83583,4.63582E+18,0.569341,-0.28778,0.761774,-0.112843,-21.016636,-1.289177,-8.584468,2.383708,-0.241304,-7.166472,35.019711,-16.824244,-21.588127,4.63582E+18,0.283185,0.728663,-0.101569,-0.615256,0
-10.223503,0.365484,-2.124044,0.517096,0.725922,0.352521,36.457018,17.020944,-21.543439,4.63583E+18,0.62947,0.364597,0.348045,-0.591356,-3.85692,-5.746114,-5.086466,1.462667,0.013216,-2.285794,31.930401,13.530259,30.616088,4.63582E+18,0.569908,-0.291525,0.758361,-0.12291,-21.730214,0.962535,-8.980691,1.990947,-0.034443,-7.473005,36.280736,-15.064602,-21.422661,4.63582E+18,0.258006,0.733668,-0.084026,-0.62298,0
-12.057779,0.508122,-2.352587,0.359974,1.150206,0.217777,36.542476,17.004913,-21.164984,4.63583E+18,0.627785,0.368641,0.349834,-0.589581,-3.227258,-7.288343,-4.960094,1.533538,0.106472,-2.148709,31.633352,14.575916,30.400446,4.63582E+18,0.570266,-0.294583,0.755206,-0.132974,-21.993761,2.300851,-8.642867,1.51269,0.184488,-7.766058,37.188291,-13.043001,-21.104111,4.63582E+18,0.233331,0.738049,-0.064029,-0.629873,0
-14.123163,1.076528,-2.316357,0.207424,1.615665,-0.014148,36.875886,17.004913,-20.939134,4.63583E+18,0.625065,0.373078,0.353559,-0.587455,-4.907919,-8.565556,-4.190925,1.637134,0.147769,-1.969612,31.25083,15.536208,30.221428,4.63582E+18,0.570651,-0.296764,0.752227,-0.142981,-22.242759,2.851226,-7.277668,1.092834,0.422926,-8.003718,37.969811,-10.752427,-20.843488,4.63582E+18,0.209127,0.741891,-0.041903,-0.635694,0
-15.951283,1.983502,-3.267513,0.128457,1.29831,-0.216862,37.154706,17.014448,-20.527228,4.63583E+18,0.622414,0.37622,0.356952,-0.586212,-7.203088,-8.606202,-3.308057,1.689458,0.179457,-1.79089,30.896894,16.415088,30.099359,4.63582E+18,0.571046,-0.298209,0.74943,-0.152751,-21.802569,1.978897,-5.821929,0.919612,0.729481,-8.128944,38.81868,-8.304919,-20.727453,4.63582E+18,0.184937,0.74556,-0.018621,-0.639994,0
-17.058167,3.131765,-4.045503,-0.011456,0.606529,-0.322734,37.150956,17.01712,-20.1274,4.63583E+18,0.620741,0.377145,0.359053,-0.586109,-10.41335,-8.528895,-2.771037,1.704053,0.200811,-1.632111,30.738229,17.245091,29.948805,4.63582E+18,0.571435,-0.299079,0.746797,-0.162199,-21.085803,0.2902,-5.021002,1.087768,1.106802,-8.14826,39.549223,-5.740231,-20.413969,4.63582E+18,0.159982,0.749484,0.00458,-0.642385,0
-17.318474,3.908505,-4.349221,-0.205505,0.237691,-0.355756,37.010975,17.1506,-20.05409,4.63583E+18,0.61984,0.376615,0.360723,-0.586377,-13.765882,-8.150476,-2.453688,1.690522,0.205796,-1.492202,30.522577,18.071025,29.70875,4.63582E+18,0.57169,-0.298894,0.744539,-0.17174,-20.794398,-0.284835,-5.000971,1.466277,1.506781,-8.12416,40.048848,-3.060798,-19.814711,4.63582E+18,0.133706,0.753825,0.026949,-0.642763,0
-17.05803,4.138663,-4.318394,-0.444318,0.086851,-0.310747,37.157367,17.502642,-20.075831,4.63583E+18,0.619648,0.375166,0.362515,-0.586404,-16.495962,-7.202478,-2.20144,1.621816,0.237124,-1.406046,30.095369,18.864417,29.464617,4.63582E+18,0.571911,-0.29918,0.7422,-0.180411,-20.382565,0.48284,-5.398204,1.821307,1.897637,-8.082367,40.476108,-0.510994,-19.112715,4.63582E+18,0.106213,0.758484,0.048417,-0.641153,0
-16.856588,3.876777,-3.696516,-0.689814,-0.001667,-0.231058,37.398796,17.7815,-20.014458,4.63583E+18,0.620163,0.372985,0.364551,-0.585989,-19.169233,-6.408974,-1.583089,1.534228,0.284829,-1.359044,29.69253,19.604972,29.375086,4.63582E+18,0.571866,-0.299471,0.740042,-0.188744,-20.081456,1.944822,-5.942589,1.998846,2.242727,-8.034905,40.779875,1.992348,-18.410903,4.63582E+18,0.078077,0.763194,0.069347,-0.637676,0
-16.278473,3.262705,-3.022739,-0.917749,0.060009,-0.172527,37.271202,17.711098,-19.6907,4.63583E+18,0.621074,0.370449,0.367207,-0.584973,-22.180589,-5.786371,-0.415137,1.453045,0.363874,-1.345154,29.395442,20.341543,29.289646,4.63582E+18,0.571445,-0.299828,0.738101,-0.196879,-20.512933,3.869256,-6.441381,1.932827,2.484433,-8.012693,40.8457,4.499776,-17.801569,4.63582E+18,0.050035,0.767554,0.090369,-0.632606,0
-15.801956,2.331418,-2.690345,-1.139288,0.37244,-0.13127,37.220371,17.619139,-19.376367,4.63583E+18,0.621937,0.368157,0.371141,-0.583017,-25.651366,-4.663448,0.797369,1.336983,0.461786,-1.360815,29.216406,20.976338,29.11467,4.63582E+18,0.570526,-0.300408,0.736417,-0.204802,-21.133494,5.851778,-6.58555,1.641134,2.619089,-8.010568,40.722796,6.929197,-17.171685,4.63582E+18,0.022809,0.771228,0.112061,-0.626203,0
-15.73952,1.235063,-2.674922,-1.364573,0.514006,-0.081974,37.410984,17.927117,-19.035724,4.63583E+18,0.623027,0.36569,0.375903,-0.58035,-29.382368,-2.730902,2.286508,1.174651,0.561103,-1.414922,29.017059,21.39134,29.037346,4.63582E+18,0.56881,-0.300725,0.735284,-0.213018,-21.338403,8.083688,-6.370199,1.142725,2.693654,-8.019762,40.404027,9.432538,-16.346654,4.63582E+18,-0.002911,0.774065,0.134944,-0.61855,0
-15.471186,0.112058,-2.866695,-1.586836,0.337414,-0.033808,37.407342,18.39932,-18.757972,4.63583E+18,0.624822,0.362279,0.380654,-0.577455,-33.511911,-0.094609,3.035752,1.011926,0.68394,-1.508898,28.675334,21.916149,28.960088,4.63582E+18,0.566502,-0.301998,0.734255,-0.220778,-21.326334,11.251656,-5.825016,0.370215,2.7049,-8.061669,39.884352,11.921742,-15.480527,4.63582E+18,-0.02626,0.775944,0.159779,-0.609665,0
-14.411999,-1.0777,-2.012269,-1.746234,0.28973,0.010688,37.257863,18.76372,-18.492094,4.63583E+18,0.627009,0.358392,0.385579,-0.574233,-39.253343,3.95403,1.465715,0.979813,0.727074,-1.633886,28.109742,22.685228,28.846077,4.63582E+18,0.563852,-0.303644,0.733161,-0.228792,-20.74001,15.122901,-4.820876,-0.777681,2.668547,-8.15816,39.205955,14.610504,-14.514507,4.63582E+18,-0.046096,0.776806,0.187641,-0.599366,0
-13.126169,-2.533857,-0.862202,-1.796574,0.515878,0.134516,37.544337,18.96942,-18.071102,4.63583E+18,0.629168,0.355092,0.391008,-0.570237,-45.039951,9.446374,-2.265129,1.335292,0.574752,-1.726815,27.381475,23.474602,28.91525,4.63582E+18,0.562085,-0.305194,0.731057,-0.23764,-19.463211,18.281107,-3.47138,-2.221575,2.619852,-8.283083,38.412167,17.607394,-13.25568,4.63582E+18,-0.061483,0.776684,0.219269,-0.587285,0
-12.489609,-4.155176,0.056671,-1.567667,0.518902,0.411769,37.826009,19.073631,-17.60719,4.63583E+18,0.631606,0.352831,0.39547,-0.565851,-46.930108,16.359666,-6.427994,2.194004,0.358573,-1.787358,26.705839,24.211112,28.85433,4.63582E+18,0.561941,-0.305088,0.727439,-0.24895,-19.638734,20.353462,-2.43792,-3.77964,2.487137,-8.363817,37.6253,20.560619,-11.808723,4.63582E+18,-0.071828,0.775413,0.254678,-0.573337,0
