Accelerometer-X,Accelerometer-Y,Accelerometer-Z,Gyroscope-X,Gyroscope-Y,Gyroscope-Z,Magnetometer-X,Magnetometer-Y,Magnetometer-Z,Barometer-pressure,Orientation-S,Orientation-X,Orientation-Y,Orientation-Z,Accelerometer-X,Accelerometer-Y,Accelerometer-Z,Gyroscope-X,Gyroscope-Y,Gyroscope-Z,Magnetometer-X,Magnetometer-Y,Magnetometer-Z,Barometer-pressure,Orientation-S,Orientation-X,Orientation-Y,Orientation-Z,Accelerometer-X,Accelerometer-Y,Accelerometer-Z,Gyroscope-X,Gyroscope-Y,Gyroscope-Z,Magnetometer-X,Magnetometer-Y,Magnetometer-Z,Barometer-pressure,Orientation-S,Orientation-X,Orientation-Y,Orientation-Z,jump
-9.564747,0.837266,-2.007059,0.00309,-0.00564,-0.014442,37.45997,-8.143643,26.758629,4.63583E+18,-0.680479,0.041618,-0.723767,-0.106664,-9.509567,-1.860338,-1.015063,0,0.013724,0.008545,42.267768,-9.228797,13.562425,4.63583E+18,-0.542235,0.517681,-0.550916,-0.366715,-9.546189,-1.684622,1.235883,-0.002222,-0.002393,-0.009442,40.02174,21.772651,5.182789,4.63583E+18,0.630677,0.226408,0.650782,-0.357028,0
-9.51673,0.835148,-2.009177,0.00836,0.006621,-0.01024,37.336595,-8.128821,26.839344,4.63583E+18,-0.680461,0.041566,-0.723807,-0.106532,-9.520851,-1.901586,-1.00193,0,0.012899,0.01052,42.195247,-9.386778,13.2916,4.63583E+18,-0.54212,0.517786,-0.550954,-0.366679,-9.547168,-1.684622,1.270549,-0.003119,-0.005426,-0.007477,40.082261,21.857123,5.254541,4.63583E+18,0.630701,0.226334,0.650775,-0.357045,0
-9.519655,0.842311,-1.991927,0.009613,0.014698,-0.007407,37.293617,-8.214267,26.999341,4.63583E+18,-0.680417,0.04151,-0.72387,-0.106408,-9.544341,-1.825373,-1.034856,0,0.01183,0.013643,42.358034,-9.625363,13.1002,4.63583E+18,-0.542003,0.517882,-0.550996,-0.366652,-9.561332,-1.687557,1.278842,-0.001794,-0.006323,-0.007391,39.990942,21.930366,5.175939,4.63583E+18,0.630726,0.226262,0.650763,-0.357067,0
-9.559198,0.832224,-1.972556,0.010055,0.007522,-0.002507,37.323877,-8.299714,26.983121,4.63583E+18,-0.680383,0.041493,-0.72391,-0.106352,-9.568756,-1.818903,-1.037629,-0.002962,0.012737,0.010924,42.439595,-9.497169,13.43611,4.63583E+18,-0.541882,0.517993,-0.55103,-0.366625,-9.593065,-1.717335,1.248086,0.002136,-0.00517,-0.006238,39.857666,21.991877,5.175939,4.63583E+18,0.630746,0.226206,0.650748,-0.357096,0
-9.595019,0.827981,-1.970434,0.012005,-0.003971,0.001324,37.402159,-8.380118,26.828156,4.63583E+18,-0.680383,0.041458,-0.72392,-0.106307,-9.559321,-1.830186,-0.992497,-0.000243,0.01578,0.015618,42.28718,-9.406171,13.645295,4.63583E+18,-0.541752,0.518091,-0.551085,-0.366595,-9.567673,-1.675346,1.277869,0.002478,-0.003204,-0.004273,40.010502,21.911793,5.183756,4.63583E+18,0.630764,0.226159,0.650735,-0.357118,0
-9.595019,0.852393,-1.967517,0.016091,-0.006526,0.004528,37.48256,-8.357573,26.770836,4.63583E+18,-0.680389,0.0414,-0.723924,-0.106258,-9.501989,-1.842392,-0.9888,-0.000987,0.017009,0.015035,42.127574,-9.3997,13.389324,4.63583E+18,-0.54162,0.518194,-0.55114,-0.366563,-9.536913,-1.709036,1.233925,0.006494,-0.002948,-0.004187,40.077387,21.7658,5.281414,4.63583E+18,0.630777,0.226123,0.650717,-0.357151,0
-9.600059,0.876806,-1.943104,0.020109,-0.001695,0.005968,37.490278,-8.163611,26.725475,4.63583E+18,-0.680382,0.041322,-0.723944,-0.106195,-9.519923,-1.877163,-0.977518,-0.00403,0.021039,0.015941,42.11554,-9.478671,13.367106,4.63583E+18,-0.54147,0.518308,-0.551201,-0.366531,-9.565726,-1.703183,1.245155,0.007221,0,-0.00329,39.941648,21.771654,5.363452,4.63583E+18,0.630783,0.226096,0.650704,-0.35718,0
-9.602187,0.89618,-1.92373,0.018276,-0.006801,0.004018,37.440105,-8.055541,26.620651,4.63583E+18,-0.680391,0.041251,-0.723949,-0.106131,-9.521774,-1.834819,-1.010433,-0.001312,0.024324,0.016022,42.262185,-9.564114,13.547589,4.63583E+18,-0.541319,0.51842,-0.551274,-0.366486,-9.510543,-1.636768,1.242228,0.003846,0,-0.004187,39.9431,21.84002,5.272623,4.63583E+18,0.630791,0.226057,0.650697,-0.357203,0
-9.584943,0.903348,-1.906486,0.012123,-0.021126,0.001255,37.409879,-8.135943,26.528043,4.63583E+18,-0.680449,0.041157,-0.723913,-0.10604,-9.521774,-1.864951,-1.013214,-0.003042,0.021606,0.016022,42.274239,-9.491643,13.562425,4.63583E+18,-0.54117,0.518532,-0.551338,-0.366451,-9.527628,-1.647999,1.217314,-0.001154,-0.000171,-0.003119,40.083258,21.857106,5.269196,4.63583E+18,0.630806,0.226008,0.650696,-0.35721,0
-9.55045,0.888232,-1.902225,0.009172,-0.026822,0.000441,37.366863,-8.17896,26.477858,4.63583E+18,-0.68052,0.041109,-0.723857,-0.105992,-9.544332,-1.822618,-0.979378,-0.009126,0.023337,0.018983,42.195286,-9.32725,13.472195,4.63583E+18,-0.541,0.518653,-0.551402,-0.366433,-9.590142,-1.64995,1.314497,-0.002051,-0.001966,-0.002222,40.003187,21.917667,5.360026,4.63583E+18,0.630827,0.225957,0.650691,-0.357213,0
-9.481464,0.851609,-1.92664,0.008986,-0.01185,0.00195,37.366863,-8.214232,26.558479,4.63583E+18,-0.680544,0.041061,-0.723843,-0.105944,-9.523629,-1.830183,-0.999152,-0.012574,0.02646,0.019227,42.109825,-9.235289,13.374526,4.63583E+18,-0.540815,0.518786,-0.551469,-0.366417,-9.537879,-1.673388,1.264699,-0.001068,-0.000341,-0.003204,39.869835,21.839045,5.370283,4.63583E+18,0.630842,0.225908,0.65069,-0.357221,0
-9.43419,0.830103,-1.956089,0.009613,0.014224,0.004086,37.402124,-8.22915,26.673176,4.63583E+18,-0.680487,0.04103,-0.723904,-0.105909,-9.544332,-1.83111,-1.034843,-0.013805,0.026704,0.022187,42.114611,-9.386699,13.367106,4.63583E+18,-0.540623,0.518915,-0.551541,-0.36641,-9.578915,-1.680725,1.210481,-0.000983,-0.004017,-0.003204,40.021713,21.845863,5.351258,4.63583E+18,0.630867,0.225853,0.650678,-0.357232,0
-9.483786,0.830103,-1.972563,0.010054,0.025942,0.005341,37.447276,-8.17896,26.632884,4.63583E+18,-0.680395,0.040998,-0.723998,-0.105872,-9.512354,-1.83111,-1.037629,-0.009938,0.026704,0.022431,42.11554,-9.478651,13.276878,4.63583E+18,-0.540439,0.519034,-0.551619,-0.366395,-9.537873,-1.640656,1.235866,-0.000085,-0.001153,-0.003119,40.083275,21.917687,5.254582,4.63583E+18,0.630884,0.225806,0.650673,-0.357242,0
-9.559165,0.825067,-1.970428,0.013766,0.007074,0.005781,37.409887,-8.249471,26.540262,4.63583E+18,-0.680359,0.040949,-0.72404,-0.105833,-9.520846,-1.864946,-0.981236,-0.009613,0.030651,0.024405,42.11554,-9.485152,13.269447,4.63583E+18,-0.540243,0.519155,-0.551711,-0.366375,-9.579893,-1.697802,1.270543,-0.000813,-0.002136,-0.001966,40.015869,21.820563,5.168157,4.63583E+18,0.630905,0.225758,0.650665,-0.357249,0
-9.600056,0.817896,-1.972563,0.021684,-0.018801,0.005087,37.366863,-8.415338,26.490065,4.63583E+18,-0.680402,0.040875,-0.724012,-0.105777,-9.544329,-1.777515,-1.010424,-0.009613,0.030976,0.025554,42.036601,-9.485152,13.449883,4.63583E+18,-0.540046,0.519273,-0.551806,-0.366357,-9.546189,-1.707091,1.278859,0.002136,-0.001881,-0.000085,40.015869,21.613913,5.07828,4.63583E+18,0.630926,0.225724,0.650652,-0.357258,0
-9.597153,0.81286,-1.960355,0.031992,-0.025314,0.001001,37.397081,-8.377612,26.444737,4.63583E+18,-0.680469,0.04078,-0.723969,-0.10568,-9.523637,-1.815177,-1.092145,-0.008627,0.028016,0.025636,42.03009,-9.564083,13.645179,4.63583E+18,-0.539857,0.519383,-0.551895,-0.366343,-9.545217,-1.686567,1.2471,0.002477,0.000898,-0.000983,40.015869,21.711036,5.10065,4.63583E+18,0.630938,0.225692,0.650646,-0.357268,0
-9.587847,0.810724,-1.963256,0.04525,-0.020735,-0.003018,37.440105,-8.120665,26.41545,4.63583E+18,-0.680533,0.040608,-0.723947,-0.105479,-9.533049,-1.875275,-1.076118,-0.005586,0.029745,0.029582,42.255577,-9.570604,13.660085,4.63583E+18,-0.539665,0.519481,-0.552002,-0.366328,-9.535925,-1.706122,1.26957,0.006579,-0.001153,0.000255,40.015869,21.924496,5.366821,4.63583E+18,0.630953,0.225672,0.650627,-0.357288,0
-9.579916,0.82293,-1.967531,0.058694,-0.028411,-0.00163,37.4099,-8.055505,26.510961,4.63583E+18,-0.680623,0.040389,-0.72391,-0.105242,-9.522708,-1.823569,-1.040429,-0.004354,0.029908,0.029908,42.353156,-9.491684,13.660085,4.63583E+18,-0.539475,0.519575,-0.552111,-0.36631,-9.560341,-1.672414,1.26957,0.00829,-0.002051,0.003034,40.003228,21.917689,5.449903,4.63583E+18,0.630974,0.225662,0.650601,-0.357306,0
-9.548328,0.860308,-1.94815,0.071952,-0.037572,0.004339,37.331624,-8.070477,26.53021,4.63583E+18,-0.680734,0.040147,-0.723851,-0.105018,-9.521774,-1.818903,-1.060178,-0.005259,0.027935,0.030895,42.280771,-9.406232,13.660085,4.63583E+18,-0.539286,0.519665,-0.552216,-0.366301,-9.584748,-1.675319,1.264728,0.005595,-0.000983,0.001238,39.844582,21.851633,5.363511,4.63583E+18,0.630991,0.225642,0.650583,-0.35732,0
-9.513844,0.898313,-1.940977,0.081433,-0.031031,0.007037,37.346857,-7.954816,26.465651,4.63583E+18,-0.680825,0.039874,-0.723816,-0.104772,-9.521774,-1.863995,-1.028225,-0.002382,0.031717,0.037881,42.116416,-9.3997,13.750268,4.63583E+18,-0.539084,0.519739,-0.552349,-0.366292,-9.606258,-1.710005,1.209501,0.00846,0.000085,0.003628,39.711063,22.00355,5.280377,4.63583E+18,0.631007,0.225637,0.650561,-0.357335,0
-9.510317,0.881075,-1.940977,0.081554,-0.022618,0.006409,37.475337,-7.926996,26.546178,4.63583E+18,-0.680901,0.039543,-0.723808,-0.104464,-9.521774,-1.867733,-1.002876,0.001809,0.035004,0.041412,42.182243,-9.47861,13.757744,4.63583E+18,-0.538879,0.519799,-0.552504,-0.366275,-9.594051,-1.721244,1.22074,0.007223,0.001153,0.008545,39.875566,22.059367,5.351305,4.63583E+18,0.631028,0.225644,0.65054,-0.357333,0
-9.576385,0.861693,-1.925879,0.073759,-0.031932,0.002886,37.490329,-8.055493,26.660969,4.63583E+18,-0.680994,0.039313,-0.723765,-0.104238,-9.521774,-1.924097,-1.001007,0.007068,0.035249,0.049549,42.200058,-9.564062,13.757744,4.63583E+18,-0.538672,0.51983,-0.552684,-0.366264,-9.583778,-1.71931,1.219773,0.004273,0.001967,0.008714,40.094913,21.931264,5.253656,4.63583E+18,0.63105,0.225645,0.650525,-0.357321,0
-9.649631,0.849485,-1.889256,0.061821,-0.057127,-0.005219,37.440105,-8.105716,26.620705,4.63583E+18,-0.681165,0.039133,-0.723644,-0.104032,-9.533046,-1.838598,-0.978464,0.020298,0.037221,0.051189,42.043194,-9.491704,13.757744,4.63583E+18,-0.538487,0.51983,-0.552893,-0.366222,-9.594052,-1.701663,1.210467,0.004696,-0.000085,0.010935,40.155589,22.008982,5.156964,4.63583E+18,0.63108,0.22565,0.650501,-0.357307,0
-9.69771,0.837279,-1.887861,0.056424,-0.07685,-0.011375,37.505522,-8.035266,26.523052,4.63583E+18,-0.681397,0.038977,-0.723463,-0.103827,-9.556524,-1.774754,-0.908964,0.017418,0.043303,0.05423,41.883564,-9.564052,13.847914,4.63583E+18,-0.538277,0.519838,-0.553117,-0.36618,-9.583778,-1.756899,1.231981,0.009867,-0.000899,0.014224,40.071104,21.991939,5.07828,4.63583E+18,0.631113,0.225676,0.650465,-0.357299,0
-9.664629,0.825071,-1.931659,0.05724,-0.088787,-0.015647,37.603833,-7.970037,26.505907,4.63583E+18,-0.681667,0.038825,-0.723249,-0.103608,-9.603482,-1.882787,-0.970976,0.022022,0.041822,0.055462,41.950292,-9.649504,13.855403,4.63583E+18,-0.538079,0.519831,-0.553347,-0.366133,-9.595985,-1.742762,1.22074,0.012733,0.001068,0.018412,39.992077,21.911946,5.086003,4.63583E+18,0.631144,0.225725,0.650425,-0.357286,0
-9.55188,0.812865,-1.958216,0.058813,-0.088902,-0.016397,37.510379,-8.085673,26.568341,4.63583E+18,-0.681937,0.038675,-0.723034,-0.103385,-9.607226,-1.745621,-1.066763,0.026376,0.046589,0.053571,41.956844,-9.734955,13.765233,4.63583E+18,-0.537883,0.519825,-0.553591,-0.366062,-9.602399,-1.705175,1.222671,0.011496,0.001153,0.021616,39.862963,21.771593,5.183662,4.63583E+18,0.63118,0.225778,0.650385,-0.357261,0
-9.457853,0.790597,-1.960361,0.066795,-0.066906,-0.010364,37.366863,-8.17896,26.535272,4.63583E+18,-0.682139,0.038498,-0.722886,-0.103156,-9.550883,-1.643302,-1.062983,0.018816,0.043054,0.050449,41.810354,-9.741508,13.577446,4.63583E+18,-0.537683,0.519838,-0.553807,-0.36601,-9.545224,-1.663103,1.245155,0.00863,0.001883,0.024567,39.937174,21.839045,5.273598,4.63583E+18,0.631222,0.225834,0.650348,-0.357219,0
-9.446384,0.743913,-1.948154,0.080745,-0.049387,-0.002259,37.462444,-8.148776,26.472827,4.63583E+18,-0.682286,0.038264,-0.722794,-0.102905,-9.512384,-1.737207,-1.107118,0.010271,0.042726,0.050203,41.944637,-9.809118,13.472278,4.63583E+18,-0.537466,0.51987,-0.55401,-0.365977,-9.531086,-1.695864,1.247086,0.00936,-0.001237,0.024905,40.002355,21.845802,5.265876,4.63583E+18,0.631272,0.225887,0.650301,-0.357182,0
-9.475828,0.697969,-1.940977,0.096074,-0.060954,0.006538,37.603831,-8.135896,26.47068,4.63583E+18,-0.682467,0.037955,-0.722678,-0.102635,-9.487028,-1.71185,-1.144683,-0.006164,0.043712,0.046259,42.035734,-9.747134,13.554923,4.63583E+18,-0.537217,0.519949,-0.554181,-0.365971,-9.499288,-1.682694,1.26957,0.006156,-0.003289,0.029093,39.844963,21.930279,5.168228,4.63583E+18,0.631337,0.22594,0.65025,-0.357127,0
-9.502389,0.703731,-1.935948,0.106691,-0.078731,0.016778,37.575805,-8.148785,26.437625,4.63583E+18,-0.682699,0.037579,-0.722517,-0.102366,-9.518958,-1.596352,-1.147496,-0.016351,0.035906,0.039028,41.963417,-9.741508,13.832869,4.63583E+18,-0.536975,0.520056,-0.554303,-0.36599,-9.522738,-1.665026,1.273425,0.003879,-0.003935,0.032297,39.863276,21.99774,5.07828,4.63583E+18,0.631411,0.225995,0.650197,-0.357058,0
-9.519626,0.767648,-1.908653,0.116368,-0.083504,0.026392,37.555733,-8.035307,26.37517,4.63583E+18,-0.682943,0.037141,-0.722348,-0.102093,-9.499238,-1.677109,-1.192569,-0.020048,0.027361,0.040425,41.956844,-9.887996,13.675109,4.63583E+18,-0.536743,0.520154,-0.554403,-0.366038,-9.534945,-1.720281,1.317437,0.012002,0,0.035333,40.077867,21.991965,5.08598,4.63583E+18,0.631471,0.226086,0.650139,-0.357,0
-9.544039,0.863153,-1.84474,0.126985,-0.080047,0.036884,37.634001,-7.869441,26.362962,4.63583E+18,-0.683173,0.036639,-0.722195,-0.101812,-9.519896,-1.842379,-1.241399,-0.014379,0.025718,0.041576,42.19348,-9.821326,13.491059,4.63583E+18,-0.536526,0.520235,-0.55451,-0.36608,-9.546189,-1.708074,1.303305,0.01487,0,0.036654,40.083337,21.911984,5.190376,4.63583E+18,0.63153,0.226187,0.650076,-0.356945,0
-9.57348,0.942846,-1.779405,0.134022,-0.078666,0.046874,37.649059,-7.806282,26.436227,4.63583E+18,-0.683397,0.036085,-0.722051,-0.101537,-9.510508,-1.675253,-1.155019,-0.0129,0.023664,0.039686,42.269537,-9.510543,13.645979,4.63583E+18,-0.536319,0.520313,-0.55461,-0.366119,-9.549076,-1.694904,1.268608,0.014307,-0.000168,0.040842,40.015869,21.771575,5.35905,4.63583E+18,0.631596,0.226298,0.65001,-0.356878,0
-9.595019,0.979468,-1.742783,0.135152,-0.090858,0.05479,37.568635,-7.84936,26.591324,4.63583E+18,-0.683653,0.0355,-0.721873,-0.101284,-9.554634,-1.50247,-1.012293,-0.034507,0.019556,0.031635,42.195369,-9.485152,13.840355,4.63583E+18,-0.536088,0.520452,-0.554651,-0.366199,-9.58185,-1.671453,1.257362,0.019395,-0.00222,0.044046,40.015869,21.858265,5.35905,4.63583E+18,0.631668,0.226428,0.649927,-0.356819,0
-9.589993,1.01106,-1.706164,0.124785,-0.111716,0.057177,37.555717,-7.819201,26.528126,4.63583E+18,-0.683969,0.034929,-0.721631,-0.101071,-9.558396,-1.42171,-1.034804,-0.061946,0.021198,0.022105,42.200051,-9.789323,13.765279,4.63583E+18,-0.535808,0.520676,-0.554633,-0.366317,-9.567721,-1.665012,1.256401,0.021615,-0.002784,0.047335,39.983195,22.11875,5.35905,4.63583E+18,0.631745,0.226572,0.649837,-0.356757,0
-9.567737,1.035471,-1.654473,0.110963,-0.116933,0.048571,37.62895,-7.776116,26.235189,4.63583E+18,-0.684302,0.034421,-0.721366,-0.100876,-9.513335,-1.596306,-1.127753,-0.076903,0.012491,0.016434,42.054543,-9.89361,13.678886,4.63583E+18,-0.535525,0.520933,-0.55456,-0.366476,-9.539748,-1.719322,1.244194,0.024988,0.001884,0.051355,39.550849,22.558889,5.353285,4.63583E+18,0.631811,0.226743,0.64975,-0.35669,0
-9.551213,1.044812,-1.586256,0.105997,-0.098589,0.03902,37.641901,-7.811285,26.108023,4.63583E+18,-0.684585,0.033953,-0.721151,-0.100656,-9.543363,-1.656439,-1.112758,-0.085861,0.006821,0.013065,41.963438,-9.832611,13.75115,4.63583E+18,-0.53524,0.52121,-0.554453,-0.366661,-9.610105,-1.699708,1.232948,0.03016,-0.001152,0.052591,38.94588,22.869797,5.285806,4.63583E+18,0.631883,0.226926,0.649646,-0.356636,0
-9.613646,1.032607,-1.565408,0.109201,-0.084884,0.031294,37.63396,-7.962022,26.212854,4.63583E+18,-0.684822,0.033559,-0.720973,-0.100454,-9.523658,-1.671472,-1.065812,-0.085534,0.003452,0.012818,41.956844,-9.748101,13.66762,4.63583E+18,-0.534965,0.52148,-0.554338,-0.366852,-9.642889,-1.732492,1.22911,0.032945,-0.001968,0.056047,38.727906,23.237672,5.284846,4.63583E+18,0.640563,0.211033,0.654937,-0.340883,0
-9.752947,1.005332,-1.576918,0.111527,-0.10184,0.022999,37.749545,-8.140873,26.275355,4.63583E+18,-0.685124,0.033103,-0.720748,-0.100154,-9.521774,-1.60483,-1.062044,-0.091365,0.00419,0.011832,41.889262,-9.820356,13.750197,4.63583E+18,-0.534676,0.521767,-0.554214,-0.367052,-9.630682,-1.719325,1.18124,0.03064,0,0.062372,38.941616,23.455913,5.265923,4.63583E+18,0.640627,0.21128,0.654821,-0.340833,0
-9.879353,0.946452,-1.557524,0.112595,-0.137403,0.020985,37.807787,-8.055538,26.197143,4.63583E+18,-0.685534,0.032632,-0.720423,-0.099847,-9.555566,-1.587906,-1.05078,-0.097774,0.002301,0.007807,41.804753,-9.905808,13.847856,4.63583E+18,-0.534384,0.522075,-0.554067,-0.367263,-9.624224,-1.693955,1.146538,0.026452,0,0.067796,38.911916,23.352268,5.184562,4.63583E+18,0.640703,0.21153,0.654706,-0.340757,0
-9.931804,0.903348,-1.55034,0.114982,-0.17843,0.025257,37.7575,-7.761114,26.110173,4.63583E+18,-0.686066,0.032117,-0.719981,-0.099542,-9.490813,-1.72213,-1.004781,-0.090385,-0.00082,0.006491,41.876998,-9.912412,13.765291,4.63583E+18,-0.534117,0.522363,-0.553921,-0.36746,-9.682387,-1.665955,1.132414,0.023332,0.000251,0.073954,38.564145,23.041581,5.29347,4.63583E+18,0.640792,0.211785,0.654592,-0.34065,0
-9.879422,0.888282,-1.535275,0.119693,-0.206903,0.032605,37.792651,-7.612398,26.235793,4.63583E+18,-0.686675,0.031592,-0.719459,-0.099284,-9.462627,-1.519461,-0.888381,-0.099579,-0.000083,0.003452,41.962438,-9.901149,13.667643,4.63583E+18,-0.533834,0.522681,-0.553755,-0.36767,-9.704885,-1.73824,1.096751,0.021112,0.003875,0.077996,38.631907,22.792404,5.375802,4.63583E+18,0.64088,0.212046,0.654488,-0.340521,0
-9.7796,0.85166,-1.473543,0.125034,-0.201137,0.046113,37.842949,-7.675518,26.268249,4.63583E+18,-0.687261,0.031015,-0.718957,-0.09905,-9.539575,-1.27626,-0.833883,-0.146723,0.004927,-0.008621,42.115467,-9.900204,13.581247,4.63583E+18,-0.533454,0.523138,-0.553502,-0.367951,-9.705841,-1.798309,1.082848,0.017824,0.011917,0.091628,39.357716,22.322683,5.269568,4.63583E+18,0.640972,0.212341,0.654401,-0.340332,0
-9.754407,0.779891,-1.406016,0.135207,-0.175124,0.059937,37.807801,-7.776116,26.080126,4.63583E+18,-0.687764,0.030384,-0.718534,-0.098825,-9.478615,-1.47135,-0.976516,-0.189042,0.006326,-0.015526,41.981335,-10.057879,13.664733,4.63583E+18,-0.53299,0.523707,-0.553172,-0.368311,-9.718049,-1.850004,1.19749,0.014805,0.014805,0.103563,40.095797,21.667723,5.07828,4.63583E+18,0.641079,0.212657,0.654317,-0.340094,0
-9.830501,0.642765,-1.441848,0.161082,-0.16744,0.067982,37.792641,-7.740973,26.045473,4.63583E+18,-0.688248,0.029618,-0.718146,-0.098508,-9.484209,-1.692053,-1.090174,-0.199166,0.006409,-0.015037,41.969051,-9.992261,13.672292,4.63583E+18,-0.532502,0.524297,-0.552827,-0.368695,-9.732166,-1.931635,1.365527,0.029145,0.026638,0.13035,40.163104,21.375164,5.101201,4.63583E+18,0.641181,0.213098,0.654221,-0.33981,0
-9.978363,0.479048,-1.619146,0.210957,-0.202162,0.067423,37.873072,-7.695685,26.080139,4.63583E+18,-0.688837,0.028735,-0.717676,-0.098079,-9.496418,-1.956874,-1.143728,-0.183972,-0.004434,-0.007068,42.036645,-9.827942,13.661027,4.63583E+18,-0.53206,0.524818,-0.552498,-0.369086,-9.77832,-1.998771,1.505516,0.07976,0.038954,0.159287,40.028076,21.375164,5.371257,4.63583E+18,0.641246,0.213769,0.654062,-0.339574,0
-10.178007,0.328232,-1.835331,0.275422,-0.273964,0.05204,37.881056,-7.73801,25.809534,4.63583E+18,-0.689654,0.02767,-0.717023,-0.09741,-9.384706,-2.394421,-1.316478,-0.128438,-0.015198,0.011334,42.121157,-10.051327,13.67135,4.63583E+18,-0.531735,0.525156,-0.552271,-0.369413,-9.923665,-2.45464,1.715903,0.205918,0.045947,0.2041,40.03952,21.38184,5.348369,4.63583E+18,0.641241,0.214911,0.6537,-0.339558,0
-10.303725,0.181081,-1.938806,0.327268,-0.359655,0.021388,37.895981,-7.788323,25.586718,4.63583E+18,-0.690744,0.026513,-0.71614,-0.096507,-9.44287,-2.598235,-1.296815,-0.038157,-0.022921,0.040415,42.060164,-10.29639,13.672292,4.63583E+18,-0.531581,0.525215,-0.552228,-0.369613,-9.914319,-3.210925,1.953373,0.427439,0.058832,0.273195,40.180286,21.466337,5.056348,4.63583E+18,0.641096,0.216855,0.652995,-0.339951,0
-10.369779,0.0331,-1.948166,0.350602,-0.433191,-0.01449,38.059693,-7.718071,25.697114,4.63583E+18,-0.692055,0.025459,-0.715043,-0.095527,-9.549906,-2.296993,-1.215137,0.016332,-0.033355,0.063423,42.12209,-10.011128,13.762403,4.63583E+18,-0.531535,0.525085,-0.552297,-0.369762,-9.930161,-3.469245,2.113004,0.715459,0.060483,0.338428,40.254476,21.522433,4.804175,4.63583E+18,0.640774,0.219748,0.651822,-0.340951,0
-10.42797,-0.004342,-1.920904,0.345024,-0.480452,-0.052813,38.225581,-7.582291,25.774987,4.63583E+18,-0.693532,0.024404,-0.713804,-0.094349,-9.592189,-2.157937,-1.343701,0.032122,-0.039109,0.079941,42.206596,-9.827961,13.589727,4.63583E+18,-0.531512,0.524872,-0.552414,-0.369924,-9.84947,-2.989785,2.251533,0.973188,0.067362,0.401904,40.345639,21.363566,4.86106,4.63583E+18,0.64028,0.223505,0.650234,-0.342466,0
-10.429467,0.099676,-1.791799,0.318525,-0.525488,-0.09378,38.349144,-7.501863,25.499404,4.63583E+18,-0.695152,0.023528,-0.712416,-0.093134,-9.595019,-2.227332,-1.568986,0.068586,-0.05036,0.098916,42.145634,-10.051239,13.394452,4.63583E+18,-0.531565,0.524518,-0.552602,-0.370068,-9.828864,-2.042377,2.003579,1.055643,0.053044,0.43288,40.503384,21.064096,4.580293,4.63583E+18,0.63978,0.227538,0.648449,-0.344126,0
-10.360568,0.287805,-1.502494,0.27217,-0.582159,-0.123892,38.457511,-7.428619,25.229185,4.63583E+18,-0.696942,0.022858,-0.710837,-0.091977,-9.662585,-1.839818,-1.496874,0.107038,-0.065066,0.106318,42.061129,-10.071108,13.649579,4.63583E+18,-0.531724,0.524038,-0.552834,-0.370173,-9.838064,-1.202676,1.738205,0.961546,0.023915,0.463436,40.638447,20.855949,4.321421,4.63583E+18,0.639478,0.231359,0.646677,-0.345471,0
-10.237837,0.453007,-1.1134,0.22064,-0.621779,-0.128881,38.55098,-7.214927,25.121503,4.63583E+18,-0.698841,0.022337,-0.709118,-0.090961,-9.70205,-1.626497,-1.219006,0.129728,-0.073123,0.104844,42.12208,-10.071108,13.942589,4.63583E+18,-0.531954,0.523499,-0.553079,-0.370239,-9.683323,-0.953622,1.783079,0.831611,0.027675,0.487408,40.632742,20.923489,4.336633,4.63583E+18,0.639312,0.234903,0.645067,-0.346395,0
-10.114265,0.539962,-0.739184,0.183624,-0.625,-0.109731,38.646256,-6.870137,24.924228,4.63583E+18,-0.700732,0.021885,-0.70737,-0.090128,-9.693626,-1.498779,-1.061208,0.148131,-0.074687,0.096797,42.13901,-10.228745,13.785112,4.63583E+18,-0.53224,0.522935,-0.553331,-0.370249,-9.720896,-0.548533,1.657506,0.593679,0.012305,0.493594,40.570905,20.91113,4.501529,4.63583E+18,0.639422,0.237803,0.643745,-0.346673,0
-10.091168,0.486314,-0.558703,0.154344,-0.631564,-0.084782,38.878208,-6.761385,24.588937,4.63583E+18,-0.702624,0.021443,-0.70559,-0.089455,-9.703938,-1.624418,-1.027317,0.152496,-0.068859,0.097119,42.139957,-10.242011,13.499721,4.63583E+18,-0.532522,0.522368,-0.553603,-0.370237,-9.771618,-0.738673,1.769124,0.382742,-0.008901,0.523344,40.657433,20.753402,4.313826,4.63583E+18,0.639836,0.240189,0.642635,-0.346323,0
-10.145014,0.288153,-0.58728,0.113025,-0.688549,-0.068933,39.085077,-6.881946,24.325854,4.63583E+18,-0.704662,0.021105,-0.703622,-0.089005,-9.558493,-1.962359,-1.092987,0.186246,-0.063435,0.102128,42.139957,-10.084358,13.386886,4.63583E+18,-0.532856,0.521724,-0.55395,-0.370146,-9.842015,-1.411581,1.699953,0.306096,-0.039201,0.56327,40.901583,20.600265,4.216166,4.63583E+18,0.640461,0.24243,0.641512,-0.345687,0
-10.130829,0.103537,-0.724388,0.040431,-0.776662,-0.069106,39.250953,-6.947533,24.228202,4.63583E+18,-0.706954,0.020883,-0.701363,-0.088709,-9.53493,-1.944768,-1.177484,0.208767,-0.064006,0.11338,42.061138,-10.071108,13.379314,4.63583E+18,-0.533224,0.521002,-0.554354,-0.370029,-9.863433,-1.643247,1.045532,0.243875,-0.048067,0.59407,41.126743,20.350244,4.119449,4.63583E+18,0.641214,0.244571,0.64042,-0.344808,0
-9.943566,0.0194,-0.807867,-0.057954,-0.786171,-0.082668,39.474838,-6.831994,24.010194,4.63583E+18,-0.70926,0.021011,-0.699031,-0.088685,-9.533982,-1.952235,-1.2967,0.230127,-0.068029,0.129068,41.975696,-10.149916,13.46938,4.63583E+18,-0.533622,0.52019,-0.554815,-0.369906,-9.773963,-1.626771,1.548639,0.173796,-0.05213,0.610669,41.139065,19.904473,4.025485,4.63583E+18,0.642069,0.246562,0.639395,-0.343699,0
-9.682865,0.077388,-0.708245,-0.161749,-0.661257,-0.107159,39.661854,-6.708403,23.694785,4.63583E+18,-0.711195,0.021559,-0.697021,-0.088875,-9.432659,-2.122056,-1.294934,0.24952,-0.074272,0.14706,41.969051,-10.077753,13.567038,4.63583E+18,-0.534049,0.519282,-0.55533,-0.369791,-10.479868,-2.211516,3.111301,0.211477,-0.104967,0.63367,41.309134,19.703812,3.830167,4.63583E+18,0.643052,0.24864,0.638146,-0.342683,0
-9.556214,0.32629,-0.505756,-0.255508,-0.471645,-0.140076,39.626766,-6.695317,23.577509,4.63583E+18,-0.712579,0.022551,-0.69553,-0.089223,-9.502913,-1.87739,-1.13639,0.239195,-0.07871,0.157337,42.04785,-10.228702,13.574633,4.63583E+18,-0.534448,0.518366,-0.555842,-0.369732,-10.86671,-3.622598,4.792839,0.430647,-0.162637,0.652253,41.590622,19.854811,3.63485,4.63583E+18,0.643981,0.251272,0.636404,-0.342258,0
-9.660824,0.659601,-0.546015,-0.287127,-0.331402,-0.168993,39.676645,-6.773572,23.504509,4.63583E+18,-0.71356,0.023775,-0.694439,-0.089566,-9.487054,-1.742959,-1.190621,0.204708,-0.081013,0.163011,42.065761,-10.467144,13.495836,4.63583E+18,-0.534768,0.51751,-0.556306,-0.369771,-11.143181,-4.593674,5.985883,0.805865,-0.200621,0.688401,41.584944,19.758013,3.448071,4.63583E+18,0.64466,0.254949,0.633976,-0.342766,0
-9.885574,0.878045,-1.1851,-0.224798,-0.331629,-0.179831,39.88571,-6.793864,23.349285,4.63583E+18,-0.71455,0.024845,-0.693366,-0.089697,-9.507666,-1.710938,-1.263865,0.191045,-0.086104,0.171306,41.987914,-10.407363,13.567977,4.63583E+18,-0.535057,0.516656,-0.556755,-0.36987,-10.66255,-4.408099,5.232619,1.186862,-0.15691,0.722581,41.524004,19.519447,3.362619,4.63583E+18,0.64485,0.259796,0.631068,-0.344133,0
-10.067377,0.934319,-2.118017,-0.156929,-0.457476,-0.168543,39.944168,-6.750694,23.291725,4.63583E+18,-0.715903,0.025633,-0.691942,-0.089678,-9.622134,-1.641497,-1.258313,0.182251,-0.095385,0.171972,41.902464,-10.400707,13.48458,4.63583E+18,-0.535348,0.515806,-0.55717,-0.370011,-10.447739,-3.322596,4.311106,1.433329,-0.116503,0.756265,41.627431,19.197326,3.253512,4.63583E+18,0.644692,0.265439,0.627855,-0.345997,0
-10.142165,0.800958,-2.565106,-0.167546,-0.585031,-0.153319,39.928865,-6.820835,23.136412,4.63583E+18,-0.717612,0.026364,-0.690132,-0.089752,-9.654155,-1.590765,-1.189823,0.17666,-0.100073,0.171972,41.974603,-10.558301,13.398177,4.63583E+18,-0.535637,0.51496,-0.557566,-0.370175,-10.575391,-2.345787,4.349691,1.637151,-0.104513,0.782132,41.925892,18.830277,2.863863,4.63583E+18,0.644284,0.271696,0.62432,-0.348287,0
-10.186617,0.561198,-2.159049,-0.241849,-0.661737,-0.153924,40.109492,-6.991731,22.717925,4.63583E+18,-0.719532,0.027265,-0.68806,-0.09002,-9.656056,-1.508175,-1.161607,0.17526,-0.102376,0.170002,42.060047,-10.492824,13.391521,4.63583E+18,-0.535931,0.514117,-0.557949,-0.370342,-10.602488,-2.527009,4.536429,1.826543,-0.101302,0.784262,41.986851,18.598336,2.493937,4.63583E+18,0.643616,0.278455,0.620478,-0.351039,0
-10.264865,0.23255,-1.222264,-0.287222,-0.702431,-0.156716,40.361751,-7.057441,22.432199,4.63583E+18,-0.721553,0.028327,-0.685841,-0.090447,-9.701071,-1.479003,-1.193465,0.182069,-0.113374,0.166881,42.066711,-10.486159,13.571583,4.63583E+18,-0.53627,0.513249,-0.558312,-0.37051,-10.356382,-2.64886,4.454611,2.020123,-0.083627,0.773333,41.932577,18.366401,2.22349,4.63583E+18,0.642613,0.285713,0.616365,-0.354274,0
-10.285204,-0.127406,-0.570301,-0.252874,-0.702073,-0.142474,40.450325,-6.906876,22.344861,4.63583E+18,-0.723566,0.02924,-0.683631,-0.090813,-9.817423,-1.477096,-1.196326,0.197424,-0.124139,0.165646,41.999188,-10.643712,13.40678,4.63583E+18,-0.536668,0.512333,-0.55867,-0.370662,-9.9499,-2.307989,4.114722,2.209942,-0.047734,0.758296,42.254607,18.135453,1.908912,4.63583E+18,0.641215,0.293468,0.612033,-0.357961,0
-10.096778,-0.423187,-0.853259,-0.175314,-0.674221,-0.116538,40.478184,-6.732853,22.069424,4.63583E+18,-0.725492,0.029851,-0.681531,-0.091028,-9.804452,-1.510857,-1.173818,0.207538,-0.132851,0.168517,41.847168,-10.657063,13.211462,4.63583E+18,-0.537103,0.511373,-0.55903,-0.370816,-9.639063,-1.654327,3.648957,2.309164,-0.030894,0.728137,42.596301,17.927024,1.335164,4.63583E+18,0.639544,0.30141,0.607573,-0.361927,0
-9.727786,-0.750555,-1.568111,-0.095484,-0.661814,-0.081185,40.623705,-6.724703,21.678834,4.63583E+18,-0.727374,0.030126,-0.679498,-0.091122,-9.735031,-1.671251,-1.194415,0.22995,-0.147303,0.169752,41.756006,-10.49953,13.016165,4.63583E+18,-0.537617,0.510336,-0.559393,-0.37095,-9.269113,-0.648693,3.164433,2.275713,-0.030403,0.68196,42.499587,17.847186,0.784968,4.63583E+18,0.637779,0.30912,0.60316,-0.365896,0
-9.40224,-1.052304,-1.822059,-0.037968,-0.648918,-0.041718,40.825603,-6.775109,21.408357,4.63583E+18,-0.729205,0.030121,-0.677525,-0.091173,-9.684291,-1.504586,-1.196326,0.248526,-0.160287,0.166882,41.895599,-10.486159,13.090903,4.63583E+18,-0.538205,0.509244,-0.559749,-0.371061,-8.997758,0.078906,2.723134,2.199306,-0.036893,0.633242,42.432953,17.677223,0.522078,4.63583E+18,0.635996,0.316466,0.598853,-0.369775,0
-9.180307,-1.30647,-1.530993,0.014481,-0.627333,-0.007153,40.88417,-6.740063,21.270643,4.63583E+18,-0.730964,0.029865,-0.675638,-0.091176,-9.624216,-1.410547,-1.218827,0.254869,-0.179011,0.162693,41.98677,-10.564916,13.278558,4.63583E+18,-0.538855,0.508117,-0.560063,-0.371188,-8.699157,0.31555,2.259253,2.11632,-0.044864,0.590271,42.591648,17.37768,0.320176,4.63583E+18,0.634222,0.323443,0.594658,-0.373536,0
-9.017852,-1.529955,-1.072173,0.085922,-0.61772,0.030581,40.898829,-6.694662,21.075348,4.63583E+18,-0.732687,0.029278,-0.673808,-0.091078,-9.608184,-1.42635,-1.186992,0.271037,-0.198235,0.158421,41.993465,-10.650358,13.383858,4.63583E+18,-0.539591,0.506934,-0.560349,-0.371307,-8.486008,0.610408,1.796312,2.035467,-0.059655,0.556911,42.737177,17.151382,0.032822,4.63583E+18,0.632492,0.330075,0.590547,-0.377172,0
-8.935209,-1.638599,-0.74563,0.177397,-0.596721,0.075635,41.092556,-6.801962,20.844999,4.63583E+18,-0.734334,0.028341,-0.672075,-0.09091,-9.584725,-1.428266,-1.150366,0.292066,-0.21451,0.155133,41.847208,-10.735818,13.211511,4.63583E+18,-0.540413,0.505684,-0.560622,-0.371404,-8.364892,0.926857,1.341821,1.940495,-0.083398,0.522981,42.72591,16.987046,-0.348443,4.63583E+18,0.630851,0.336312,0.586526,-0.380668,0
-8.904202,-1.620166,-0.759302,0.259571,-0.571598,0.116802,41.17154,-7.016084,20.644305,4.63583E+18,-0.735904,0.027019,-0.670452,-0.090604,-9.61656,-1.394518,-0.990004,0.3026,-0.225609,0.151928,41.756027,-10.663769,12.926216,4.63583E+18,-0.541287,0.504399,-0.560878,-0.371491,-8.390242,1.253606,0.818835,1.936223,-0.083644,0.517559,42.731544,16.761704,-0.88175,4.63583E+18,0.629162,0.342505,0.582475,-0.384145,0
-8.981464,-1.507501,-0.98842,0.317718,-0.57463,0.151558,41.077911,-7.151946,20.55886,4.63583E+18,-0.737473,0.0254,-0.668842,-0.09022,-9.64193,-1.30166,-1.021584,0.310243,-0.24121,0.141835,41.749321,-10.578327,12.723258,4.63583E+18,-0.542227,0.503096,-0.561088,-0.37157,-8.271924,1.831111,-0.099537,1.926774,-0.073291,0.510575,42.80479,16.614276,-1.068617,4.63583E+18,0.627407,0.348651,0.578435,-0.387576,0
-9.13235,-1.33819,-1.060831,0.366222,-0.586659,0.172901,41.142966,-7.132308,20.4634,4.63583E+18,-0.739066,0.023568,-0.667209,-0.089766,-9.632601,-1.305233,-1.092909,0.307878,-0.258217,0.133122,41.828054,-10.729081,12.899121,4.63583E+18,-0.543215,0.50179,-0.561236,-0.37167,-8.066277,2.286539,-0.746525,1.84954,-0.055133,0.496278,42.890241,16.449947,-1.185053,4.63583E+18,0.625656,0.354567,0.574551,-0.390804,0
-9.209385,-1.08846,-0.918757,0.422356,-0.563597,0.179064,41.331665,-6.896382,20.313519,4.63583E+18,-0.74058,0.021637,-0.665661,-0.089264,-9.65414,-1.351189,-1.064919,0.313532,-0.274325,0.130482,41.913516,-11.046244,13.09542,4.63583E+18,-0.544255,0.500451,-0.561349,-0.371783,-8.030597,2.476228,-1.224472,1.702566,-0.049875,0.476315,43.10434,16.212406,-1.656418,4.63583E+18,0.62404,0.360041,0.570914,-0.393703,0
-9.291619,-0.860534,-0.692848,0.4877,-0.497028,0.189901,41.503562,-6.706866,20.15103,4.63583E+18,-0.741919,0.019403,-0.66434,-0.0885,-9.701048,-1.298782,-1.017052,0.313051,-0.298219,0.12933,42.077694,-10.993379,12.930784,4.63583E+18,-0.545351,0.499078,-0.561402,-0.371943,-7.998682,2.437751,-1.444182,1.533555,-0.045356,0.447475,43.097778,15.930661,-1.919354,4.63583E+18,0.622591,0.364995,0.567582,-0.396244,0
-9.499756,-0.651201,-0.417658,0.551793,-0.438449,0.200129,41.589021,-6.814128,20.098388,4.63583E+18,-0.743089,0.016968,-0.663219,-0.087588,-9.693639,-1.204013,-0.968228,0.303127,-0.312942,0.116453,42.091125,-10.986663,12.825461,4.63583E+18,-0.546478,0.497732,-0.561379,-0.372127,-7.877558,2.248034,-1.804747,1.348459,-0.03747,0.418311,43.017954,15.930661,-2.121204,4.63583E+18,0.621331,0.369401,0.564598,-0.398397,0
-9.713879,-0.388848,-0.285772,0.613691,-0.422023,0.184039,41.804526,-6.923205,20.020556,4.63583E+18,-0.744213,0.01442,-0.662163,-0.086484,-9.658935,-1.196326,-0.896898,0.298349,-0.319941,0.105518,42.012394,-10.986663,12.907756,4.63583E+18,-0.547627,0.496411,-0.561307,-0.372311,-7.768627,2.291171,-2.103342,1.162181,-0.023342,0.385936,43.013236,15.918492,-2.394485,4.63583E+18,0.620251,0.373263,0.56199,-0.400164,0
-9.839759,-0.24076,-0.393004,0.660181,-0.428765,0.145677,42.072304,-6.772741,19.773034,4.63583E+18,-0.745365,0.011829,-0.661093,-0.085129,-9.712289,-1.286298,-0.823661,0.292109,-0.334221,0.09779,42.15188,-10.750486,12.915433,4.63583E+18,-0.548808,0.495098,-0.561175,-0.37252,-7.669097,2.541012,-2.484536,1.01083,0.007467,0.362846,43.092133,15.742013,-2.571043,4.63583E+18,0.61928,0.376725,0.559736,-0.401579,0
-9.885791,-0.158107,-0.592134,0.680706,-0.422832,0.102812,42.015526,-6.598616,19.592882,4.63583E+18,-0.746509,0.009293,-0.66004,-0.08358,-9.717093,-1.30523,-0.817896,0.282749,-0.34819,0.092282,42.625418,-10.797778,12.656797,4.63583E+18,-0.550008,0.493796,-0.560983,-0.372766,-7.547971,2.565424,-3.037603,0.873805,0.049447,0.34379,43.08559,15.381329,-2.675233,4.63583E+18,0.618385,0.379851,0.557841,-0.40265,0
-9.890204,-0.157073,-0.626408,0.695376,-0.415561,0.071361,41.836396,-6.520377,19.512884,4.63583E+18,-0.747636,0.006801,-0.659005,-0.081893,-9.694601,-1.339931,-0.851635,0.278055,-0.360109,0.090877,43.058493,-11.343373,12.387244,4.63583E+18,-0.551228,0.492488,-0.560751,-0.373044,-7.442777,2.601054,-3.478061,0.702676,0.09595,0.312655,43.018834,15.387871,-2.844325,4.63583E+18,0.617592,0.382538,0.556394,-0.403325,0
-9.85079,-0.232525,-0.421544,0.731562,-0.427026,0.058311,41.88094,-6.369927,19.272567,4.63583E+18,-0.748791,0.004228,-0.657939,-0.080063,-9.692678,-1.387789,-0.764569,0.281654,-0.371856,0.090793,42.788555,-11.310801,12.174957,4.63583E+18,-0.55248,0.491152,-0.560496,-0.373335,-7.404228,2.79532,-3.783243,0.471493,0.149684,0.265417,43.184069,15.449024,-2.84526,4.63583E+18,0.616958,0.384609,0.555544,-0.403497,0
-9.739755,-0.233564,-0.134736,0.788663,-0.437259,0.04893,42.052881,-6.190777,19.092379,4.63583E+18,-0.749969,0.001497,-0.656852,-0.078044,-9.692678,-1.324175,-0.644411,0.281007,-0.383607,0.091776,42.526394,-11.000446,12.068615,4.63583E+18,-0.553756,0.489795,-0.560213,-0.373654,-7.488737,3.257358,-4.059466,0.170145,0.208255,0.201995,43.41046,15.217109,-2.849067,4.63583E+18,0.616561,0.385858,0.555449,-0.403042,0
-9.536667,-0.158118,-0.012207,0.847791,-0.407181,0.027132,42.068343,-6.175314,19.132368,4.63583E+18,-0.751063,-0.001367,-0.655867,-0.075771,-9.681434,-1.35213,-0.623541,0.277971,-0.392404,0.093828,43.203282,-11.502904,12.162107,4.63583E+18,-0.55504,0.488424,-0.559906,-0.374001,-7.57318,3.509276,-3.940496,-0.128391,0.276542,0.134695,43.40307,15.008497,-2.750475,4.63583E+18,0.616372,0.386298,0.556138,-0.401957,0
-9.35972,-0.082094,-0.062183,0.894778,-0.331148,0.012137,42.047868,-6.160808,19.110078,4.63583E+18,-0.751941,-0.004307,-0.655125,-0.073329,-9.669227,-1.422483,-0.622578,0.275751,-0.397997,0.096948,43.499151,-11.773073,12.182024,4.63583E+18,-0.556327,0.487041,-0.559587,-0.374371,-7.801308,3.244603,-3.214978,-0.361129,0.329547,0.080465,43.178519,15.081742,-2.627546,4.63583E+18,0.616342,0.386102,0.557439,-0.400386,0
-9.382016,0.015572,-0.214256,0.920458,-0.271351,0.008739,42.056138,-6.0021,18.914745,4.63583E+18,-0.752645,-0.007298,-0.654568,-0.070806,-9.701994,-1.461997,-0.555117,0.272631,-0.409241,0.104088,42.968463,-11.1065,11.980606,4.63583E+18,-0.55762,0.485629,-0.55925,-0.374785,-8.132735,2.730085,-1.841285,-0.497951,0.363162,0.029281,43.208427,15.149387,-2.340285,4.63583E+18,0.616367,0.385487,0.559136,-0.39857,0
-9.602314,0.138216,-0.389573,0.929726,-0.286429,0.004416,42.005676,-5.838414,18.754421,4.63583E+18,-0.753379,-0.010309,-0.653955,-0.068242,-9.693642,-1.453645,-0.436898,0.26254,-0.414104,0.112549,42.853768,-11.205109,11.794603,4.63583E+18,-0.558889,0.484211,-0.5589,-0.375252,-8.488613,2.18737,-0.544409,-0.578357,0.375825,-0.020759,43.440463,15.150319,-1.987107,4.63583E+18,0.616407,0.384564,0.561077,-0.396669,0
-9.853642,0.306886,-0.4611,0.931231,-0.35294,-0.005683,42.105603,-5.73748,18.689535,4.63583E+18,-0.754284,-0.013317,-0.653124,-0.065637,-9.64771,-1.418955,-0.382291,0.245957,-0.421327,0.122077,42.937922,-11.758225,11.70145,4.63583E+18,-0.560124,0.482796,-0.558524,-0.375793,-8.870765,1.563963,0.643424,-0.576778,0.3732,-0.067602,43.508215,15.160664,-1.79179,4.63583E+18,0.616367,0.383528,0.563078,-0.394893,0
-10.032836,0.484997,-0.374518,0.937302,-0.41751,-0.022629,42.379721,-5.707503,18.64457,4.63583E+18,-0.755344,-0.016195,-0.652083,-0.063094,-9.587638,-1.416059,-0.367188,0.223949,-0.426837,0.135625,42.406027,-11.501025,11.68345,4.63583E+18,-0.561304,0.48139,-0.558126,-0.376426,-9.297974,0.826499,1.820416,-0.47445,0.3649,-0.099724,43.372906,15.155898,-1.597425,4.63583E+18,0.616126,0.382664,0.564938,-0.393451,0
-10.058333,0.685882,-0.215818,0.963041,-0.464117,-0.048364,42.60219,-5.529334,18.574672,4.63583E+18,-0.756532,-0.019193,-0.650889,-0.060284,-9.504127,-1.60715,-0.310019,0.209388,-0.422341,0.150493,42.359688,-11.238906,11.491394,4.63583E+18,-0.56242,0.479989,-0.557742,-0.377118,-9.716827,0.544694,2.351514,-0.312713,0.359478,-0.13072,43.379407,15.234839,-1.414335,4.63583E+18,0.615586,0.382128,0.566565,-0.392474,0
-10.002296,0.95499,-0.097097,1.002849,-0.50286,-0.081281,42.617699,-5.199758,18.482538,4.63583E+18,-0.757814,-0.02224,-0.649573,-0.057252,-9.5086,-1.724749,-0.237742,0.189601,-0.420935,0.169381,42.966679,-11.286047,11.227667,4.63583E+18,-0.563461,0.478591,-0.557367,-0.377895,-10.032359,-0.532617,3.217707,-0.031432,0.351363,-0.135248,43.446282,15.233911,-1.244226,4.63583E+18,0.614609,0.382289,0.567718,-0.392183,0
-9.938472,1.265202,-0.046047,1.026396,-0.551468,-0.112841,42.597196,-4.940079,18.274991,4.63583E+18,-0.759217,-0.025287,-0.648096,-0.054049,-9.453378,-1.497457,-0.175751,0.157511,-0.42085,0.186637,42.782896,-10.76367,11.004115,4.63583E+18,-0.564408,0.477226,-0.556973,-0.378787,-10.316031,-0.298071,3.593765,0.207331,0.323013,-0.130801,43.287605,15.234687,-1.232948,4.63583E+18,0.613323,0.383025,0.568399,-0.392491,0
-9.892994,1.552637,0.050552,1.037028,-0.60658,-0.139304,42.770403,-4.811355,18.072444,4.63583E+18,-0.760755,-0.028305,-0.646435,-0.050728,-9.437292,-1.522052,-0.204621,0.120462,-0.4179,0.190944,42.290499,-10.414648,11.065336,4.63583E+18,-0.565266,0.475942,-0.556534,-0.379767,-10.479516,0.069688,3.496106,0.350855,0.302205,-0.137047,43.146528,15.386892,-1.226457,4.63583E+18,0.611844,0.38408,0.568798,-0.393189,0
-9.880214,1.786785,0.218667,1.041007,-0.645749,-0.162559,42.992835,-4.695919,17.912112,4.63583E+18,-0.762383,-0.031278,-0.644636,-0.047319,-9.470032,-1.739417,-0.229999,0.092917,-0.407814,0.202997,42.418369,-11.006501,11.004696,4.63583E+18,-0.566026,0.474708,-0.556097,-0.380819,-10.536997,-0.104457,3.362287,0.507357,0.301867,-0.141807,43.220697,15.4555,-1.147496,4.63583E+18,0.610104,0.385521,0.568945,-0.394269,0
-9.826383,1.951551,0.355169,1.031629,-0.661528,-0.182611,43.038306,-4.502223,17.802237,4.63583E+18,-0.764038,-0.034167,-0.642771,-0.043869,-9.461707,-1.398266,-0.175753,0.109475,-0.390249,0.204016,42.680158,-11.430744,10.740408,4.63583E+18,-0.566774,0.473459,-0.555728,-0.381799,-10.413841,0.1469,2.778418,0.596137,0.310006,-0.153378,43.29966,15.46678,-1.154903,4.63583E+18,0.608179,0.387172,0.56898,-0.395573,0
-9.805329,2.007011,0.502217,1.003709,-0.679348,-0.195084,43.131041,-4.223119,17.612427,4.63583E+18,-0.765728,-0.036937,-0.640828,-0.040447,-9.595589,-1.075051,-0.103478,0.101254,-0.381923,0.208933,42.622832,-11.316663,10.448397,4.63583E+18,-0.567477,0.47223,-0.555373,-0.382791,-10.419567,0.628716,2.075018,0.562305,0.314426,-0.176376,43.29966,15.472335,-1.237748,4.63583E+18,0.606254,0.388688,0.569115,-0.396845,0
-9.811971,2.014221,0.710292,0.96895,-0.694539,-0.201979,43.305221,-3.963494,17.312267,4.63583E+18,-0.767445,-0.039581,-0.638816,-0.037092,-9.584756,-1.184656,0.093334,0.083694,-0.368549,0.217221,42.616043,-11.304055,10.515001,4.63583E+18,-0.5681,0.471044,-0.555036,-0.383817,-10.365764,0.975086,1.420626,0.441443,0.335515,-0.207499,43.294105,15.545579,-1.132684,4.63583E+18,0.604422,0.389854,0.569551,-0.397869,0
-9.775349,1.999232,0.899485,0.934476,-0.672825,-0.211786,43.308518,-3.76982,17.014286,4.63583E+18,-0.769093,-0.042081,-0.636853,-0.033799,-9.605281,-1.555835,0.132336,0.0734,-0.354663,0.219868,42.616043,-11.450106,10.432904,4.63583E+18,-0.568664,0.469896,-0.554719,-0.384845,-10.584906,0.579703,0.715805,0.324605,0.37704,-0.251969,43.219943,15.618815,-0.938312,4.63583E+18,0.602603,0.390688,0.570354,-0.398659,0
-9.768702,2.002577,0.85948,0.902388,-0.597665,-0.223828,43.285799,-3.525689,16.749086,4.63583E+18,-0.770532,-0.044436,-0.635115,-0.030565,-9.584754,-1.28359,0.044393,0.080499,-0.333894,0.224954,42.627282,-11.541404,10.076806,4.63583E+18,-0.569185,0.468751,-0.554471,-0.385827,-11.173853,-0.377696,0.500694,0.281863,0.390359,-0.275033,43.135418,15.704076,-0.754276,4.63583E+18,0.600781,0.391381,0.571296,-0.399381,0
-9.87525,2.018657,0.613127,0.871411,-0.520427,-0.240043,43.401214,-3.346487,16.546566,4.63583E+18,-0.771761,-0.046656,-0.633609,-0.02735,-9.571577,-0.909084,0.182675,0.070366,-0.318431,0.238159,42.628254,-11.548203,9.956815,4.63583E+18,-0.569628,0.467624,-0.554267,-0.386832,-10.94596,-0.230825,0.363257,0.252925,0.395555,-0.254236,43.061249,15.93047,-0.573748,4.63583E+18,0.599027,0.392054,0.572264,-0.399967,0
-10.127708,1.954849,0.436137,0.813443,-0.521208,-0.254996,43.494976,-3.266035,16.431166,4.63583E+18,-0.772989,-0.048626,-0.632088,-0.024267,-9.739104,-1.2384,0.352585,0.02913,-0.304462,0.254009,42.54962,-11.626837,10.128767,4.63583E+18,-0.569932,0.466579,-0.55406,-0.387942,-11.18496,-0.419751,0.504699,0.242943,0.386831,-0.239625,42.983188,16.065152,-0.573748,4.63583E+18,0.597334,0.392719,0.573202,-0.400505,0
-10.425111,1.799493,0.468311,0.742657,-0.60646,-0.274319,43.489983,-3.087933,16.346277,4.63583E+18,-0.774445,-0.050322,-0.630277,-0.021292,-9.753716,-1.303274,0.28758,0.002043,-0.277795,0.270033,42.475392,-11.712298,10.054476,4.63583E+18,-0.570094,0.465604,-0.553902,-0.3891,-11.053654,-1.043792,0.876671,0.318235,0.38824,-0.214995,42.994473,15.912916,-0.559903,4.63583E+18,0.595553,0.393629,0.573976,-0.401154,0
-10.573833,1.608059,0.712991,0.687698,-0.706328,-0.298205,43.547673,-2.728401,16.093833,4.63583E+18,-0.776164,-0.051809,-0.628132,-0.018334,-9.663849,-1.362359,0.292004,-0.009829,-0.253958,0.295882,42.548189,-11.786507,9.777093,4.63583E+18,-0.570135,0.464634,-0.55383,-0.3903,-10.852919,-0.647379,1.191856,0.371439,0.378013,-0.178559,42.994473,15.856299,-0.383244,4.63583E+18,0.59377,0.394735,0.574576,-0.40185,0
-10.449568,1.55034,0.993761,0.644146,-0.75217,-0.314326,43.771273,-2.390459,15.741492,4.63583E+18,-0.777998,-0.053068,-0.62583,-0.015485,-9.667289,-1.58066,0.40531,-0.028374,-0.237339,0.325535,42.712272,-11.870984,9.585217,4.63583E+18,-0.570052,0.463666,-0.553823,-0.39158,-11.140981,-0.345722,1.779524,0.398259,0.336003,-0.1652,42.988023,16.009206,-0.292978,4.63583E+18,0.592065,0.395865,0.575004,-0.402642,0
-10.136072,1.610251,1.219614,0.600741,-0.724697,-0.319813,43.988814,-2.211214,15.423521,4.63583E+18,-0.779758,-0.0542,-0.623602,-0.012699,-9.6458,-1.576706,0.482443,-0.034822,-0.214439,0.350526,42.579897,-11.956426,9.660459,4.63583E+18,-0.569862,0.462691,-0.553906,-0.39289,-10.877018,-0.230326,2.290377,0.45354,0.318852,-0.13249,42.902573,16.223639,-0.307721,4.63583E+18,0.590359,0.397183,0.575237,-0.403515,0
-9.747658,1.706814,1.316177,0.550443,-0.645755,-0.310834,43.962208,-2.06086,15.228203,4.63583E+18,-0.781311,-0.055202,-0.621614,-0.01007,-9.610153,-1.305193,0.499528,-0.026404,-0.186026,0.36723,42.409972,-12.041877,9.57841,4.63583E+18,-0.569593,0.461704,-0.554102,-0.394163,-10.130302,-0.055509,1.56577,0.513537,0.337635,-0.10625,42.82357,16.223639,-0.480925,4.63583E+18,0.588544,0.398747,0.575364,-0.404441,0
-9.399731,1.736221,1.325614,0.501257,-0.549718,-0.278598,43.861198,-1.851659,15.067832,4.63583E+18,-0.782616,-0.056121,-0.619922,-0.007697,-9.528613,-1.180704,0.478043,-0.005982,-0.159155,0.377355,42.250315,-12.205933,9.390918,4.63583E+18,-0.569284,0.460687,-0.554412,-0.395361,-10.09117,0.063727,0.66939,0.504376,0.324658,-0.099096,42.82449,16.223639,-0.368557,4.63583E+18,0.586786,0.40028,0.575461,-0.405344,0
-9.191085,1.727914,1.273472,0.455817,-0.463929,-0.235921,43.961037,-1.692971,14.957971,4.63583E+18,-0.783702,-0.056998,-0.618491,-0.0056,-9.533006,-1.205606,0.498552,0.007521,-0.126552,0.385986,42.327468,-12.601486,9.386517,4.63583E+18,-0.56891,0.45967,-0.554837,-0.396485,-9.891677,0.696742,0.172319,0.421646,0.310026,-0.096536,42.842217,16.235598,-0.07834,4.63583E+18,0.585206,0.401584,0.575658,-0.406057,0
-9.088984,1.624729,1.14864,0.408575,-0.394305,-0.198586,44.170232,-1.564232,14.853104,4.63583E+18,-0.784612,-0.05781,-0.617274,-0.003768,-9.556442,-1.006386,0.354508,0.013458,-0.093443,0.389617,42.492502,-12.780658,9.387493,4.63583E+18,-0.568463,0.458685,-0.555356,-0.397539,-9.928548,0.694231,-0.117226,0.3346,0.298862,-0.101394,42.933189,16.382336,0.151337,4.63583E+18,0.583785,0.402647,0.575978,-0.406595,0
-9.045686,1.503199,1.042082,0.379004,-0.346382,-0.164844,44.264046,-1.513718,14.795373,4.63583E+18,-0.785401,-0.058625,-0.616201,-0.002117,-9.558396,-0.696847,0.251976,0.020764,-0.055421,0.385944,42.58478,-12.636153,9.20783,4.63583E+18,-0.567947,0.457752,-0.555969,-0.398494,-9.82053,0.524918,-0.209363,0.267877,0.281371,-0.100486,43.079007,16.383254,0.048178,4.63583E+18,0.582511,0.403529,0.57636,-0.407007,0
-9.075623,1.417754,0.993256,0.362445,-0.311424,-0.136973,44.264046,-1.548645,14.795373,4.63583E+18,-0.786101,-0.059451,-0.615232,-0.000614,-9.637008,-0.682637,0.187997,0.018415,-0.032686,0.380688,42.51302,-12.701066,9.012492,4.63583E+18,-0.567382,0.456874,-0.55662,-0.399398,-9.742426,0.519407,-0.230104,0.210552,0.259181,-0.100992,43.050267,16.399135,-0.109867,4.63583E+18,0.581383,0.404235,0.576782,-0.407322,0
-9.153853,1.322328,0.924473,0.355015,-0.292431,-0.113187,44.259057,-1.49939,14.635724,4.63583E+18,-0.786751,-0.060312,-0.614317,0.000786,-9.643848,-0.90822,0.13819,0.028968,-0.013289,0.383209,42.360184,-13.022355,9.097929,4.63583E+18,-0.566786,0.455996,-0.557337,-0.400246,-9.751879,0.433306,-0.190994,0.186822,0.240437,-0.094181,42.829349,16.462009,-0.102519,4.63583E+18,0.580349,0.404869,0.577185,-0.407596,0
-9.209371,1.232419,0.821827,0.347687,-0.303195,-0.086966,44.28177,-1.290168,14.280017,4.63583E+18,-0.787427,-0.061216,-0.613357,0.002086,-9.58771,-0.905307,0.055688,0.037767,0.003969,0.3815,42.201523,-13.2069,9.286364,4.63583E+18,-0.566168,0.455129,-0.558106,-0.401035,-9.725601,0.206601,0.031629,0.201589,0.227855,-0.082102,42.751253,16.54658,0.008139,4.63583E+18,0.57934,0.405546,0.577511,-0.407897,0
-9.206613,1.211291,0.711963,0.332882,-0.332861,-0.063227,44.325081,-1.261175,14.104539,4.63583E+18,-0.78818,-0.062127,-0.612293,0.003271,-9.582811,-0.892119,0.071287,0.055156,0.014183,0.376416,42.267388,-13.142017,9.302041,4.63583E+18,-0.565568,0.454248,-0.558916,-0.401752,-9.68047,0.204495,0.279779,0.24043,0.217543,-0.065777,42.756417,16.607138,0.272669,4.63583E+18,0.578321,0.406331,0.577722,-0.408261,0
-9.142308,1.267854,0.686886,0.32064,-0.34623,-0.040213,44.359988,-1.290195,14.031971,4.63583E+18,-0.788968,-0.063007,-0.611181,0.00429,-9.616494,-0.857458,0.095699,0.063489,0.031655,0.373041,42.274239,-13.281123,9.302041,4.63583E+18,-0.564946,0.453384,-0.559774,-0.402408,-9.679451,0.309263,0.401825,0.279059,0.200363,-0.048064,42.695406,16.522707,0.435362,4.63583E+18,0.577312,0.407216,0.577799,-0.408698,0
-9.035194,1.34832,0.824438,0.315449,-0.3213,-0.024477,44.47536,-1.096592,13.831666,4.63583E+18,-0.78969,-0.063943,-0.610141,0.00528,-9.552078,-0.618772,0.019077,0.067036,0.0449,0.360996,42.139527,-13.529608,9.212233,4.63583E+18,-0.56432,0.45256,-0.560645,-0.403001,-9.664191,0.355033,0.378419,0.305668,0.183009,-0.035159,42.787988,16.462707,0.240065,4.63583E+18,0.576316,0.408172,0.577763,-0.409202,0
-8.949746,1.421561,0.959914,0.299292,-0.267173,-0.01685,44.534326,-0.98708,13.708914,4.63583E+18,-0.790278,-0.064867,-0.609274,0.006218,-9.568639,-0.519591,-0.133712,0.052561,0.055752,0.337376,41.903259,-13.707361,9.294178,4.63583E+18,-0.563679,0.451843,-0.561471,-0.403551,-9.622488,0.354006,0.234986,0.306736,0.174018,-0.021095,43.080953,16.554265,0.068163,4.63583E+18,0.575361,0.40915,0.577675,-0.409692,0
-8.874271,1.484829,0.958888,0.283255,-0.206488,-0.012773,44.513688,-1.037629,13.669032,4.63583E+18,-0.790714,-0.065728,-0.608607,0.007057,-9.682862,-0.546388,-0.146489,0.048324,0.053665,0.315753,41.950955,-13.642541,9.302041,4.63583E+18,-0.563071,0.451182,-0.562243,-0.404064,-9.667238,0.221766,0.133265,0.295611,0.159689,-0.004808,43.201,16.680413,0.16377,4.63583E+18,0.574487,0.410115,0.577545,-0.410137,0
-8.833175,1.513718,0.900601,0.284608,-0.150645,-0.00656,44.557022,-0.967845,13.531501,4.63583E+18,-0.791006,-0.066612,-0.60812,0.007865,-9.703901,-0.448324,-0.213828,0.063779,0.050461,0.295377,42.113971,-13.792794,9.391827,4.63583E+18,-0.562533,0.450527,-0.562995,-0.404498,-9.784246,0.236025,0.12512,0.280301,0.141708,0.014595,42.901939,16.46068,0.354015,4.63583E+18,0.573717,0.411055,0.577366,-0.410526,0
-8.845888,1.493783,0.873949,0.292325,-0.114115,0.001352,44.557022,-0.936498,13.415936,4.63583E+18,-0.791203,-0.067557,-0.607749,0.008676,-9.761,-0.405798,-0.107504,0.069085,0.052167,0.270172,42.138973,-14.031032,9.590491,4.63583E+18,-0.562043,0.44992,-0.563711,-0.404857,-9.726243,0.150556,0.156663,0.272289,0.136012,0.036138,42.701489,16.401652,0.345881,4.63583E+18,0.573008,0.412019,0.577148,-0.410856,0
-8.894715,1.425023,0.836827,0.303246,-0.097114,0.013821,44.591905,-1.037629,13.455802,4.63583E+18,-0.791353,-0.068523,-0.607434,0.009407,-9.810815,-0.481405,0.037016,0.06452,0.059213,0.247483,41.982834,-14.050721,9.427659,4.63583E+18,-0.561566,0.449388,-0.564393,-0.40516,-9.833058,0.194302,0.138347,0.258848,0.115717,0.060081,42.842892,16.608176,0.256355,4.63583E+18,0.572411,0.412976,0.57686,-0.411131,0
-8.953509,1.342315,0.813413,0.317371,-0.085125,0.032415,44.672372,-0.937972,13.508612,4.63583E+18,-0.791468,-0.069613,-0.607149,0.010149,-9.747414,-0.499519,-0.052177,0.066053,0.062762,0.227998,41.901716,-14.050721,9.232341,4.63583E+18,-0.561115,0.448904,-0.565049,-0.405407,-9.900204,0.182097,0.171959,0.249418,0.106818,0.089093,42.915147,16.521768,0.264466,4.63583E+18,0.571902,0.413961,0.576519,-0.411327,0
-9.076587,1.296226,0.85726,0.329469,-0.06775,0.052951,44.650937,-0.758599,13.421657,4.63583E+18,-0.791535,-0.070799,-0.606912,0.010855,-9.730285,-0.511726,-0.038591,0.058369,0.060075,0.208771,41.895809,-14.286403,9.396157,4.63583E+18,-0.560689,0.448478,-0.565648,-0.405632,-9.90528,0.151615,0.064058,0.230811,0.09391,0.119628,42.854076,16.315183,0.345893,4.63583E+18,0.571509,0.414951,0.576127,-0.411425,0
-9.232028,1.316649,0.863988,0.335006,-0.057963,0.071456,44.557022,-0.812645,13.236326,4.63583E+18,-0.791574,-0.072064,-0.6067,0.011528,-9.673186,-0.479042,0.064384,0.053752,0.055888,0.189545,41.817247,-14.307076,9.681259,4.63583E+18,-0.560296,0.448101,-0.566194,-0.40583,-9.966316,-0.096565,0.253257,0.222348,0.080735,0.146507,42.933411,16.389441,0.240114,4.63583E+18,0.571205,0.415965,0.575669,-0.411464,0
-9.3247,1.407076,0.822388,0.337971,-0.081325,0.083837,44.621772,-0.99427,13.170032,4.63583E+18,-0.791671,-0.073368,-0.606405,0.012175,-9.701928,-0.498532,0.118131,0.071081,0.044743,0.181121,41.731804,-14.161196,9.52534,4.63583E+18,-0.559976,0.447684,-0.566727,-0.405989,-10.035455,-0.449778,0.477146,0.247988,0.074331,0.18656,43.068732,16.441433,0.069146,4.63583E+18,0.570938,0.417128,0.575079,-0.411482,0
-9.360343,1.514697,0.808424,0.336424,-0.117907,0.092536,44.516484,-0.833416,13.335176,4.63583E+18,-0.791859,-0.074687,-0.605985,0.012801,-9.760986,-0.489283,0.178175,0.093251,0.03594,0.170699,41.657584,-14.372783,9.240284,4.63583E+18,-0.559735,0.447225,-0.567256,-0.406087,-10.178949,-0.011254,0.343891,0.248972,0.056617,0.220471,43.080938,16.150394,0.174895,4.63583E+18,0.570771,0.41834,0.574388,-0.411449,0
-9.343644,1.621828,0.86995,0.32411,-0.127656,0.100295,43.828956,-0.273142,13.531273,4.63583E+18,-0.792074,-0.075984,-0.60553,0.013374,-9.765923,-0.533182,0.115783,0.094083,0.024448,0.161981,41.584331,-14.549627,9.21659,4.63583E+18,-0.559538,0.446764,-0.567744,-0.406184,-10.148451,0.122118,0.221804,0.237487,0.044241,0.251628,43.092133,16.150394,0.354015,4.63583E+18,0.570706,0.419578,0.573631,-0.411335,0
-9.330948,1.70728,0.947686,0.301679,-0.109805,0.110934,43.250832,0.104886,13.380381,4.63583E+18,-0.79225,-0.077235,-0.60513,0.013849,-9.754704,-0.537126,0.143523,0.096942,0.008775,0.153437,41.499882,-14.484901,9.665341,4.63583E+18,-0.559398,0.44629,-0.568184,-0.406284,-10.060924,-0.004109,0.10683,0.227792,0.036145,0.284825,43.086059,16.124075,0.346929,4.63583E+18,0.570732,0.420858,0.572811,-0.411134,0
-9.27714,1.752886,1.011454,0.278813,-0.075259,0.118846,43.280712,0.132521,13.01886,4.63583E+18,-0.792345,-0.078432,-0.604843,0.01423,-9.697616,-0.514686,0.067949,0.10211,0.000605,0.148818,41.571502,-14.556519,9.884404,4.63583E+18,-0.559294,0.445801,-0.568604,-0.406375,-10.082303,0.102661,0.069195,0.202881,0.021545,0.318652,43.01889,15.826928,0.260465,4.63583E+18,0.570893,0.422134,0.571939,-0.410816,0
-9.226066,1.720762,1.0969,0.257494,-0.024975,0.128262,43.159755,0.387265,13.052606,4.63583E+18,-0.792321,-0.079585,-0.604718,0.014509,-9.748772,-0.535148,0.0386,0.095671,0.006871,0.139638,41.656947,-14.720494,9.810454,4.63583E+18,-0.559179,0.445359,-0.569011,-0.406449,-10.073132,0.281844,0.040609,0.149922,0.011041,0.348205,43.031036,15.780001,0.169891,4.63583E+18,0.571221,0.423335,0.571079,-0.41032,0
-9.209362,1.654746,1.142517,0.245435,0.035122,0.137201,42.821643,0.613904,13.349117,4.63583E+18,-0.792148,-0.080724,-0.604789,0.014709,-9.742496,-0.492251,0.002967,0.071506,0.007477,0.131006,41.663868,-14.577276,9.533299,4.63583E+18,-0.559032,0.444994,-0.569362,-0.406559,-10.106642,0.156675,0.226809,0.089228,0.002143,0.374369,43.166389,15.990766,0.159707,4.63583E+18,0.57172,0.424439,0.570253,-0.409632,0
-9.226547,1.566568,1.080522,0.241795,0.089821,0.143609,42.776657,0.378284,13.395063,4.63583E+18,-0.791837,-0.081871,-0.605037,0.014861,-9.730289,-0.409766,-0.067311,0.018385,0.006495,0.123443,41.585337,-14.484902,9.509567,4.63583E+18,-0.558802,0.44477,-0.569606,-0.406779,-10.23688,0.122152,0.307207,0.02271,-0.010409,0.406767,43.184661,15.832069,0.177979,4.63583E+18,0.572421,0.425439,0.569451,-0.408731,0
-9.295761,1.471643,0.97114,0.239701,0.118015,0.152196,43.050655,0.417072,13.239106,4.63583E+18,-0.791456,-0.083034,-0.605375,0.01497,-9.695649,-0.470148,-0.073244,-0.032245,-0.014203,0.120874,41.578415,-14.5565,9.689043,4.63583E+18,-0.558531,0.444634,-0.569711,-0.407152,-10.324352,-0.015239,0.331621,0.001959,-0.02073,0.444145,43.263039,15.680449,0.257366,4.63583E+18,0.573245,0.426458,0.568594,-0.407707,0
-9.420087,1.378487,0.912829,0.242511,0.105808,0.162203,43.40787,0.692146,13.199404,4.63583E+18,-0.791104,-0.084231,-0.605667,0.015057,-9.670244,-0.50974,-0.073244,-0.048095,-0.039578,0.111867,41.511114,-14.866294,9.615149,4.63583E+18,-0.558307,0.444513,-0.569714,-0.407588,-10.418058,-0.066996,0.355024,0.001148,-0.038357,0.493362,43.269094,15.587029,0.252415,4.63583E+18,0.574195,0.427558,0.567607,-0.406592,0
-9.480175,1.271351,0.901095,0.245674,0.053151,0.167502,43.922448,0.000888,13.321945,4.63583E+18,-0.790883,-0.085448,-0.605783,0.015154,-9.645829,-0.389323,-0.185415,-0.070728,-0.043621,0.095383,41.58369,-14.893032,9.618443,4.63583E+18,-0.558078,0.444476,-0.569637,-0.408048,-10.330598,-0.289731,0.369246,0.019795,-0.050546,0.544266,43.350393,15.264628,0.067196,4.63583E+18,0.575222,0.428803,0.566464,-0.405421,0
-9.418204,1.185905,0.955367,0.247851,0.004463,0.17138,44.447238,-1.105594,13.465701,4.63583E+18,-0.790783,-0.086679,-0.605736,0.01526,-9.621417,-0.288703,-0.307476,-0.074597,-0.053608,0.076332,41.657918,-14.747227,9.608218,4.63583E+18,-0.557898,0.444477,-0.569496,-0.40849,-10.22173,-0.510789,0.389724,0.092075,-0.067638,0.60196,43.521316,14.904327,0.006055,4.63583E+18,0.576254,0.430327,0.56505,-0.404312,0
-9.254064,1.135288,1.03312,0.252756,-0.00779,0.179095,44.60764,-1.318317,13.493223,4.63583E+18,-0.790719,-0.087629,-0.605691,0.014947,-9.697934,-0.471413,-0.115535,-0.080658,-0.059382,0.055145,41.742369,-14.655836,9.607226,4.63583E+18,-0.557757,0.444532,-0.569291,-0.408909,-10.135168,-0.318743,0.230039,0.168561,-0.085344,0.646827,43.684136,14.739603,0.059136,4.63583E+18,0.577263,0.432105,0.563382,-0.403302,0
-9.076404,1.135288,1.086923,0.247886,0.018048,0.186531,44.557022,-1.123081,13.46795,4.63583E+18,-0.790584,-0.088882,-0.605684,0.014978,-9.749743,-0.544367,-0.064017,-0.094917,-0.060798,0.027895,41.670821,-14.794668,9.528727,4.63583E+18,-0.557639,0.444682,-0.569008,-0.4093,-10.178831,0.113501,0.064187,0.200735,-0.110701,0.679319,43.764419,14.501649,-0.113762,4.63583E+18,0.578324,0.433992,0.561535,-0.402332,0
-8.991881,1.090514,1.128056,0.221893,0.054044,0.186015,44.527172,-1.257405,13.490978,4.63583E+18,-0.790365,-0.090067,-0.605795,0.014954,-9.630344,-0.526902,-0.161977,-0.095152,-0.061866,0.012878,41.596573,-14.964598,9.611498,4.63583E+18,-0.557548,0.444867,-0.568694,-0.409659,-10.288828,0.566572,-0.045679,0.187642,-0.144793,0.703898,43.917074,14.196467,-0.291971,4.63583E+18,0.579523,0.435843,0.559578,-0.40133,0
-9.039373,0.995572,1.194988,0.184073,0.06658,0.178103,44.448952,-1.482531,13.445326,4.63583E+18,-0.790128,-0.091109,-0.605951,0.014856,-9.597011,-0.6034,-0.21575,-0.037185,-0.075687,-0.002966,41.590622,-14.978484,9.529741,4.63583E+18,-0.557625,0.44493,-0.568417,-0.40987,-10.262407,0.61052,-0.160557,0.18548,-0.176671,0.716714,43.989451,13.903377,-0.288809,4.63583E+18,0.580817,0.43766,0.55752,-0.400346,0
-9.188563,0.94223,1.366331,0.13866,0.047393,0.166077,44.433142,-1.461266,13.487375,4.63583E+18,-0.789955,-0.091969,-0.606051,0.01469,-9.718358,-0.543095,0.004518,0.070971,-0.089661,-0.014084,41.657899,-14.821507,9.342373,4.63583E+18,-0.557955,0.444745,-0.568271,-0.409825,-10.234658,0.480103,-0.342483,0.204909,-0.196233,0.728038,43.915212,13.744697,-0.393484,4.63583E+18,0.582136,0.43951,0.555357,-0.399407,0
-9.309722,0.922791,1.543996,0.079208,0.038648,0.152469,44.518581,-1.367229,13.538011,4.63583E+18,-0.789828,-0.092493,-0.606146,0.014286,-9.897491,-0.357722,0.158967,0.099733,-0.098641,-0.044387,41.67508,-14.886069,9.416158,4.63583E+18,-0.558411,0.444549,-0.568098,-0.409658,-10.433161,0.532957,-0.617553,0.2033,-0.229639,0.724191,43.850852,13.566893,-0.576613,4.63583E+18,0.583523,0.441288,0.553117,-0.398532,0
-9.358551,0.960304,1.648445,0.013181,0.066222,0.149145,44.534424,-1.431866,13.538011,4.63583E+18,-0.789654,-0.092881,-0.606324,0.013828,-9.97968,-0.330596,0.126058,0.080873,-0.095414,-0.075447,41.597594,-14.893032,9.603497,4.63583E+18,-0.558877,0.444475,-0.567841,-0.409457,-10.584998,0.620571,-0.509359,0.206606,-0.245616,0.735164,44.020736,13.189344,-0.736624,4.63583E+18,0.58495,0.44307,0.550804,-0.397665,4
-9.432242,1.050282,1.72937,-0.054982,0.087231,0.148632,44.483776,-1.461289,13.538011,4.63583E+18,-0.789452,-0.093062,-0.606572,0.013215,-9.895977,-0.28476,-0.169383,0.068253,-0.102912,-0.104458,41.657883,-14.736093,9.440075,4.63583E+18,-0.559387,0.444486,-0.567492,-0.409232,-11.301717,0.543974,0.14951,0.207207,-0.295131,0.72757,44.167389,12.963425,-0.63194,4.63583E+18,0.586471,0.444748,0.548379,-0.396903,4
-9.591817,1.096402,1.794488,-0.116578,0.084229,0.13724,44.548406,-1.297629,13.57281,4.63583E+18,-0.789282,-0.092971,-0.606825,0.012433,-9.876786,-0.269559,-0.341063,0.095742,-0.127154,-0.124472,41.742347,-14.722128,9.155049,4.63583E+18,-0.560039,0.44444,-0.567096,-0.40894,-11.545193,-0.114216,0.968899,0.304232,-0.322229,0.74428,44.185616,12.786669,-0.485955,4.63583E+18,0.587898,0.446646,0.545692,-0.396363,4
-9.823741,1.110874,1.729871,-0.166778,0.044601,0.118411,44.741887,-1.330531,13.628433,4.63583E+18,-0.789229,-0.092696,-0.606951,0.01164,-9.943041,-0.481525,-0.320389,0.111019,-0.155726,-0.143695,41.603607,-14.800588,9.04147,4.63583E+18,-0.560819,0.444353,-0.566622,-0.408621,-11.534628,-0.710033,0.560269,0.467513,-0.3205,0.780154,44.270058,12.40728,-0.755491,4.63583E+18,0.589068,0.449023,0.542665,-0.396097,4
-10.04077,1.160579,1.630821,-0.240901,-0.04685,0.099223,44.822005,-1.694925,13.605846,4.63583E+18,-0.789434,-0.092116,-0.606789,0.010748,-10.005075,-0.489295,-0.194101,0.128828,-0.172797,-0.167825,41.579414,-14.583414,9.111936,4.63583E+18,-0.561714,0.444253,-0.566094,-0.408234,-11.772311,-0.672323,-0.004008,0.590661,-0.345801,0.811394,44.344302,12.022654,-1.021231,4.63583E+18,0.590106,0.451721,0.539305,-0.396072,4
-10.181407,1.252825,1.792543,-0.352886,-0.172841,0.084941,44.628537,-1.940977,13.52267,4.63583E+18,-0.789999,-0.091122,-0.606222,0.009661,-9.987654,-0.308963,-0.205528,0.117565,-0.191761,-0.180624,41.724122,-14.328057,9.298263,4.63583E+18,-0.562653,0.444175,-0.565478,-0.407878,-11.530169,0.055105,-0.075881,0.673563,-0.357518,0.844434,44.435766,11.706267,-1.141933,4.63583E+18,0.591059,0.454667,0.535707,-0.396163,4
-10.177851,1.276809,2.222461,-0.451045,-0.245239,0.079279,44.518554,-1.87639,13.42502,4.63583E+18,-0.79078,-0.08981,-0.605418,0.008402,-9.907207,-0.427461,-0.218733,0.085049,-0.206083,-0.198255,41.89401,-14.307076,9.224593,4.63583E+18,-0.563595,0.444191,-0.564739,-0.407584,-11.334474,0.650395,-0.405445,0.670411,-0.389786,0.863589,44.593443,11.407119,-1.528325,4.63583E+18,0.592103,0.457589,0.531983,-0.396258,4
-9.980802,1.284477,2.475403,-0.525224,-0.194169,0.081614,44.668611,-1.846879,13.367106,4.63583E+18,-0.791456,-0.088216,-0.604787,0.00687,-9.832955,-0.529132,-0.11886,0.07244,-0.220951,-0.214454,41.829558,-14.385534,9.048467,4.63583E+18,-0.564576,0.444248,-0.563913,-0.407308,-11.34669,0.369032,-0.753049,0.701053,-0.383466,0.870435,44.734928,11.163175,-1.972395,4.63583E+18,0.593071,0.460604,0.528195,-0.396384,4
-9.604232,1.34594,2.205263,-0.605369,-0.048098,0.085291,44.778597,-2.075127,13.372075,4.63583E+18,-0.791789,-0.086397,-0.604632,0.005102,-9.905418,-0.514709,-0.08745,0.051951,-0.239828,-0.222631,41.822563,-14.235612,9.02227,4.63583E+18,-0.565576,0.44434,-0.562991,-0.407096,-10.680353,-0.09054,-1.316309,0.824872,-0.321988,0.880785,44.814376,10.795778,-2.050844,4.63583E+18,0.59367,0.464035,0.524325,-0.396625,4
-9.266431,1.463456,1.540328,-0.702148,0.101576,0.088421,44.698123,-2.270577,13.379314,4.63583E+18,-0.791773,-0.084266,-0.604967,0.003023,-9.867583,-0.557539,-0.208728,0.036474,-0.256111,-0.23403,42.035496,-14.064727,9.021271,4.63583E+18,-0.566604,0.444467,-0.561982,-0.406922,-10.099958,0.599062,-1.9766,0.820385,-0.299595,0.874832,44.832577,10.546637,-2.065828,4.63583E+18,0.594204,0.467465,0.520514,-0.396816,4
-9.193013,1.460938,1.014231,-0.827265,0.13688,0.079132,44.585146,-2.23581,13.419049,4.63583E+18,-0.791704,-0.081704,-0.605417,0.000651,-9.785134,-0.684816,-0.186113,0.054861,-0.269191,-0.237934,42.132953,-14.129169,9.021271,4.63583E+18,-0.567702,0.444536,-0.560965,-0.40672,-9.810936,1.338883,-1.943441,0.731347,-0.250177,0.860357,44.924008,10.234498,-2.256903,4.63583E+18,0.594763,0.470716,0.516987,-0.396746,4
-9.404479,1.181614,1.000402,-0.931157,0.04509,0.067492,44.419213,-2.254655,13.521671,4.63583E+18,-0.79189,-0.078787,-0.605557,-0.00189,-9.867785,-0.639788,-0.037422,0.063476,-0.273183,-0.241139,41.994266,-14.214621,8.853168,4.63583E+18,-0.568829,0.444584,-0.559946,-0.406496,-9.042349,1.930229,-1.708817,0.653519,-0.158803,0.826105,45.06274,9.843822,-2.537701,4.63583E+18,0.595209,0.473842,0.51387,-0.396405,4
-9.686662,0.855161,1.244103,-0.96651,-0.068172,0.072741,44.359834,-2.42057,13.626557,4.63583E+18,-0.792361,-0.075767,-0.605312,-0.0045,-9.87579,-0.545152,0.154852,0.058207,-0.269524,-0.247284,42.138119,-14.064767,8.479627,4.63583E+18,-0.569947,0.444664,-0.558914,-0.406263,-8.559095,2.962227,-1.875242,0.476329,-0.035476,0.777889,44.978294,9.466197,-2.802479,4.63583E+18,0.59565,0.476622,0.511437,-0.395556,4
-9.79758,0.621351,1.342406,-0.983979,-0.121462,0.084419,44.475075,-2.514725,13.605064,4.63583E+18,-0.792957,-0.072645,-0.604887,-0.007276,-9.741342,-0.514718,0.282943,0.042975,-0.266232,-0.249771,42.219386,-13.737011,8.268261,4.63583E+18,-0.571033,0.44479,-0.557857,-0.406052,-8.152786,3.586219,-2.232957,0.239657,0.104821,0.715238,44.919019,9.247226,-2.858002,4.63583E+18,0.59615,0.478908,0.509859,-0.394076,4
-9.810196,0.497817,1.226757,-1.032531,-0.082815,0.090629,44.534476,-2.618984,13.340239,4.63583E+18,-0.793457,-0.069435,-0.604568,-0.010128,-9.583632,-0.602353,0.517083,0.053423,-0.270871,-0.247986,42.135767,-13.484808,8.240999,4.63583E+18,-0.572144,0.444879,-0.556809,-0.405829,-8.005824,3.498871,-2.171872,-0.013479,0.234477,0.643956,45.016677,9.161014,-2.561274,4.63583E+18,0.596761,0.480618,0.509159,-0.391969,4
-9.913628,0.471125,1.061233,-1.092565,-0.042363,0.094631,44.419243,-2.870363,13.048497,4.63583E+18,-0.793856,-0.06605,-0.604365,-0.013138,-9.693848,-0.621574,0.839635,0.061338,-0.261506,-0.250751,42.284606,-13.621623,8.329629,4.63583E+18,-0.573252,0.444969,-0.555791,-0.405563,-8.115931,4.453687,-1.525717,-0.381704,0.335698,0.563767,45.10735,8.915157,-2.100183,4.63583E+18,0.597761,0.481399,0.509474,-0.389067,4
-10.166229,0.498628,0.978872,-1.137262,-0.086723,0.098775,44.424358,-3.049975,12.939848,4.63583E+18,-0.794362,-0.062529,-0.603999,-0.016262,-9.816925,-0.521742,0.799502,0.040385,-0.255726,-0.261799,42.455506,-13.624465,8.34886,4.63583E+18,-0.574325,0.445144,-0.554728,-0.405307,-8.11639,5.06319,-0.489914,-0.839705,0.467573,0.481203,45.126519,8.526281,-1.815193,4.63583E+18,0.599257,0.48107,0.511016,-0.385129,4
-10.435855,0.638676,1.009057,-1.19899,-0.190471,0.108787,44.638718,-3.17017,12.984519,4.63583E+18,-0.795122,-0.058762,-0.603277,-0.019645,-9.894175,-0.568724,0.56943,0.02571,-0.252347,-0.266685,42.458353,-13.556247,8.338661,4.63583E+18,-0.57537,0.44537,-0.553639,-0.405067,-8.38623,5.944039,0.426944,-1.385016,0.572368,0.382141,45.230164,8.314238,-1.612886,4.63583E+18,0.601444,0.479324,0.513876,-0.380059,4
-10.458271,0.878239,1.143725,-1.272147,-0.290823,0.114092,44.769906,-3.370831,13.014977,4.63583E+18,-0.796131,-0.05483,-0.602191,-0.023131,-9.8554,-0.69696,0.370115,0.04613,-0.249143,-0.258216,42.614166,-13.539017,8.16964,4.63583E+18,-0.57643,0.445532,-0.552606,-0.404793,-8.518781,5.300033,1.755557,-1.839527,0.715791,0.276193,45.387127,8.337368,-1.324231,4.63583E+18,0.604029,0.476414,0.517997,-0.373977,4
-10.225114,1.136894,1.294788,-1.339949,-0.327347,0.112754,44.813377,-3.550475,12.924556,4.63583E+18,-0.797222,-0.050672,-0.60096,-0.026774,-9.81774,-0.932264,0.57825,0.074554,-0.242011,-0.251537,42.785217,-13.616492,7.975158,4.63583E+18,-0.577513,0.445621,-0.551649,-0.404455,-8.52317,4.325266,2.916542,-2.151378,0.871121,0.19294,45.382161,8.465979,-0.953748,4.63583E+18,0.606717,0.472742,0.523116,-0.367095,4
-9.9131,1.351254,1.367229,-1.421663,-0.27452,0.107648,44.783601,-3.601184,12.831864,4.63583E+18,-0.798171,-0.046227,-0.599875,-0.030612,-9.758689,-0.67186,0.822417,0.07102,-0.230609,-0.24709,42.64218,-13.320719,7.779824,4.63583E+18,-0.578556,0.445726,-0.55072,-0.404115,-8.848794,3.886674,3.97899,-2.389095,0.983623,0.123225,45.334033,8.391741,-0.649146,4.63583E+18,0.609457,0.468441,0.528964,-0.359614,4
-9.709065,1.472526,1.312656,-1.511777,-0.179067,0.105313,44.740131,-3.665679,12.741461,4.63583E+18,-0.798867,-0.041466,-0.599073,-0.034682,-9.63039,-0.534879,0.875945,0.049897,-0.224747,-0.236932,42.617039,-12.979944,7.663006,4.63583E+18,-0.579527,0.445868,-0.549788,-0.403835,-9.138456,3.049422,5.298835,-2.468256,1.098475,0.064256,45.432673,8.307292,-0.046709,4.63583E+18,0.611936,0.463922,0.535274,-0.35184,4
-9.648809,1.441987,1.094059,-1.595886,-0.100902,0.108585,44.769894,-3.928531,12.614048,4.63583E+18,-0.799349,-0.03642,-0.598494,-0.038988,-9.563377,-0.816411,0.9462,0.024523,-0.215482,-0.229194,42.694523,-12.952055,7.654042,4.63583E+18,-0.580416,0.446069,-0.548848,-0.403615,-9.519149,2.318739,6.338983,-2.447209,1.192807,0.026962,45.535596,8.233064,0.868085,4.63583E+18,0.614035,0.459447,0.541802,-0.343977,4
-9.685811,1.295512,0.732449,-1.688807,-0.056445,0.119499,44.848092,-4.343542,12.482834,4.63583E+18,-0.799694,-0.03108,-0.598018,-0.043574,-9.692931,-0.819888,0.929755,0.022431,-0.203907,-0.227603,42.54454,-13.030534,7.743732,4.63583E+18,-0.581272,0.446289,-0.547935,-0.403382,-9.791705,2.151102,7.138494,-2.358207,1.254071,-0.009186,45.559021,8.154546,1.612438,4.63583E+18,0.615696,0.455146,0.548361,-0.336246,4
-9.808618,1.183746,0.426143,-1.808521,-0.072255,0.133616,44.89883,-4.689131,12.444302,4.63583E+18,-0.800047,-0.025375,-0.597434,-0.048506,-9.794565,-0.571278,0.692355,-0.006995,-0.205891,-0.223592,42.384866,-12.891778,7.662022,4.63583E+18,-0.582069,0.446567,-0.546974,-0.403228,-10.10015,1.897423,8.014036,-2.136802,1.306433,-0.041543,45.565285,8.147614,2.085181,4.63583E+18,0.616698,0.451361,0.55474,-0.328969,4
-10.028724,1.102879,0.376881,-1.924754,-0.18016,0.155711,44.834383,-4.938237,12.377191,4.63583E+18,-0.800628,-0.01936,-0.596428,-0.053788,-9.802545,-0.639011,0.660197,-0.054733,-0.217923,-0.215396,42.506415,-12.486468,7.474686,4.63583E+18,-0.582791,0.446921,-0.545918,-0.403225,-10.315596,1.830785,8.934179,-1.823663,1.345809,-0.053379,45.499299,8.062162,2.674766,4.63583E+18,0.616945,0.448359,0.56076,-0.322338,4
-10.220633,1.0178,0.548157,-2.010244,-0.308413,0.193628,44.675686,-5.189635,12.199037,4.63583E+18,-0.80147,-0.013183,-0.594932,-0.059397,-9.824964,-0.938447,0.423795,-0.107791,-0.226817,-0.203908,42.675322,-12.451551,7.369045,4.63583E+18,-0.583413,0.447362,-0.544771,-0.403386,-10.598993,1.966381,9.187231,-1.471849,1.368068,-0.066714,45.375261,7.989575,3.435837,4.63583E+18,0.616416,0.446222,0.566347,-0.316494,4
-10.234022,0.949145,0.691234,-2.075999,-0.373347,0.245596,44.616134,-5.40403,12.097537,4.63583E+18,-0.802406,-0.00695,-0.593154,-0.06531,-9.670042,-1.042844,0.313177,-0.120001,-0.2334,-0.197064,42.767749,-12.67572,7.450732,4.63583E+18,-0.584016,0.447805,-0.5436,-0.403603,-10.621772,1.979577,9.096533,-1.11362,1.351094,-0.084903,45.248545,8.056886,4.098339,4.63583E+18,0.615199,0.444913,0.571415,-0.311557,4
-10.07955,0.866358,0.650846,-2.148793,-0.380164,0.305009,44.696627,-5.604669,12.062841,4.63583E+18,-0.803273,-0.000582,-0.591284,-0.071655,-9.700884,-0.859318,0.350013,-0.124623,-0.257459,-0.184772,42.920432,-12.550009,7.279412,4.63583E+18,-0.584642,0.44819,-0.542383,-0.403905,-10.461829,2.052376,8.616979,-0.744009,1.324362,-0.092521,45.34027,8.056886,4.660811,4.63583E+18,0.613321,0.444477,0.575924,-0.307553,4
-9.879639,0.790449,0.509679,-2.243957,-0.377153,0.364794,44.740131,-5.918218,11.94269,4.63583E+18,-0.804048,0.005927,-0.589344,-0.078389,-9.906633,-0.797478,0.264349,-0.169106,-0.274271,-0.175876,43.000688,-12.301631,7.173739,4.63583E+18,-0.585207,0.448634,-0.541067,-0.40436,-9.981437,2.709622,7.537676,-0.447797,1.310012,-0.11501,45.343924,8.075671,5.226707,4.63583E+18,0.61088,0.444705,0.580039,-0.30433,4
-9.758306,0.677929,0.506189,-2.337353,-0.400112,0.420535,44.774823,-6.33324,11.692504,4.63583E+18,-0.804781,0.012602,-0.587241,-0.085534,-9.879791,-1.006414,0.05463,-0.196575,-0.296175,-0.177137,42.93944,-12.280647,7.165746,4.63583E+18,-0.585771,0.44911,-0.539646,-0.404913,-9.181762,3.763292,6.398563,-0.330113,1.298821,-0.154143,45.112999,8.28784,5.694844,4.63583E+18,0.608178,0.445112,0.584029,-0.301503,4
-9.724345,0.489133,0.590911,-2.410791,-0.427154,0.470674,44.790893,-6.683865,11.286635,4.63583E+18,-0.805475,0.019388,-0.584963,-0.093021,-9.931824,-0.991801,-0.030619,-0.196714,-0.332334,-0.171429,42.933437,-12.123752,6.896781,4.63583E+18,-0.586404,0.449511,-0.538146,-0.405547,-8.45228,4.671395,5.301334,-0.498943,1.23902,-0.244198,44.918937,8.270695,6.089071,4.63583E+18,0.605801,0.444785,0.588227,-0.298599,4
-9.682406,0.200762,0.523833,-2.48045,-0.426667,0.516634,44.705445,-7.004627,10.862418,4.63583E+18,-0.806056,0.02628,-0.582599,-0.100808,-10.004067,-0.865524,-0.014209,-0.223015,-0.355991,-0.166981,42.630851,-12.188192,6.603804,4.63583E+18,-0.587032,0.449924,-0.53655,-0.406294,-7.759426,3.163282,5.253665,-0.77384,1.103375,-0.421452,44.99685,8.215222,6.654916,4.63583E+18,0.604025,0.443145,0.592733,-0.295709,4
-9.611823,-0.131472,0.29119,-2.537271,-0.400631,0.568366,44.689362,-7.45433,10.540812,4.63583E+18,-0.806451,0.033243,-0.580237,-0.108893,-9.864399,-1.022601,0.200697,-0.236164,-0.3794,-0.154865,42.07718,-12.363279,6.579791,4.63583E+18,-0.587665,0.450302,-0.534896,-0.407143,-7.007624,-1.257379,5.881244,-0.966835,0.938496,-0.722625,44.842487,8.374512,7.10729,4.63583E+18,0.602619,0.440056,0.597597,-0.293393,4
-9.622447,-0.445851,0.12473,-2.568618,-0.392739,0.619141,44.80454,-8.019241,10.284457,4.63583E+18,-0.806692,0.040233,-0.57782,-0.117278,-9.851375,-1.104862,0.331787,-0.248894,-0.400938,-0.143028,42.254198,-11.986119,6.478942,4.63583E+18,-0.588299,0.450645,-0.533186,-0.408088,-5.345857,-5.882051,6.003892,-0.72163,0.853163,-1.050411,44.605241,8.686598,7.306176,4.63583E+18,0.600549,0.436646,0.602522,-0.292659,4
-9.744863,-0.687321,0.27032,-2.581249,-0.414626,0.652963,44.834437,-8.579312,10.023173,4.63583E+18,-0.806877,0.047111,-0.575261,-0.125721,-9.705705,-0.909177,0.308191,-0.273478,-0.425243,-0.131278,43.316339,-11.401984,6.2122,4.63583E+18,-0.588919,0.450979,-0.531395,-0.409159,-5.514049,-4.618556,4.506191,-0.421861,0.749009,-1.27078,44.460348,9.083146,7.699388,4.63583E+18,0.597902,0.433287,0.607197,-0.293405,4
-9.863924,-0.907023,0.486335,-2.566176,-0.428902,0.665688,44.740131,-8.929934,9.710085,4.63583E+18,-0.806987,0.053911,-0.572591,-0.134186,-9.647862,-1.260874,0.506858,-0.305973,-0.447847,-0.112668,44.036951,-12.181984,6.032297,4.63583E+18,-0.589493,0.451311,-0.529525,-0.410389,-7.56918,-3.039843,3.456863,-0.718311,0.558728,-1.532929,44.464678,9.559774,8.245116,4.63583E+18,0.595924,0.42827,0.612208,-0.294381,4
-9.905155,-1.077241,0.497514,-2.545336,-0.402422,0.670625,44.769841,-9.25066,9.376219,4.63583E+18,-0.806936,0.060632,-0.569952,-0.142592,-9.688664,-1.361208,0.401675,-0.32242,-0.465376,-0.096382,44.193975,-13.331809,5.872599,4.63583E+18,-0.590043,0.451615,-0.527612,-0.411726,-7.737721,-1.777165,2.295387,-1.405922,0.426484,-1.809252,44.373322,10.163647,8.605431,4.63583E+18,0.595126,0.420647,0.618181,-0.294504,4
-9.902509,-1.174901,0.375097,-2.533355,-0.355222,0.675069,44.749008,-9.730082,9.112608,4.63583E+18,-0.806675,0.067321,-0.56741,-0.150958,-9.535823,-1.243986,0.480268,-0.32757,-0.484427,-0.077419,44.292639,-13.41694,5.321766,4.63583E+18,-0.59059,0.451855,-0.525675,-0.413155,-7.989943,0.002355,1.458982,-2.304399,0.288728,-2.046086,44.214625,10.553295,8.897422,4.63583E+18,0.59589,0.409961,0.62525,-0.293104,4
-9.878094,-1.267608,0.226304,-2.517303,-0.324455,0.672903,44.555652,-10.308781,8.856252,4.63583E+18,-0.806249,0.073974,-0.564913,-0.159258,-9.622598,-1.356176,0.533106,-0.32008,-0.49875,-0.057214,44.446299,-13.337518,5.183978,4.63583E+18,-0.591144,0.452004,-0.52375,-0.414641,-7.967822,0.561381,1.457504,-3.137505,0.198276,-2.290615,44.042185,10.951343,9.186025,4.63583E+18,0.597885,0.396369,0.633397,-0.290232,4
-9.848729,-1.392663,0.121734,-2.492879,-0.32934,0.674061,44.445189,-10.790738,8.634566,4.63583E+18,-0.805749,0.080516,-0.562351,-0.167474,-9.698856,-1.445646,0.73877,-0.309574,-0.505774,-0.043781,44.459362,-13.487318,5.276761,4.63583E+18,-0.591706,0.452083,-0.521848,-0.416148,-8.508717,0.213936,2.30586,-3.884947,0.088393,-2.519046,43.71357,11.591606,9.571331,4.63583E+18,0.600937,0.380051,0.64235,-0.286046,4
-9.792309,-1.580712,0.110202,-2.45434,-0.363001,0.691672,44.594984,-11.120315,8.379524,4.63583E+18,-0.805224,0.086887,-0.559638,-0.1757,-9.671278,-1.21743,0.936098,-0.310655,-0.525906,-0.031944,44.53778,-13.266136,4.927327,4.63583E+18,-0.592286,0.452101,-0.519914,-0.417722,-8.805031,-0.655311,3.465723,-4.46586,-0.008672,-2.705718,43.39622,12.416145,10.028283,4.63583E+18,0.60469,0.361503,0.651775,-0.28081,4
-9.721708,-1.73643,0.181139,-2.40584,-0.403503,0.722475,44.735181,-11.454865,8.006044,4.63583E+18,-0.804705,0.092952,-0.556777,-0.183871,-9.645861,-1.129119,0.963379,-0.328473,-0.542366,-0.034897,44.544815,-13.245032,4.715951,4.63583E+18,-0.592868,0.452138,-0.517898,-0.419356,-8.984649,-1.925476,4.182814,-4.831986,-0.115761,-2.850094,43.06617,13.024889,10.422292,4.63583E+18,0.608806,0.341332,0.661243,-0.274965,4
-9.648128,-1.804388,0.271541,-2.35324,-0.416721,0.749062,44.599224,-11.861023,7.605171,4.63583E+18,-0.804129,0.098757,-0.553861,-0.191996,-9.856668,-1.089478,0.751566,-0.328098,-0.558389,-0.028388,44.556016,-13.480253,4.610242,4.63583E+18,-0.593471,0.452129,-0.515852,-0.421032,-8.996408,-2.645786,4.56806,-4.968058,-0.211726,-2.957466,42.603755,13.46485,11.003937,4.63583E+18,0.612912,0.320213,0.670405,-0.268999,4
-9.518476,-1.843647,0.319702,-2.299896,-0.392213,0.756884,44.375891,-12.326836,7.193132,4.63583E+18,-0.803425,0.104374,-0.551013,-0.199998,-9.9878,-1.041655,0.441219,-0.324981,-0.589112,-0.025812,44.478614,-13.422981,4.333367,4.63583E+18,-0.594136,0.452049,-0.513737,-0.422762,-9.149729,-3.295486,4.728645,-4.862938,-0.277637,-3.032223,42.304476,13.794459,11.666457,4.63583E+18,0.616624,0.298889,0.678995,-0.263449,4
-9.364742,-1.874992,0.255708,-2.252469,-0.335839,0.751486,44.354768,-12.741848,6.834203,4.63583E+18,-0.802535,0.109879,-0.548335,-0.207829,-9.706672,-1.205624,0.493449,-0.312957,-0.612333,-0.022696,44.538768,-13.180744,3.950825,4.63583E+18,-0.594864,0.451889,-0.511586,-0.424515,-9.380668,-3.097717,4.589951,-4.599384,-0.300705,-3.080625,42.04715,14.411609,12.2211,4.63583E+18,0.619677,0.277915,0.686922,-0.258655,4
-9.238042,-1.882577,0.128683,-2.185351,-0.253966,0.739737,44.398327,-13.191545,6.547141,4.63583E+18,-0.80143,0.115224,-0.545935,-0.215381,-9.725269,-1.489529,0.634898,-0.29524,-0.636724,-0.020471,44.556014,-13.159581,3.571391,4.63583E+18,-0.595668,0.451632,-0.509407,-0.426278,-9.601405,-2.462396,3.963856,-4.267415,-0.292583,-3.107116,41.509501,15.094786,12.697242,4.63583E+18,0.621975,0.257588,0.694191,-0.254742,4
-9.2047,-1.904355,-0.010529,-2.109342,-0.192358,0.731018,44.334021,-13.657363,6.336685,4.63583E+18,-0.800156,0.120381,-0.543755,-0.222688,-9.7517,-0.99854,0.613394,-0.30844,-0.651492,-0.027155,44.321832,-13.081184,3.439351,4.63583E+18,-0.596485,0.451393,-0.507149,-0.428077,-9.838236,-1.982445,3.184594,-3.963595,-0.264126,-3.116725,41.127208,15.626036,13.180176,4.63583E+18,0.623565,0.237928,0.700901,-0.251583,4
-9.221222,-1.938975,-0.087768,-2.070799,-0.199152,0.719389,44.274248,-14.003145,6.028576,4.63583E+18,-0.798852,0.125434,-0.541532,-0.22988,-9.753716,-0.817799,0.677559,-0.302904,-0.681054,-0.027772,43.908732,-12.469428,3.329497,4.63583E+18,-0.59737,0.451084,-0.504823,-0.429914,-10.139975,-1.711941,2.710512,-3.669504,-0.227642,-3.099977,40.954351,16.094751,13.750448,4.63583E+18,0.624511,0.219013,0.707086,-0.249095,4
-9.23174,-1.999698,-0.038625,-2.051424,-0.237874,0.705613,44.354755,-14.286859,5.696974,4.63583E+18,-0.797593,0.130403,-0.539147,-0.236983,-9.865696,-1.567156,0.896378,-0.271911,-0.694393,-0.028752,43.481475,-11.731848,2.950878,4.63583E+18,-0.598338,0.450671,-0.502511,-0.431705,-10.530117,-1.116697,2.264701,-3.411826,-0.188932,-3.060112,40.453837,16.632373,14.407198,4.63583E+18,0.624909,0.200838,0.712797,-0.247131,4
-9.34423,-2.029057,-0.002628,-2.028425,-0.248649,0.697189,44.363711,-14.65832,5.386547,4.63583E+18,-0.796314,0.135291,-0.536701,-0.243993,-9.819806,-1.120743,0.960342,-0.253498,-0.704182,-0.021982,43.065461,-11.52472,2.727225,4.63583E+18,-0.599343,0.450177,-0.500216,-0.433488,-10.766447,-0.267555,1.893114,-3.205379,-0.148557,-2.990213,39.690154,17.310119,14.894513,4.63583E+18,0.624865,0.183379,0.718092,-0.24548,4
-9.453781,-2.016234,-0.044192,-1.985013,-0.241118,0.680992,44.2486,-15.073342,4.948506,4.63583E+18,-0.794996,0.140069,-0.534271,-0.250833,-9.9379,-0.839151,1.065142,-0.264817,-0.72261,-0.020383,42.896755,-11.89222,2.452553,4.63583E+18,-0.600356,0.44967,-0.497853,-0.435329,-10.907064,0.661072,1.590416,-3.06307,-0.125571,-2.900843,39.167704,17.90871,15.361765,4.63583E+18,0.624532,0.16652,0.723001,-0.243926,4
-9.635797,-1.930783,-0.097965,-1.956644,-0.217282,0.670973,44.084959,-15.38951,4.466073,4.63583E+18,-0.793589,0.144789,-0.531902,-0.257549,-10.005003,-1.220872,1.119027,-0.260092,-0.737917,-0.004624,43.030127,-11.76992,2.071072,4.63583E+18,-0.601375,0.449086,-0.495484,-0.437225,-10.993942,1.623356,1.174432,-2.999439,-0.1339,-2.789129,39.087645,18.366698,15.728924,4.63583E+18,0.624106,0.1501,0.72753,-0.242203,4
-9.972644,-1.899715,-0.178774,-1.95878,-0.207812,0.657873,43.919006,-15.624672,4.213571,4.63583E+18,-0.792117,0.149542,-0.529516,-0.2642,-10.010071,-1.402898,1.402956,-0.212541,-0.768545,0.010509,43.423933,-11.520634,1.680396,4.63583E+18,-0.602513,0.448291,-0.493147,-0.439112,-11.226408,2.821782,0.716888,-3.034555,-0.152999,-2.655941,38.897717,18.762251,16.123976,4.63583E+18,0.623712,0.133931,0.73175,-0.239973,4
-10.223137,-1.968312,-0.22932,-1.960051,-0.263412,0.648621,43.789978,-16.023447,4.098469,4.63583E+18,-0.790717,0.154244,-0.526899,-0.270838,-9.909326,-1.326509,1.495429,-0.182823,-0.773162,0.037215,43.391194,-11.723249,1.480093,4.63583E+18,-0.603659,0.447353,-0.490898,-0.44101,-11.30165,3.726578,-0.101376,-3.158521,-0.182904,-2.499929,38.348446,19.20803,16.693305,4.63583E+18,0.623455,0.117851,0.735722,-0.236914,4
-10.312934,-2.051143,-0.237182,-1.962214,-0.347743,0.664519,43.674869,-16.425096,3.816205,4.63583E+18,-0.789423,0.15881,-0.523971,-0.277569,-10.056897,-1.385553,1.434357,-0.171703,-0.789988,0.063025,42.780725,-11.900215,1.106734,4.63583E+18,-0.604807,0.446298,-0.48867,-0.442976,-11.116591,4.223184,-1.090115,-3.336807,-0.209999,-2.317065,37.818594,19.56795,17.080502,4.63583E+18,0.62337,0.101804,0.7395,-0.232777,4
-10.352171,-2.072641,-0.21653,-1.971878,-0.413171,0.692517,43.540896,-16.543063,3.302953,4.63583E+18,-0.788173,0.163255,-0.520796,-0.284434,-10.149463,-1.044644,1.596169,-0.199307,-0.816963,0.081807,42.669944,-12.071135,0.716058,4.63583E+18,-0.605917,0.44522,-0.486351,-0.445091,-10.87887,4.669009,-2.375258,-3.567599,-0.202698,-2.118948,37.520232,19.708594,17.583405,4.63583E+18,0.623369,0.085744,0.743219,-0.227344,4
-10.502129,-2.00144,0.120005,-1.964555,-0.444603,0.713777,43.482769,-16.665116,2.80598,4.63583E+18,-0.786911,0.167575,-0.5175,-0.291348,-10.828099,-0.352868,1.924762,-0.262598,-0.893698,0.128365,43.963183,-12.902369,0.459768,4.63583E+18,-0.60697,0.444059,-0.483801,-0.447588,-10.290061,5.06977,-3.819558,-3.853257,-0.171091,-1.914955,37.282041,19.768211,18.254739,4.63583E+18,0.623367,0.069581,0.746985,-0.220421,4
-10.659388,-1.904063,0.634209,-1.916409,-0.450123,0.711081,43.547007,-17.1517,2.405143,4.63583E+18,-0.785635,0.171724,-0.514202,-0.298135,-9.758728,0.154656,2.826071,-0.441423,-0.902407,0.14518,44.853102,-13.50244,0.103741,4.63583E+18,-0.607669,0.443293,-0.480918,-0.450497,-9.676239,5.734806,-4.971673,-4.196039,-0.117862,-1.710428,36.843987,19.646233,18.927119,4.63583E+18,0.623271,0.053192,0.750892,-0.211814,4
-10.536174,-1.763991,0.881546,-1.899799,-0.431307,0.690127,43.577246,-17.596951,1.988093,4.63583E+18,-0.784298,0.175873,-0.510932,-0.304786,-10.159699,-1.170114,1.304895,-0.558036,-0.957426,0.154171,44.08384,-12.945846,-0.553512,4.63583E+18,-0.608233,0.442692,-0.477684,-0.453756,-9.16645,6.429312,-5.444938,-4.552963,-0.042109,-1.498898,36.588505,19.244366,19.617534,4.63583E+18,0.622968,0.036581,0.754979,-0.201444,4
-10.287392,-1.522477,0.888531,-1.934946,-0.349537,0.663605,43.379052,-17.784137,1.656478,4.63583E+18,-0.782737,0.180281,-0.507827,-0.311341,-10.731359,-1.047786,1.170894,-0.542707,-1.022132,0.221467,43.235521,-12.141231,-0.990859,4.63583E+18,-0.608813,0.441786,-0.474428,-0.457263,-8.728293,6.659415,-5.557968,-4.792248,0.032228,-1.269938,36.619297,18.859601,20.408855,4.63583E+18,0.622401,0.020112,0.759113,-0.189631,4
-10.131861,-1.357065,0.76793,-1.95565,-0.223332,0.642136,43.162197,-18.00297,1.380628,4.63583E+18,-0.780864,0.184949,-0.505053,-0.317751,-10.779137,-1.30519,1.47406,-0.632527,-1.047142,0.236328,43.322048,-11.983596,-1.293999,4.63583E+18,-0.609234,0.44102,-0.470953,-0.46102,-8.757431,6.575486,-5.124462,-4.918881,0.099618,-0.982544,36.551593,18.522783,21.459664,4.63583E+18,0.621587,0.004265,0.763171,-0.176585,4
-10.139976,-1.400037,0.513915,-1.993687,-0.125086,0.632066,43.033144,-18.353792,1.072564,4.63583E+18,-0.77871,0.189878,-0.502503,-0.324112,-11.327483,-1.252272,1.020309,-0.67516,-1.112568,0.28413,43.425807,-12.512617,-1.922699,4.63583E+18,-0.609595,0.44013,-0.467303,-0.465089,-9.090631,6.354366,-4.475534,-4.859645,0.142647,-0.641699,36.130166,17.942796,22.484794,4.63583E+18,0.620617,-0.010309,0.766963,-0.162776,4
-10.284402,-1.681345,0.27994,-2.047581,-0.081791,0.605218,42.918068,-18.540992,0.740936,4.63583E+18,-0.776398,0.195079,-0.499959,-0.33044,-12.563375,-1.446564,1.345842,-0.669462,-1.158493,0.333437,43.221342,-12.785205,-2.51469,4.63583E+18,-0.60994,0.439026,-0.463623,-0.469342,-9.092236,6.079747,-3.840083,-4.571667,0.176484,-0.262888,35.814012,17.144553,23.088709,4.63583E+18,0.619577,-0.022976,0.770363,-0.148787,4
-10.603179,-2.045236,-0.011815,-2.064477,-0.045135,0.564041,42.818632,-18.690642,0.460166,4.63583E+18,-0.773993,0.200453,-0.497439,-0.336613,-13.006923,-1.543204,0.842416,-0.663766,-1.199345,0.376692,43.202,-12.805566,-2.832065,4.63583E+18,-0.61027,0.43773,-0.459914,-0.473753,-9.648128,6.943503,-3.638776,-4.272056,0.204865,0.110759,35.931237,16.283246,23.79115,4.63583E+18,0.618478,-0.033573,0.773424,-0.134807,4
-11.172787,-2.566842,-0.468405,-2.057661,0.022647,0.532454,42.811363,-18.97428,0.184347,4.63583E+18,-0.771436,0.205948,-0.49508,-0.342589,-12.780157,-0.487372,1.062021,-0.678985,-1.215462,0.400821,43.750268,-13.409779,-3.181017,4.63583E+18,-0.610533,0.436379,-0.456161,-0.478267,-9.869223,7.055879,-3.63547,-3.915189,0.216988,0.469565,35.991305,15.349112,24.823117,4.63583E+18,0.617407,-0.042079,0.77614,-0.121017,4
-11.888578,-3.259739,-0.744652,-2.041725,0.024921,0.495181,42.811363,-19.242009,-0.084196,4.63583E+18,-0.768883,0.211454,-0.492681,-0.348385,-12.946931,-0.368261,1.589915,-0.766557,-1.247947,0.412481,44.35956,-14.147229,-3.814695,4.63583E+18,-0.610652,0.435148,-0.452155,-0.483017,-10.122844,7.007536,-3.485273,-3.391869,0.243369,0.823086,36.050758,14.470975,25.461138,4.63583E+18,0.616371,-0.048073,0.778534,-0.107985,4
-12.595799,-3.746417,-0.828578,-2.023732,-0.05406,0.444341,42.776805,-19.306906,-0.402128,4.63583E+18,-0.766524,0.216873,-0.489973,-0.354024,-13.445338,0.014163,2.049741,-0.841954,-1.31639,0.455467,44.421721,-14.354859,-4.664081,4.63583E+18,-0.610651,0.433871,-0.447881,-0.488123,-9.185638,6.453244,-3.646633,-2.811167,0.251723,1.129369,36.228066,13.463562,25.585506,4.63583E+18,0.615446,-0.05157,0.780605,-0.096032,4
-13.040897,-3.95079,-1.001534,-2.020662,-0.153388,0.419192,42.691361,-19.297832,-0.822341,4.63583E+18,-0.764353,0.222168,-0.486894,-0.359639,-13.791252,0.440403,1.86371,-0.899993,-1.35663,0.486714,44.2773,-14.368114,-5.094482,4.63583E+18,-0.610527,0.432581,-0.443421,-0.493466,-11.06366,5.800705,-3.26973,-2.184905,0.374761,1.406279,36.326331,12.536169,25.901684,4.63583E+18,0.614279,-0.052505,0.782692,-0.08542,4
-13.265544,-3.878069,-0.852197,-1.967486,-0.318777,0.426623,42.571377,-19.452359,-1.251637,4.63583E+18,-0.762499,0.227014,-0.483339,-0.365299,-13.561492,0.353038,1.183317,-0.949747,-1.34507,0.489212,44.118619,-14.603029,-5.47389,4.63583E+18,-0.610255,0.431415,-0.438871,-0.498861,-10.467159,-4.40572,-5.978794,-1.990891,0.411098,1.069447,36.282956,11.767531,26.473093,4.63583E+18,0.612852,-0.054025,0.784648,-0.076301,4
-13.489906,-3.420966,0.22026,-1.843641,-0.591982,0.389113,42.469555,-19.610158,-1.674796,4.63583E+18,-0.761318,0.231108,-0.479035,-0.370823,-13.716992,-0.116832,0.686814,-0.900022,-1.341772,0.503894,43.814504,-14.769891,-6.210278,4.63583E+18,-0.610005,0.430081,-0.434436,-0.504172,-7.991708,-22.673226,-6.462047,-1.756475,0.439911,0.548682,36.165709,11.150746,26.852769,4.63583E+18,0.611169,-0.056636,0.786425,-0.069279,4
-13.632286,-2.953647,2.405232,-1.686996,-0.711624,0.284333,42.495844,-19.58575,-2.205554,4.63583E+18,-0.760656,0.234692,-0.474473,-0.375762,-14.438067,-0.27056,0.613433,-0.874553,-1.34453,0.53264,43.653721,-14.86147,-6.990531,4.63583E+18,-0.609715,0.428604,-0.430077,-0.50949,-8.426638,-20.760871,-7.531685,-0.930839,0.646055,0.697526,36.110463,10.607209,26.969392,4.63583E+18,0.609021,-0.056595,0.788488,-0.064629,4
-13.271015,-2.592137,4.242862,-1.542183,-0.357747,0.184631,42.462244,-19.649206,-2.612748,4.63583E+18,-0.759539,0.238575,-0.471127,-0.379766,-14.748435,-0.101832,0.375513,-0.807113,-1.361434,0.557649,43.641468,-14.935719,-7.581511,4.63583E+18,-0.609493,0.426854,-0.425842,-0.514755,-10.827341,-5.589902,-7.57079,-0.975081,0.606371,0.892523,36.111105,10.131174,27.1724,4.63583E+18,0.607024,-0.056034,0.790482,-0.059328,4
-12.236287,-1.912919,3.567888,-1.559408,0.452938,0.154943,42.266757,-19.856543,-2.704786,4.63583E+18,-0.756824,0.243846,-0.470266,-0.382892,-14.278829,-0.297962,-0.484841,-0.82362,-1.306194,0.573411,43.428957,-15.020155,-8.166495,4.63583E+18,-0.60908,0.425216,-0.421719,-0.519968,-11.720373,1.851382,-4.766031,-1.121946,0.602688,1.001898,35.989355,9.643518,27.465376,4.63583E+18,0.605007,-0.055484,0.792497,-0.053263,4
-11.196078,-1.149886,0.610643,-1.768118,1.122067,0.219338,42.096216,-19.878574,-2.619002,4.63583E+18,-0.752435,0.2507,-0.471219,-0.385931,-13.965396,-0.116065,-1.758322,-0.861889,-1.285345,0.58445,43.185829,-15.183902,-8.83075,4.63583E+18,-0.60851,0.423681,-0.417566,-0.525214,-10.615305,3.648056,-4.844066,-0.953826,0.600157,1.183116,36.020516,9.008409,27.759318,4.63583E+18,0.60305,-0.053909,0.794474,-0.047293,4
-10.709288,-1.266249,-1.831507,-1.956747,0.854524,0.336246,42.054504,-19.856513,-2.467432,4.63583E+18,-0.748131,0.257463,-0.471116,-0.389953,-14.186892,-0.410798,-2.952535,-0.864221,-1.280978,0.592195,43.187745,-15.500172,-9.412615,4.63583E+18,-0.607882,0.422128,-0.413412,-0.530451,-10.810295,1.510794,-3.263543,-0.806028,0.528536,1.266177,36.123635,8.252202,28.055826,4.63583E+18,0.601352,-0.051701,0.796225,-0.041586,4
-10.797096,-2.410901,-2.04716,-2.087776,-0.169369,0.451258,42.122824,-20.094048,-2.609819,4.63583E+18,-0.745452,0.262719,-0.467695,-0.395653,-13.851549,-0.808519,-4.572794,-0.813247,-1.283645,0.581079,43.044409,-15.762668,-9.807423,4.63583E+18,-0.607344,0.42044,-0.409325,-0.535552,-10.503131,-3.383487,-1.683098,-0.506149,0.429661,1.275644,36.141309,7.799921,28.251123,4.63583E+18,0.600025,-0.048725,0.797647,-0.036826,4
-10.881718,-3.750344,-0.494299,-2.157408,-0.982787,0.534651,42.207944,-20.330749,-3.374973,4.63583E+18,-0.744077,0.266663,-0.461681,-0.402605,-13.32671,-1.312014,-5.595547,-0.699969,-1.302506,0.593704,42.818612,-15.851273,-10.286503,4.63583E+18,-0.606981,0.418383,-0.405447,-0.540501,-11.035749,-5.176693,-0.940628,-0.077662,0.313623,1.337197,36.09182,7.482529,28.438742,4.63583E+18,0.599159,-0.044489,0.798698,-0.033312,4
-10.696759,-4.597259,1.861896,-2.056171,-1.233873,0.572082,42.090643,-20.354836,-4.396276,4.63583E+18,-0.743157,0.269772,-0.455051,-0.40972,-13.046831,-2.093038,-6.716374,-0.646973,-1.325734,0.566584,42.65379,-16.013966,-10.85302,4.63583E+18,-0.606785,0.416168,-0.401564,-0.54531,-11.586147,-4.077444,-0.918271,0.435393,0.234177,1.445526,36.177272,7.184387,28.521004,4.63583E+18,0.598647,-0.038622,0.799472,-0.031218,4
-10.566357,-4.388157,3.842586,-1.932467,-1.197838,0.589524,41.797521,-20.31312,-5.045839,4.63583E+18,-0.742205,0.272496,-0.448718,-0.41657,-12.39911,-2.373167,-7.851652,-0.423859,-1.352168,0.578658,42.428004,-16.184868,-11.437944,4.63583E+18,-0.606967,0.413291,-0.398126,-0.549798,-11.26828,-2.706247,-2.407653,1.021111,0.240152,1.56625,36.249271,7.111158,28.416647,4.63583E+18,0.598195,-0.030889,0.800163,-0.030773,4
-10.59092,-3.303721,4.598641,-1.935948,-1.124981,0.637191,41.566061,-20.391909,-5.550288,4.63583E+18,-0.740963,0.275237,-0.442617,-0.423447,-11.22349,-2.26965,-7.77929,-0.23058,-1.292771,0.560436,42.184881,-16.266316,-12.102174,4.63583E+18,-0.607401,0.410076,-0.395234,-0.553797,-10.629012,-1.619845,-4.49635,1.366925,0.277684,1.619371,36.171497,7.018685,28.255619,4.63583E+18,0.597629,-0.02211,0.800855,-0.03135,4
-10.469842,-1.604876,4.38871,-1.999001,-1.107098,0.700493,41.480616,-20.638029,-6.25316,4.63583E+18,-0.739434,0.278059,-0.436491,-0.430576,-10.461368,-1.844737,-7.316738,-0.123727,-1.266576,0.508754,42.097294,-16.350723,-12.605744,4.63583E+18,-0.608074,0.406723,-0.392552,-0.557427,-9.689904,-1.106178,-5.04764,1.460252,0.300184,1.606217,36.189469,6.702257,28.360965,4.63583E+18,0.596947,-0.013138,0.801524,-0.03227,4
-9.928605,-0.025853,4.043777,-2.011471,-1.139328,0.756645,41.321638,-20.904608,-7.045078,4.63583E+18,-0.737774,0.280731,-0.430262,-0.437897,-10.188306,-0.867659,-5.889415,-0.122207,-1.27936,0.428847,42.024053,-16.514426,-12.993419,4.63583E+18,-0.608937,0.403454,-0.389694,-0.560856,-9.227837,-0.572681,-4.189378,1.404866,0.270293,1.589129,36.274913,6.421094,28.548585,4.63583E+18,0.596312,-0.004363,0.802061,-0.033042,4
-9.040451,0.830666,4.039369,-1.99463,-1.1652,0.810351,41.138808,-21.045704,-7.820819,4.63583E+18,-0.736006,0.283177,-0.424003,-0.445339,-10.560033,0.012436,-4.241549,-0.246086,-1.337443,0.35736,41.648973,-16.68533,-13.561892,4.63583E+18,-0.609833,0.400467,-0.386266,-0.564383,-9.228104,0.029479,-3.253406,1.160946,0.20577,1.571954,36.346929,6.40862,28.616499,4.63583E+18,0.595843,0.00374,0.802412,-0.033038,4
-7.915384,0.783837,4.309635,-1.948203,-1.130574,0.847836,41.084867,-21.099644,-8.492226,4.63583E+18,-0.734091,0.285445,-0.417939,-0.452723,-11.221975,0.789645,-3.408672,-0.534211,-1.413081,0.312299,41.324418,-16.856216,-13.879518,4.63583E+18,-0.610452,0.398092,-0.381878,-0.568366,-9.370754,0.183969,-2.028083,0.899256,0.177084,1.556482,36.274912,6.231696,28.343406,4.63583E+18,0.595436,0.011138,0.80268,-0.032194,4
-6.843445,-0.013978,4.298166,-1.874606,-0.998557,0.862007,40.930877,-21.14861,-9.158348,4.63583E+18,-0.731939,0.287682,-0.412394,-0.459821,-11.514341,2.26272,-3.456591,-0.917627,-1.500736,0.249042,41.230587,-16.859455,-14.351281,4.63583E+18,-0.610696,0.396566,-0.376236,-0.572916,-9.41954,-0.38801,-1.96663,0.777879,0.192123,1.56982,36.373765,5.835354,28.189058,4.63583E+18,0.594955,0.01828,0.802956,-0.030908,4
-6.193882,-0.962015,4.063228,-1.78367,-0.813517,0.867646,40.594344,-21.277765,-9.775499,4.63583E+18,-0.729505,0.28996,-0.407558,-0.466521,-11.580706,2.247345,-3.43337,-1.236235,-1.607983,0.236692,40.922611,-16.556633,-15.197303,4.63583E+18,-0.610571,0.395589,-0.369516,-0.578074,-8.962646,-0.437271,-2.689213,0.681408,0.258432,1.551243,36.623414,5.389676,28.365462,4.63583E+18,0.594226,0.025129,0.80337,-0.029339,4
-6.116287,-1.552678,4.191185,-1.71508,-0.658849,0.868094,40.338259,-21.44866,-10.258265,4.63583E+18,-0.726836,0.292307,-0.403296,-0.472884,-11.271892,4.055676,-3.262637,-1.408261,-1.716923,0.304515,40.749509,-16.674115,-16.064972,4.63583E+18,-0.610119,0.394652,-0.362186,-0.583804,-9.337013,0.376066,-2.489311,0.528036,0.323797,1.529085,36.775159,5.163487,28.46312,4.63583E+18,0.593264,0.03153,0.803927,-0.027301,4
-6.503876,-1.824277,4.32288,-1.71675,-0.529776,0.852947,40.13757,-21.61956,-10.673435,4.63583E+18,-0.723928,0.294915,-0.399374,-0.479013,-11.276546,7.163071,-1.213123,-1.68574,-1.881614,0.214996,40.590815,-16.765753,-16.752872,4.63583E+18,-0.609614,0.394115,-0.353579,-0.589937,-10.054546,1.264893,-1.259918,0.344307,0.366597,1.521758,36.696198,4.992406,28.561713,4.63583E+18,0.592155,0.037456,0.804575,-0.024659,4
-7.123174,-1.816943,4.064561,-1.773972,-0.450266,0.81508,39.849711,-21.790467,-11.095326,4.63583E+18,-0.720844,0.297896,-0.395503,-0.484995,-14.442472,4.752049,3.18796,-2.658674,-2.195202,-0.31116,39.806257,-15.789477,-17.636624,4.63583E+18,-0.60917,0.395992,-0.340863,-0.596586,-10.254754,1.932568,-0.438655,0.18506,0.410288,1.502112,36.556424,4.657115,28.67153,4.63583E+18,0.590897,0.042927,0.805317,-0.021523,4
-7.808416,-1.581251,3.880243,-1.814045,-0.474529,0.771302,39.593627,-21.956102,-11.424766,4.63583E+18,-0.717789,0.300997,-0.391397,-0.490905,-16.164702,-0.378829,4.817165,-4.132714,-2.403707,-0.843881,39.109312,-14.547723,-18.897465,4.63583E+18,-0.607723,0.401725,-0.32297,-0.604136,-9.821757,1.951585,-0.624909,0.023191,0.453029,1.465283,36.495801,4.117565,28.773717,4.63583E+18,0.589497,0.047876,0.806151,-0.017926,4
-8.380076,-1.190529,3.993863,-1.818887,-0.553387,0.741884,39.461179,-21.983601,-11.915414,4.63583E+18,-0.714868,0.303975,-0.38698,-0.496799,-14.508944,-4.160139,1.646454,-4.919865,-2.497667,-1.057855,39.274976,-13.972024,-20.426102,4.63583E+18,-0.605332,0.40931,-0.302345,-0.612068,-9.730339,1.570685,-1.345066,-0.152412,0.498658,1.433235,36.43477,3.658065,28.805836,4.63583E+18,0.587954,0.052289,0.807085,-0.013807,4
-8.719841,-0.651361,4.225804,-1.801477,-0.617466,0.741014,39.368766,-21.900082,-12.60577,4.63583E+18,-0.712023,0.306747,-0.382378,-0.502709,-14.969477,-0.210381,-1.01503,-5.863707,-2.673962,-1.301311,38.904521,-12.934106,-21.730602,4.63583E+18,-0.614005,0.413245,-0.286536,-0.608377,-9.411994,1.012522,-2.118981,-0.211213,0.526961,1.415152,36.373734,3.244831,29.091888,4.63583E+18,0.586303,0.056495,0.808063,-0.009528,4
-8.848653,0.020012,4.536435,-1.776602,-0.695643,0.769422,39.246591,-21.973537,-13.097252,4.63583E+18,-0.709226,0.309211,-0.377606,-0.508726,-11.541252,-2.978926,-5.657565,-5.906204,-2.451047,-1.248065,37.840432,-10.719266,-23.22453,4.63583E+18,-0.609685,0.423581,-0.262982,-0.616201,-9.290436,0.770183,-3.493049,-0.316701,0.560997,1.398895,36.318756,2.690309,29.28807,4.63583E+18,0.584539,0.060388,0.8091,-0.004924,4
-8.810115,0.544486,4.982934,-1.746687,-0.746309,0.812763,38.970779,-22.112953,-13.510662,4.63583E+18,-0.706405,0.311385,-0.372775,-0.514849,-15.084513,-2.254827,-3.921835,-5.59658,-2.799498,-1.272473,37.410098,-8.99206,-24.894657,4.63583E+18,-0.605912,0.431955,-0.239104,-0.62379,-9.7643,1.88534,-3.485481,-0.465618,0.57817,1.395294,36.325881,2.084223,29.488658,4.63583E+18,0.58273,0.063904,0.81015,0.000178,4
-8.588404,0.826849,5.177475,-1.735914,-0.649219,0.857462,38.592483,-22.168644,-14.065373,4.63583E+18,-0.703299,0.313644,-0.368283,-0.520927,-16.604373,4.520834,-4.159011,-6.711128,-2.966757,-1.420061,37.055048,-7.543109,-26.311123,4.63583E+18,-0.600173,0.442491,-0.211441,-0.631891,-9.55861,1.552817,-3.088473,-0.494912,0.582367,1.411723,36.1001,1.697907,29.598525,4.63583E+18,0.580874,0.06539,0.811334,0.006859,4
-8.161035,1.036066,4.772462,-1.748407,-0.454707,0.908748,38.36779,-22.242047,-14.603893,4.63583E+18,-0.699717,0.316259,-0.364374,-0.526886,-12.54485,-3.496493,-9.785252,-7.068146,-2.709265,-1.299532,35.997248,-5.288285,-27.367461,4.63583E+18,-0.592629,0.45405,-0.183494,-0.6395,-9.221991,0.562402,-3.053904,-0.516927,0.585496,1.400048,35.79578,1.352754,29.715305,4.63583E+18,0.57899,0.06879,0.812337,0.012143,4
-7.594172,1.299544,4.052146,-1.786786,-0.306619,0.975589,38.313796,-22.376249,-14.940378,4.63583E+18,-0.695666,0.319183,-0.360875,-0.532861,-14.828607,0.093467,-11.464904,-7.510791,-2.841636,-1.292983,35.410421,-3.414734,-28.471073,4.63583E+18,-0.583684,0.465849,-0.153853,-0.647014,-9.079448,2.138575,-2.612258,-0.38958,0.585745,1.502494,35.519229,0.7983,29.922809,4.63583E+18,0.577037,0.072837,0.813281,0.017244,4
-7.092185,1.548698,3.634364,-1.859084,-0.254075,1.039664,38.128568,-22.430243,-15.388926,4.63583E+18,-0.691245,0.322312,-0.357424,-0.539021,-13.344532,4.421765,-13.259543,-8.118587,-2.597184,-1.373684,34.862121,-1.505422,-29.760693,4.63583E+18,-0.573743,0.479108,-0.12344,-0.652715,-10.435171,5.295221,-2.728734,-0.558878,0.564502,1.606447,35.469419,0.181708,30.122577,4.63583E+18,0.57517,0.076829,0.814088,0.023161,4
-6.792335,1.532741,3.835221,-1.902856,-0.256349,1.083737,37.823628,-22.510601,-15.929238,4.63583E+18,-0.686612,0.325468,-0.353897,-0.545336,-11.586637,0.18312,-14.667015,-8.327716,-2.1695,-1.417279,33.385711,1.460942,-30.474715,4.63583E+18,-0.561698,0.493622,-0.092634,-0.657459,-9.706393,-2.086861,-2.271271,-0.423801,0.585119,1.571468,35.550675,-0.367432,30.221088,4.63583E+18,0.573164,0.081021,0.814926,0.02854,4
-6.553433,1.291969,3.871104,-1.965023,-0.234653,1.105697,37.659691,-22.60811,-16.264001,4.63583E+18,-0.681757,0.328789,-0.350291,-0.551727,-13.415466,-3.36064,-14.704974,-7.802713,-1.918951,-1.279892,32.750306,3.776564,-30.843481,4.63583E+18,-0.549562,0.506929,-0.064019,-0.660989,-9.040761,-1.571806,-3.533552,-0.271923,0.58003,1.676262,35.416409,-1.064184,30.330943,4.63583E+18,0.57108,0.085924,0.815691,0.033653,4
-6.478754,0.885477,3.623875,-2.005794,-0.246351,1.114845,37.452102,-22.545209,-16.67753,4.63583E+18,-0.676782,0.332152,-0.346538,-0.558168,-15.062346,-5.4931,-11.268456,-6.96386,-1.824885,-1.109463,33.720123,5.129109,-31.241141,4.63583E+18,-0.538805,0.517965,-0.03875,-0.66325,-10.511462,0.792794,-3.138877,-0.351483,0.551931,1.726917,35.282128,-1.608349,30.454591,4.63583E+18,0.56908,0.09081,0.816314,0.039146,4
-6.633977,0.460193,3.82645,-1.959406,-0.350445,1.127828,37.269143,-22.498303,-17.209277,4.63583E+18,-0.671932,0.335091,-0.342586,-0.564674,-16.482638,-6.379043,-8.191327,-6.134209,-1.821897,-0.972692,34.07139,6.767113,-31.387057,4.63583E+18,-0.529029,0.526745,-0.016073,-0.665139,-9.548061,-0.317691,-3.309217,-0.369992,0.546679,1.78481,35.14268,-2.100798,30.759773,4.63583E+18,0.567062,0.095847,0.81685,0.044832,4
-6.644153,0.298218,4.150643,-1.909508,-0.447895,1.155148,37.115556,-22.688574,-17.638223,4.63583E+18,-0.667169,0.337589,-0.338486,-0.571268,-15.608049,-6.769403,-8.705456,-5.099313,-1.829101,-0.76588,33.369308,8.651716,-31.442116,4.63583E+18,-0.520551,0.532925,0.003351,-0.667088,-9.434266,-0.016339,-3.171177,-0.417044,0.531156,1.860249,34.934316,-2.808749,31.058045,4.63583E+18,0.565065,0.101025,0.817258,0.050848,4
-6.45587,0.331387,4.253417,-1.865569,-0.470282,1.188875,36.766612,-22.950039,-18.046356,4.63583E+18,-0.662361,0.339832,-0.334446,-0.577874,-15.292234,-7.827049,-9.804648,-4.242459,-1.990986,-0.723272,32.586996,9.952958,-31.569128,4.63583E+18,-0.51358,0.536587,0.020671,-0.66924,-9.727581,-0.213022,-3.343295,-0.409703,0.54963,1.945836,34.720601,-3.511619,31.258691,4.63583E+18,0.562944,0.106502,0.817617,0.057045,4
-6.314639,0.402893,4.207997,-1.856916,-0.4512,1.218921,36.273146,-22.979475,-18.557322,4.63583E+18,-0.657406,0.342025,-0.330489,-0.584477,-16.745561,-5.555113,-9.542847,-3.289729,-2.111514,-0.439581,31.973319,10.818285,-31.870906,4.63583E+18,-0.507763,0.537749,0.034954,-0.672146,-9.744437,0.077894,-3.972565,-0.42547,0.557423,2.046031,34.580303,-4.151557,31.368557,4.63583E+18,0.560737,0.112272,0.817883,0.063531,4
-6.117494,0.477867,3.965434,-1.88285,-0.394399,1.252967,35.914085,-22.93079,-19.13107,4.63583E+18,-0.652193,0.344349,-0.326642,-0.591078,-15.821946,-3.067675,-8.616184,-2.253961,-2.141861,-0.052809,31.296991,11.715383,-32.098957,4.63583E+18,-0.50302,0.536592,0.045568,-0.675991,-10.298189,0.590815,-4.014897,-0.537747,0.55754,2.128886,34.350295,-4.870667,31.479271,4.63583E+18,0.558512,0.11805,0.818013,0.070589,4
-5.737216,0.460331,3.504992,-1.849827,-0.316906,1.28422,35.675095,-23.096538,-19.652408,4.63583E+18,-0.646786,0.346698,-0.3231,-0.597557,-15.053178,-3.381332,-8.488311,-1.551567,-2.051933,0.186925,30.859104,12.328318,-32.396827,4.63583E+18,-0.498594,0.534158,0.053892,-0.680569,-10.700073,0.188931,-3.687305,-0.662845,0.589702,2.205868,33.990082,-5.737393,31.608212,4.63583E+18,0.556165,0.123777,0.818068,0.078264,4
-5.062141,0.055417,2.857882,-1.756911,-0.26778,1.252135,35.27741,-23.310987,-20.072647,4.63583E+18,-0.641471,0.348933,-0.319847,-0.603705,-16.788389,-3.29629,-8.562306,-0.476295,-1.988654,0.394715,30.444056,12.601623,-32.702007,4.63583E+18,-0.495939,0.529666,0.058568,-0.685615,-10.451444,0.490777,-3.889299,-0.747228,0.649551,2.281514,33.703303,-6.598961,31.827943,4.63583E+18,0.553576,0.129535,0.818111,0.086423,4
-4.003369,-0.903963,2.21629,-1.652507,-0.290897,1.173091,34.925293,-23.370164,-20.367274,4.63583E+18,-0.63649,0.350906,-0.316654,-0.609488,-18.016836,-2.066716,-8.547265,0.919071,-1.829183,0.869546,29.816854,12.309811,-33.264007,4.63583E+18,-0.495005,0.522821,0.057875,-0.691577,-10.241555,1.418877,-4.326353,-0.841126,0.682117,2.325921,33.348266,-7.397496,32.03994,4.63583E+18,0.55085,0.135205,0.818081,0.095012,4
-2.957353,-1.943091,2.2482,-1.526333,-0.294749,1.127506,34.791061,-23.328348,-20.597508,4.63583E+18,-0.631776,0.352567,-0.313685,-0.614945,-16.08385,-0.758585,-8.612169,1.461417,-1.416211,1.316632,29.259248,11.677765,-34.006201,4.63583E+18,-0.494019,0.516107,0.053789,-0.697629,-9.261134,2.622249,-4.589355,-1.061164,0.721863,2.362425,33.139882,-8.264221,32.137809,4.63583E+18,0.548033,0.140461,0.817937,0.104446,4
-2.685781,-2.516572,2.362732,-1.466419,-0.003898,1.16264,34.705611,-23.401668,-20.885248,4.63583E+18,-0.626643,0.354746,-0.311668,-0.619949,-13.840043,2.980989,-8.495633,1.060227,-0.887666,1.583951,29.011381,10.851199,-34.595525,4.63583E+18,-0.491468,0.51177,0.049202,-0.702943,-9.36205,3.071981,-4.949535,-1.283225,0.760915,2.375805,32.904726,-9.13094,32.096479,4.63583E+18,0.545136,0.145223,0.817672,0.114676,4
-3.409839,-2.502383,1.647662,-1.376144,0.467868,1.241369,34.552087,-23.572562,-21.118875,4.63583E+18,-0.620788,0.357782,-0.31121,-0.624309,-12.051774,3.454352,-9.031061,0.404709,-0.374868,1.764618,29.093037,10.098282,-34.711579,4.63583E+18,-0.487063,0.510281,0.045097,-0.707354,-11.424878,2.963041,-3.270692,-1.525114,0.755045,2.426806,32.449055,-10.01468,32.317044,4.63583E+18,0.542302,0.149592,0.817129,0.125824,4
-4.831103,-2.113501,1.081177,-1.156593,0.690159,1.298878,34.307968,-23.706801,-21.258348,4.63583E+18,-0.61478,0.360734,-0.311963,-0.628168,-11.076173,-0.529369,-10.176259,0.197706,0.077153,1.865488,29.258729,9.800067,-34.717854,4.63583E+18,-0.481976,0.510533,0.040466,-0.710927,-10.919225,2.222673,-1.510457,-1.659683,0.787387,2.502494,31.793906,-11.135809,32.528453,4.63583E+18,0.539316,0.153873,0.816411,0.137601,4
-6.477231,-1.625218,0.714879,-1.055493,0.535695,1.319773,34.100477,-23.792247,-21.39264,4.63583E+18,-0.609034,0.362973,-0.312595,-0.632149,-10.742155,-2.867782,-12.18726,0.577306,0.43472,2.068859,29.440777,9.398637,-34.706692,4.63583E+18,-0.477121,0.511081,0.033558,-0.714161,-8.446486,1.513522,-1.951477,-1.580434,0.673149,2.576412,31.369862,-12.376795,32.466568,4.63583E+18,0.536536,0.158621,0.8153,0.149181,4
-7.70131,-1.140414,-0.167736,-1.069054,0.3056,1.318246,33.973182,-23.909112,-21.492002,4.63583E+18,-0.60354,0.364623,-0.312589,-0.636458,-11.4994,-1.600865,-12.488875,1.068316,0.768375,2.352803,29.847113,8.604101,-34.504743,4.63583E+18,-0.472465,0.511631,0.023917,-0.717244,-4.438102,0.683773,-1.985894,-1.301034,0.638335,2.644358,31.139923,-13.391019,32.406975,4.63583E+18,0.53356,0.164221,0.814108,0.159916,4
-8.320329,-0.78819,-1.104015,-1.027852,0.219585,1.333057,33.824919,-24.141085,-21.354168,4.63583E+18,-0.598157,0.365898,-0.312485,-0.640843,-12.28695,1.571021,-11.060556,1.083528,1.075176,2.561303,30.296697,7.394509,-34.374302,4.63583E+18,-0.467183,0.513019,0.013179,-0.719985,-0.764606,2.936914,-2.820842,-1.058857,0.703014,2.58391,30.756648,-14.252629,32.523081,4.63583E+18,0.53016,0.170086,0.81314,0.169716,4
-8.867859,-0.645251,-1.403851,-0.964073,0.292685,1.377305,33.624407,-24.434011,-21.211241,4.63583E+18,-0.592634,0.367129,-0.312788,-0.645108,-11.193242,2.547451,-8.637807,0.813402,1.368824,2.809941,30.893401,6.14949,-34.1518,4.63583E+18,-0.461754,0.515744,0.001263,-0.721657,1.867293,7.091517,-3.797627,-1.050562,0.690122,2.3982,30.146283,-15.057186,32.546914,4.63583E+18,0.526858,0.175329,0.812172,0.179044,4
-9.441573,-0.721986,-1.602674,-0.884882,0.459921,1.400952,33.460488,-24.683379,-21.373429,4.63583E+18,-0.58692,0.368565,-0.313735,-0.649042,-9.957166,1.931626,-6.391994,0.414295,1.85191,3.033795,31.559565,5.294947,-33.75246,4.63583E+18,-0.453783,0.520562,-0.010209,-0.723182,3.612564,9.261968,-3.593839,-1.077634,0.673631,2.167906,29.553005,-16.003299,32.412358,4.63583E+18,0.523741,0.179718,0.811221,0.18793,4
-10.081503,-0.931225,-2.197267,-0.806611,0.691831,1.357012,33.294835,-24.934473,-21.570474,4.63583E+18,-0.581107,0.370476,-0.315374,-0.652382,-9.851375,1.957012,-5.364363,-0.117845,2.409508,3.18557,32.309094,4.61097,-33.170011,4.63583E+18,-0.443754,0.527929,-0.021238,-0.723825,3.020965,10.128496,-2.777937,-1.137211,0.623179,1.888,29.186782,-16.853854,32.449539,4.63583E+18,0.521004,0.183048,0.810243,0.196352,4
-11.25148,-1.213723,-2.568811,-0.715827,0.895701,1.263026,33.099539,-25.105386,-21.530403,4.63583E+18,-0.575389,0.372826,-0.31759,-0.655031,-10.041071,2.690703,-5.754468,-0.681976,2.932329,3.330822,33.143978,3.872685,-32.471485,4.63583E+18,-0.432192,0.537723,-0.03209,-0.723211,1.602155,9.29095,-1.890445,-0.989315,0.582318,1.638227,28.813755,-17.478421,32.644299,4.63583E+18,0.518456,0.185877,0.809423,0.203685,4
-13.253501,-1.367229,-1.923671,-0.610534,0.90565,1.100674,32.965218,-25.220478,-21.328097,4.63583E+18,-0.570239,0.375148,-0.319849,-0.657106,-10.795361,3.316798,-6.534978,-1.192436,3.336232,3.443869,34.042075,3.28426,-31.596086,4.63583E+18,-0.418792,0.549428,-0.042282,-0.721772,-1.313599,9.606151,-1.877079,-0.779481,0.521643,1.422181,28.355874,-17.970911,32.661913,4.63583E+18,0.516103,0.188473,0.808769,0.209782,4
-15.663518,-1.471831,-0.697722,-0.489077,0.808596,0.835182,33.076796,-25.490747,-21.247847,4.63583E+18,-0.566116,0.377255,-0.321785,-0.658518,-11.846537,3.001013,-6.593047,-1.692788,3.646319,3.51288,35.034691,2.710512,-30.437141,4.63583E+18,-0.403792,0.562668,-0.051657,-0.719506,-6.369926,9.106531,-2.026655,-0.586283,0.434751,1.251188,27.987639,-18.515145,32.588667,4.63583E+18,0.514017,0.190973,0.808197,0.214786,4
-17.587084,-1.721187,-0.284136,-0.356181,0.752903,0.531545,33.216343,-25.757602,-21.289711,4.63583E+18,-0.563096,0.379294,-0.323468,-0.659111,-12.262398,1.638697,-6.234968,-2.133075,3.942714,3.564363,36.024428,1.980627,-29.331252,4.63583E+18,-0.387335,0.57722,-0.060319,-0.716346,-11.921477,6.943554,-2.493659,-0.331177,0.34081,1.170095,27.755701,-18.980186,32.514576,4.63583E+18,0.5121,0.193822,0.807692,0.218677,4
-18.562151,-1.893882,-0.843966,-0.191993,0.652359,0.29102,33.148355,-25.738462,-21.253102,4.63583E+18,-0.56112,0.380994,-0.32498,-0.659072,-12.002772,-0.427606,-6.245989,-2.411608,4.267875,3.630185,37.169418,1.470281,-28.065243,4.63583E+18,-0.369684,0.592819,-0.068799,-0.712156,-16.979297,6.408369,-4.366712,-0.190992,0.222394,1.167415,27.529722,-19.292456,32.449491,4.63583E+18,0.510458,0.197064,0.807043,0.221989,4
-18.764573,-1.792826,-0.868652,-0.013922,0.455397,0.141637,33.08902,-25.611154,-21.162431,4.63583E+18,-0.560097,0.381937,-0.326278,-0.658755,-11.808107,-1.614503,-6.640687,-2.604175,4.60263,3.690645,38.384908,1.127026,-26.437596,4.63583E+18,-0.351017,0.609281,-0.077325,-0.706813,-20.169221,6.22439,-4.749397,-0.216462,0.152104,1.249803,27.378121,-19.536629,32.662987,4.63583E+18,0.508986,0.200594,0.806131,0.225496,4
-18.219025,-1.093849,0.058875,0.13682,0.376706,0.015,33.172713,-25.593668,-20.981139,4.63583E+18,-0.559767,0.382484,-0.327605,-0.658059,-11.736573,-2.389534,-7.257546,-2.783179,4.916517,3.74655,39.393553,0.563193,-24.944908,4.63583E+18,-0.331326,0.626446,-0.085846,-0.7003,-21.511141,6.081677,-3.884472,-0.211567,0.132511,1.422957,27.136363,-19.796862,32.93727,4.63583E+18,0.507397,0.204732,0.805011,0.229327,4
-17.080327,-0.026445,0.756859,0.329371,0.704785,-0.115929,33.30174,-25.703508,-20.60974,4.63583E+18,-0.559654,0.383656,-0.330016,-0.656266,-12.054826,-2.978,-7.535346,-2.907872,5.19913,3.822591,40.248476,-0.234712,-23.557072,4.63583E+18,-0.31067,0.644057,-0.094494,-0.692636,-21.57535,6.630454,-3.026167,-0.207523,0.184542,1.638094,26.61454,-20.272897,32.934585,4.63583E+18,0.505403,0.209537,0.803788,0.233639,4
-16.040833,0.64333,0.181966,0.590095,1.214,-0.226865,33.540565,-25.794243,-20.212102,4.63583E+18,-0.559546,0.385758,-0.334142,-0.65303,-12.085329,-5.53744,-7.51176,-2.794214,5.46239,3.967918,41.369676,-1.141853,-21.642167,4.63583E+18,-0.289544,0.661637,-0.10415,-0.683779,-22.377577,7.020738,-1.96631,-0.140891,0.304545,1.81603,26.303074,-20.743059,32.581911,4.63583E+18,0.502748,0.214947,0.802686,0.238196,4
-15.723048,1.070519,-1.003993,0.904091,1.449469,-0.327253,33.870142,-25.757665,-19.845988,4.63583E+18,-0.559858,0.387896,-0.339492,-0.648722,-11.628006,-9.086909,-7.730637,-2.2672,5.72601,4.181066,42.450122,-1.901148,-19.676991,4.63583E+18,-0.268823,0.678616,-0.116072,-0.673603,-26.060776,7.498949,-1.215581,-0.161221,0.423073,1.986667,26.044889,-21.135386,32.444876,4.63583E+18,0.499513,0.220756,0.801607,0.243268,4
-15.904412,1.253971,-1.740235,1.240421,1.360163,-0.468377,34.19976,-25.698339,-19.17304,4.63583E+18,-0.561189,0.389187,-0.345297,-0.643716,-10.826347,-11.195511,-7.874396,-1.356749,6.014239,4.40101,43.390512,-3.103111,-17.533153,4.63583E+18,-0.249631,0.694614,-0.131361,-0.66177,-31.496829,6.793844,-2.068515,-0.255968,0.458812,2.139099,25.434587,-21.554618,32.74871,4.63583E+18,0.496054,0.226826,0.800303,0.248987,4
-16.146771,0.461095,-1.993278,1.656618,1.075328,-0.708039,34.46665,-25.752318,-18.335825,4.63583E+18,-0.56421,0.389058,-0.351141,-0.637966,-10.28625,-11.755486,-7.752133,-0.337448,6.282328,4.567369,44.017114,-4.671735,-15.450522,4.63583E+18,-0.232497,0.709492,-0.150056,-0.648113,-34.566686,2.976583,-3.589094,-0.193557,0.55055,2.290752,24.835205,-22.041694,32.864022,4.63583E+18,0.492029,0.233415,0.799039,0.254877,4
-16.242926,-0.590987,-2.186641,2.187869,0.592425,-1.079344,34.712437,-25.910995,-17.777688,4.63583E+18,-0.569748,0.386897,-0.356639,-0.631274,-10.576594,-11.781198,-6.189259,0.561091,6.529726,4.626176,44.470227,-6.259577,-13.2082,4.63583E+18,-0.217403,0.723372,-0.171373,-0.632535,-35.803843,-1.124027,-5.516532,-0.223384,0.73759,2.470954,24.371703,-22.671404,32.888436,4.63583E+18,0.487167,0.24032,0.797866,0.26139,4
-15.782913,-0.140403,-1.993871,2.576725,-0.4407,-1.51682,35.042031,-25.928624,-17.355709,4.63583E+18,-0.578504,0.381704,-0.359945,-0.62456,-11.277311,-13.675866,-2.864543,1.251424,6.762686,4.568949,44.831579,-8.002467,-10.414838,4.63583E+18,-0.204136,0.736448,-0.19436,-0.614978,-35.548187,-3.064337,-7.067076,-0.637806,1.071224,2.456361,23.734006,-23.233726,32.933942,4.63583E+18,0.481568,0.245944,0.796834,0.269552,4
-14.96851,1.072018,0.859939,2.736209,-1.871525,-1.956421,35.29848,-25.762951,-17.053795,4.63583E+18,-0.590687,0.372982,-0.359447,-0.618684,-12.177016,-17.880978,0.815252,1.796437,6.904704,4.485069,45.040626,-9.849524,-7.748962,4.63583E+18,-0.192399,0.748601,-0.218374,-0.595728,-34.392025,-4.856349,-5.890723,-1.425356,1.421901,2.396746,22.875664,-23.834476,33.230635,4.63583E+18,0.475608,0.249362,0.795563,0.280526,4
-14.054964,1.008832,5.825031,2.766119,-2.327027,-2.407433,35.420601,-25.599044,-17.135493,4.63583E+18,-0.604588,0.363581,-0.357101,-0.612177,-13.382502,-22.689292,4.714816,2.437749,6.888937,4.478652,45.169037,-11.693899,-5.099955,4.63583E+18,-0.18244,0.759274,-0.243657,-0.575196,-34.283451,-7.012138,-3.302274,-2.357402,1.727744,2.446225,21.80564,-24.808976,33.072333,4.63583E+18,0.469444,0.250685,0.79359,0.294948,4
-12.677739,-0.39821,8.807819,2.605982,-1.325523,-2.723084,35.634878,-25.219203,-17.242194,4.63583E+18,-0.617371,0.357503,-0.356281,-0.603414,-14.860775,-25.874107,9.157498,3.197625,6.779019,4.369462,44.967727,-13.403402,-2.016053,4.63583E+18,-0.175042,0.768231,-0.270037,-0.553409,-34.46619,-9.879159,-0.23015,-2.854479,1.933751,2.580654,20.788325,-25.936573,32.748239,4.63583E+18,0.46282,0.251159,0.79104,0.311404,4
-9.966172,-0.603067,9.820911,2.489668,-0.205133,-2.708523,36.074228,-24.523529,-16.92686,4.63583E+18,-0.628118,0.354433,-0.357981,-0.593038,-17.098263,-26.31447,13.449101,3.845794,6.624445,4.140548,44.512762,-14.944115,0.997531,4.63583E+18,-0.1702,0.775605,-0.296723,-0.530494,-36.139862,-9.801651,2.704687,-3.349933,1.873853,2.842318,19.707345,-27.291584,32.326454,4.63583E+18,0.456408,0.251528,0.787175,0.329821,4
-5.912044,1.535817,12.541346,2.303506,0.452287,-2.559206,36.635584,-23.919897,-16.349767,4.63583E+18,-0.6371,0.353176,-0.361083,-0.582228,-20.509045,-24.647743,16.550492,4.425754,6.267352,3.780334,43.813731,-16.391824,3.922174,4.63583E+18,-0.168275,0.781207,-0.322927,-0.507068,-38.006953,-8.218017,6.513591,-3.32584,1.545646,3.287358,18.53052,-28.641408,31.813798,4.63583E+18,0.450247,0.253746,0.781932,0.348529,4
-2.570718,3.688821,16.486505,1.915868,1.511299,-2.417711,37.294785,-23.604045,-15.697553,4.63583E+18,-0.643438,0.355238,-0.366189,-0.570701,-24.292332,-23.150086,19.307129,4.936023,5.628931,3.252526,43.149248,-17.297097,6.56097,4.63583E+18,-0.169766,0.784873,-0.347629,-0.484054,-39.945923,-10.092713,7.681512,-2.775697,1.123752,3.669698,17.280331,-29.907201,31.321271,4.63583E+18,0.444142,0.258749,0.775978,0.365575,4
-0.81547,5.710534,15.51561,1.641261,2.791435,-2.185364,38.021817,-23.279992,-14.803467,4.63583E+18,-0.646705,0.360649,-0.374328,-0.558196,-26.518012,-22.800142,23.012029,5.311449,4.89919,2.628863,42.489977,-17.928687,9.084432,4.63583E+18,-0.174617,0.786847,-0.370158,-0.461914,-40.502078,-21.816957,6.336744,-0.239917,0.834723,3.864624,15.967114,-30.929218,31.120028,4.63583E+18,0.435793,0.269425,0.772886,0.374356,4
-0.054304,7.56791,9.801334,1.282209,3.174266,-1.932068,38.844877,-22.699462,-13.474966,4.63583E+18,-0.648076,0.367429,-0.382947,-0.54621,-27.957372,-20.448978,27.0976,5.509685,4.036576,1.896268,41.752875,-18.304812,11.509445,4.63583E+18,-0.182727,0.787369,-0.38975,-0.441311,-38.160094,-23.699619,3.220619,0.291311,0.231721,4.271946,14.737917,-31.56026,31.168858,4.63583E+18,0.428025,0.283235,0.768844,0.381381,4
0.304675,8.569921,5.448649,0.90563,2.508949,-1.694305,39.570587,-22.09591,-12.225765,4.63583E+18,-0.649253,0.373251,-0.389196,-0.536359,-28.210823,-19.168457,31.033466,5.210413,3.032907,1.258227,41.141952,-18.424717,13.569938,4.63583E+18,-0.192555,0.786669,-0.405707,-0.423646,-33.845777,-10.5802,3.227154,-0.956744,0.196674,4.687526,13.703029,-31.986995,31.204275,4.63583E+18,0.421033,0.296111,0.761989,0.392966,4
1.099185,9.470997,4.237292,0.57764,1.437591,-1.538962,40.078228,-21.734575,-11.621627,4.63583E+18,-0.651226,0.377269,-0.392008,-0.529058,-26.339215,-17.841495,35.44267,4.515158,2.062941,0.714052,40.766776,-18.065238,15.13925,4.63583E+18,-0.202604,0.78529,-0.417672,-0.40966,-35.691762,-7.767851,1.775768,-0.101867,0.136746,4.794936,12.356501,-32.567086,31.07203,4.63583E+18,0.412832,0.310804,0.755995,0.401798,4
2.495395,8.706164,4.368765,0.302762,0.506875,-1.510646,40.444518,-21.502837,-11.49248,4.63583E+18,-0.654181,0.379914,-0.391706,-0.523716,-22.570689,-11.426318,37.289165,3.312676,1.039888,0.333977,40.490839,-17.584399,16.230222,4.63583E+18,-0.211001,0.783667,-0.425189,-0.400698,-32.926403,7.375199,5.713993,0.721293,0.23947,5.357618,10.799831,-33.062558,31.145635,4.63583E+18,0.402113,0.328369,0.750487,0.408961,4
