Accelerometer-X,Accelerometer-Y,Accelerometer-Z,Gyroscope-X,Gyroscope-Y,Gyroscope-Z,Magnetometer-X,Magnetometer-Y,Magnetometer-Z,Barometer-pressure,Orientation-S,Orientation-X,Orientation-Y,Orientation-Z,Accelerometer-X,Accelerometer-Y,Accelerometer-Z,Gyroscope-X,Gyroscope-Y,Gyroscope-Z,Magnetometer-X,Magnetometer-Y,Magnetometer-Z,Barometer-pressure,Orientation-S,Orientation-X,Orientation-Y,Orientation-Z,Accelerometer-X,Accelerometer-Y,Accelerometer-Z,Gyroscope-X,Gyroscope-Y,Gyroscope-Z,Magnetometer-X,Magnetometer-Y,Magnetometer-Z,Barometer-pressure,Orientation-S,Orientation-X,Orientation-Y,Orientation-Z,jump
-10.334361,0.171109,0.711581,0.463712,-0.450382,-0.149231,41.08165,-14.624469,-16.676098,4.63583E+18,0.335015,-0.62339,0.297803,0.640674,-10.049625,-0.949245,-0.858883,0.261398,-0.441187,0.284855,41.602829,10.290841,-16.469697,4.63583E+18,-0.082296,-0.712389,-0.157147,0.678995,-9.448048,-0.269953,8.413516,0.899149,0.269027,0.053393,42.106337,-15.314052,7.125509,4.63583E+18,-0.690236,0.287527,-0.577629,-0.327484,0
-10.576744,0.495608,1.05855,0.384526,-0.552757,-0.193635,40.978463,-14.603785,-16.602068,4.63583E+18,0.33724,-0.621617,0.297588,0.641329,-9.981771,-0.924354,-0.918964,0.295524,-0.446271,0.279813,41.547183,10.225919,-16.590813,4.63583E+18,-0.082517,-0.711403,-0.15534,0.680416,-10.781903,-1.133075,4.36499,1.358718,0.355383,0.1518,42.072645,-15.131553,7.399358,4.63583E+18,-0.690818,0.283747,-0.580642,-0.324211,0
-10.613143,0.653683,1.450726,0.338466,-0.596042,-0.252258,40.858177,-14.479936,-16.652288,4.63583E+18,0.339554,-0.61986,0.297034,0.642065,-9.887044,-0.767162,-0.705173,0.333339,-0.455669,0.27554,41.344095,10.019897,-16.753394,4.63583E+18,-0.082619,-0.710396,-0.153436,0.681886,-9.612222,-2.881879,1.281215,1.63342,0.504507,0.140505,41.629239,-14.697729,7.859573,4.63583E+18,-0.69135,0.279391,-0.584417,-0.320051,0
-10.334002,0.568641,1.615126,0.345738,-0.549174,-0.290397,40.837512,-14.294869,-16.877496,4.63583E+18,0.341927,-0.61826,0.296465,0.642611,-9.863582,-0.794425,-0.412222,0.348299,-0.455801,0.269645,41.109242,9.766498,-17.01995,4.63583E+18,-0.082659,-0.709385,-0.151505,0.683364,-9.923609,-2.455364,0.510426,1.631987,0.58667,0.110396,41.523321,-14.515269,8.257137,4.63583E+18,-0.691684,0.275208,-0.588362,-0.315696,0
-9.927377,0.431789,1.520807,0.317585,-0.474895,-0.304646,40.731381,-14.356889,-17.134664,4.63583E+18,0.344172,-0.61691,0.295886,0.642976,-9.798677,-0.669544,-0.323263,0.352786,-0.455842,0.264049,41.062769,9.639981,-17.229445,4.63583E+18,-0.082669,-0.708367,-0.149578,0.684842,-9.893947,0.174765,0.553607,1.44942,0.614412,0.104939,41.977226,-14.928593,8.546789,4.63583E+18,-0.691715,0.271588,-0.592113,-0.311727,0
-9.632828,0.233918,1.416454,0.292172,-0.44912,-0.308178,40.581152,-14.571896,-17.341394,4.63583E+18,0.346328,-0.615666,0.295265,0.643297,-9.805945,-0.668936,-0.345207,0.347878,-0.462589,0.255463,41.000802,9.498902,-17.421822,4.63583E+18,-0.082672,-0.707318,-0.147687,0.686335,-10.123525,1.602917,0.8195,1.174373,0.638893,0.078182,42.780544,-15.740155,8.995791,4.63583E+18,-0.691383,0.268847,-0.595525,-0.308319,0
-9.501114,0.007508,1.367631,0.319717,-0.488051,-0.302685,40.537033,-14.577646,-17.580809,4.63583E+18,0.348584,-0.614267,0.294674,0.643687,-9.814753,-0.720697,-0.409638,0.35338,-0.467078,0.249906,40.92463,9.395844,-17.542959,4.63583E+18,-0.082645,-0.706249,-0.145794,0.687842,-10.09949,0.890295,1.122702,0.935562,0.634019,0.03364,43.083512,-16.100194,9.470888,4.63583E+18,-0.690707,0.267142,-0.598439,-0.305663,0
-9.427471,-0.163385,1.330607,0.334953,-0.518416,-0.286922,40.619527,-14.333513,-17.690669,4.63583E+18,0.350873,-0.612739,0.294116,0.644154,-9.824022,-0.741714,-0.408719,0.363805,-0.47596,0.239145,40.851387,9.310395,-17.640615,4.63583E+18,-0.082561,-0.705146,-0.143899,0.689381,-10.095523,0.402918,1.528827,0.762396,0.631449,0.015188,43.115555,-15.912883,9.767527,4.63583E+18,-0.690013,0.265664,-0.601231,-0.303027,0
-9.37904,-0.322493,1.321752,0.335117,-0.506666,-0.273,40.633747,-14.14838,-17.818252,4.63583E+18,0.353108,-0.61122,0.29361,0.644607,-9.8455,-0.865164,-0.384304,0.37692,-0.47853,0.230383,40.954275,9.169322,-17.803165,4.63583E+18,-0.082413,-0.70403,-0.141991,0.690933,-9.882425,0.691475,1.024197,0.5682,0.619499,0.00211,43.03804,-15.748236,10.048297,4.63583E+18,-0.689111,0.264817,-0.603696,-0.300916,0
-9.329001,-0.450457,1.249729,0.37007,-0.500338,-0.264901,40.486463,-14.186736,-17.977743,4.63583E+18,0.3554,-0.609652,0.293224,0.645008,-9.730877,-0.78285,-0.415506,0.385127,-0.475286,0.231828,41.00173,9.00137,-18.060413,4.63583E+18,-0.082243,-0.702922,-0.140056,0.692475,-9.796296,1.090308,0.202806,0.301032,0.599814,-0.028369,42.96381,-15.813843,10.172036,4.63583E+18,-0.687994,0.264785,-0.605729,-0.299408,0
-9.392986,-0.588091,1.087273,0.398935,-0.520829,-0.267224,40.45157,-14.307076,-18.021891,4.63583E+18,0.357794,-0.607983,0.292877,0.645417,-9.766828,-0.772458,-0.343841,0.401268,-0.484801,0.22799,40.884174,8.895353,-18.424593,4.63583E+18,-0.082018,-0.701783,-0.138081,0.694051,-9.756699,0.99974,-0.224529,0.044298,0.57854,-0.049618,42.823298,-15.742305,10.349166,4.63583E+18,-0.68667,0.265514,-0.607354,-0.29851,0
-9.472122,-0.700897,1.051551,0.398749,-0.572869,-0.277352,40.49573,-14.26874,-18.004273,4.63583E+18,0.360275,-0.606181,0.292424,0.645937,-9.84595,-0.818349,-0.289586,0.402652,-0.488144,0.22888,40.855239,8.689408,-18.583511,4.63583E+18,-0.081794,-0.700631,-0.136098,0.695632,-9.843428,0.68602,-0.514279,-0.163916,0.549325,-0.055196,42.744077,-15.600774,10.633223,4.63583E+18,-0.685191,0.266814,-0.608628,-0.298153,0
-9.563883,-0.82592,1.251532,0.392304,-0.618055,-0.287554,40.389635,-14.110044,-18.223183,4.63583E+18,0.362819,-0.604273,0.291856,0.646558,-9.798708,-0.644751,-0.234432,0.406489,-0.4849,0.228841,40.923051,8.445282,-18.604082,4.63583E+18,-0.081554,-0.699483,-0.134104,0.6972,-9.761661,0.300346,-0.312842,-0.256072,0.528248,-0.053581,42.962401,-15.656139,10.825275,4.63583E+18,-0.683658,0.268345,-0.609725,-0.298058,0
-9.613536,-0.945456,1.536898,0.396325,-0.628143,-0.294185,40.27771,-13.989684,-18.49257,4.63583E+18,0.3654,-0.602332,0.291263,0.647182,-9.805929,-0.762012,-0.145604,0.413708,-0.487114,0.230205,40.823171,8.321623,-18.817204,4.63583E+18,-0.081298,-0.698327,-0.132083,0.698773,-9.630389,-0.303223,0.166693,-0.211752,0.526597,-0.03673,42.903788,-15.729367,10.840174,4.63583E+18,-0.682153,0.269703,-0.610888,-0.297898,0
-9.592071,-1.027544,1.662742,0.426898,-0.616244,-0.302028,40.3539,-13.969044,-18.664294,4.63583E+18,0.36806,-0.60038,0.290748,0.64772,-9.666499,-0.836428,-0.010885,0.411456,-0.487333,0.237206,40.664481,8.301034,-19.107231,4.63583E+18,-0.081068,-0.697167,-0.130048,0.700338,-9.742772,-0.578266,0.633604,-0.065942,0.530521,-0.006797,42.459525,-15.387753,11.109276,4.63583E+18,-0.680762,0.270573,-0.612274,-0.297447,0
-9.576917,-1.099085,1.714931,0.471939,-0.58969,-0.300444,40.33914,-13.886549,-18.809094,4.63583E+18,0.370793,-0.598421,0.290396,0.648132,-9.582371,-0.573603,-0.012648,0.402061,-0.490318,0.24494,40.62624,8.236174,-19.251957,4.63583E+18,-0.080889,-0.695994,-0.128017,0.701898,-9.686447,-0.643008,0.862,0.113362,0.537736,0.026138,41.69199,-14.874825,11.413436,4.63583E+18,-0.679509,0.270857,-0.613937,-0.296622,0
-9.558396,-1.0974,1.703988,0.535877,-0.560225,-0.294662,40.068487,-13.830988,-19.075537,4.63583E+18,0.37363,-0.596428,0.290272,0.648395,-9.487212,-0.682878,0.114572,0.381651,-0.487294,0.25485,40.570644,8.021001,-19.423742,4.63583E+18,-0.080795,-0.694822,-0.126016,0.703431,-9.534742,-0.87119,0.867723,0.304734,0.548155,0.047476,41.19006,-14.764736,11.539226,4.63583E+18,-0.678415,0.270556,-0.615887,-0.295356,0
-9.508295,-1.220321,1.667373,0.654082,-0.537606,-0.280517,40.021344,-13.892877,-19.235082,4.63583E+18,0.376691,-0.594287,0.290534,0.648473,-9.516326,-0.92068,0.223549,0.352479,-0.473037,0.272015,40.441818,7.773933,-19.683896,4.63583E+18,-0.080827,-0.693686,-0.124056,0.704895,-9.432096,-0.476379,0.395915,0.454822,0.555894,0.060905,41.083897,-14.76996,11.72756,4.63583E+18,-0.677449,0.269803,-0.618054,-0.293732,0
-9.250707,-1.201388,1.810912,0.799819,-0.414782,-0.272524,40.059229,-14.084397,-19.276336,4.63583E+18,0.379936,-0.592231,0.291398,0.648073,-9.524718,-1.14335,0.216355,0.314208,-0.453515,0.300159,40.471357,7.529792,-19.964658,4.63583E+18,-0.081042,-0.692603,-0.122133,0.706269,-9.446535,0.266749,0.09619,0.506996,0.552582,0.048221,40.864925,-14.344986,12.180704,4.63583E+18,-0.676558,0.268929,-0.620256,-0.291939,0
-8.912254,-1.007748,1.496949,0.821376,-0.244908,-0.28409,39.983042,-14.075136,-19.202246,4.63583E+18,0.383055,-0.590603,0.292555,0.6472,-9.299431,-1.344555,0.263112,0.272808,-0.413765,0.335999,40.436371,7.40608,-20.180578,4.63583E+18,-0.08146,-0.691637,-0.120241,0.707491,-9.493364,0.654644,0.095661,0.480172,0.531637,0.025422,40.330384,-14.172576,12.410154,4.63583E+18,-0.675713,0.268161,-0.622336,-0.290172,0
-8.932374,-0.887405,0.703503,0.755143,-0.188717,-0.292742,39.938819,-14.075136,-19.202246,4.63583E+18,0.385961,-0.589236,0.293598,0.646247,-9.349219,-1.576908,0.243717,0.22548,-0.362976,0.375001,40.289029,7.450321,-20.227667,4.63583E+18,-0.082103,-0.69082,-0.118393,0.708526,-9.508568,0.64999,0.097659,0.427445,0.537647,0.01075,40.598265,-14.586503,12.505595,4.63583E+18,-0.674805,0.267583,-0.624347,-0.288492,0
-9.252342,-0.580607,0.278697,0.767141,-0.278999,-0.321866,40.003662,-14.036876,-19.181644,4.63583E+18,0.38908,-0.587633,0.294453,0.645446,-9.368969,-1.478342,0.1208,0.178782,-0.308212,0.412897,40.192239,7.276434,-20.227667,4.63583E+18,-0.082965,-0.690164,-0.116593,0.709364,-9.262984,0.512493,0.321825,0.389642,0.539327,-0.014905,41.881567,-15.319385,12.669504,4.63583E+18,-0.673876,0.267179,-0.626284,-0.286835,0
-9.332342,-0.256355,0.245345,0.793157,-0.397866,-0.358678,39.965406,-13.91644,-19.140335,4.63583E+18,0.392503,-0.585705,0.29509,0.644835,-9.502016,-1.289329,0.020614,0.107724,-0.264821,0.446232,40.248665,6.89965,-20.292505,4.63583E+18,-0.084108,-0.689624,-0.114921,0.710027,-9.218591,0.903954,0.55474,0.363135,0.540395,-0.04945,42.520194,-15.504605,12.84039,4.63583E+18,-0.672951,0.266937,-0.62815,-0.285147,0
-9.394995,-0.329896,0.499918,0.777483,-0.402576,-0.338667,39.783189,-13.937031,-19.302701,4.63583E+18,0.395833,-0.583756,0.295721,0.644278,-9.722183,-1.495252,0.018526,0.007606,-0.235025,0.493677,40.216646,6.669844,-20.452061,4.63583E+18,-0.085664,-0.689155,-0.11342,0.710537,-9.485554,1.287382,0.573748,0.327694,0.505181,-0.072932,42.275839,-15.313887,13.213014,4.63583E+18,-0.672101,0.266813,-0.629845,-0.283524,0
-9.566336,-0.685074,0.873338,0.747806,-0.417195,-0.268326,39.647433,-14.02248,-19.604205,4.63583E+18,0.398915,-0.581721,0.296414,0.643899,-9.926318,-1.528446,-0.10525,-0.074887,-0.207513,0.548443,40.134145,6.57305,-20.570324,4.63583E+18,-0.087605,-0.688761,-0.112015,0.710905,-9.475943,0.578659,0.046963,0.303141,0.497126,-0.100269,42.115323,-15.295877,13.603695,4.63583E+18,-0.671273,0.266817,-0.631455,-0.281896,0
-9.700605,-1.065431,1.118801,0.781399,-0.411247,-0.197624,39.853337,-14.107924,-19.631291,4.63583E+18,0.401876,-0.57955,0.297375,0.643573,-9.825266,-1.587809,-0.229841,-0.134258,-0.181363,0.594261,40.057959,6.490546,-20.667981,4.63583E+18,-0.089839,-0.688439,-0.110664,0.71115,-9.517767,0.109309,-0.35858,0.309062,0.491786,-0.134898,42.103333,-15.150204,13.803754,4.63583E+18,-0.670503,0.266887,-0.633014,-0.280161,0
-9.855461,-0.964134,1.191342,0.859785,-0.350117,-0.162275,39.841774,-14.211013,-19.456557,4.63583E+18,0.404849,-0.577358,0.298729,0.643052,-9.759607,-1.824389,-0.28414,-0.144163,-0.153296,0.636987,40.105114,6.405094,-20.839731,4.63583E+18,-0.092214,-0.688211,-0.109229,0.711289,-9.835525,0.140477,-0.491485,0.320548,0.483504,-0.148576,41.352574,-14.442447,13.829986,4.63583E+18,-0.669778,0.26695,-0.634545,-0.278365,0
-10.119266,-0.59431,1.142752,0.92472,-0.391953,-0.107743,39.580242,-14.352065,-19.349637,4.63583E+18,0.407879,-0.574868,0.300311,0.642632,-9.800017,-1.855106,-0.024429,-0.105859,-0.139044,0.687811,40.079433,6.069622,-20.951689,4.63583E+18,-0.094622,-0.688057,-0.10754,0.711379,-10.188538,0.280953,-0.545325,0.326415,0.467115,-0.153463,40.321774,-13.46148,14.099917,4.63583E+18,-0.669105,0.266989,-0.636029,-0.276557,0
-10.439823,-0.005809,1.311179,0.967087,-0.477429,-0.040802,39.61239,-14.416944,-19.299011,4.63583E+18,0.41093,-0.571981,0.302017,0.642465,-9.685113,-1.250682,0.514774,-0.114253,-0.135102,0.720961,40.064697,5.719402,-20.89824,4.63583E+18,-0.09715,-0.68792,-0.105782,0.711434,-10.161577,0.236957,-0.515721,0.354303,0.441204,-0.180283,40.101152,-13.31209,14.392863,4.63583E+18,-0.668557,0.266989,-0.637438,-0.274628,0
-10.392086,0.60838,1.412671,0.94232,-0.517001,0.000475,39.918209,-14.458101,-19.464284,4.63583E+18,0.413853,-0.568966,0.30368,0.642481,-9.912387,-0.636087,0.548081,-0.166074,-0.123243,0.739562,40.249896,5.63982,-20.939479,4.63583E+18,-0.099875,-0.687798,-0.104129,0.711419,-10.15656,0.231941,-0.613546,0.354801,0.41352,-0.190496,40.615697,-13.731818,14.49537,4.63583E+18,-0.668092,0.266981,-0.638757,-0.272699,0
-10.022065,1.087127,1.493364,0.894358,-0.470088,0.00894,39.859442,-14.646613,-19.772147,4.63583E+18,0.416573,-0.566138,0.30531,0.642449,-10.220075,-0.667162,0.123841,-0.201581,-0.112341,0.724798,40.438468,5.63982,-20.88604,4.63583E+18,-0.102652,-0.68768,-0.102627,0.711355,-10.313414,0.444815,-0.678597,0.286981,0.39163,-0.202963,40.506007,-13.557077,14.412763,4.63583E+18,-0.667619,0.267168,-0.63992,-0.270939,0
-9.796213,1.334654,1.70427,0.854781,-0.366209,0.028777,39.618247,-14.928935,-19.784154,4.63583E+18,0.419008,-0.563622,0.307055,0.642246,-10.263066,-0.859114,-0.148135,-0.168593,-0.075994,0.671067,40.359389,5.325032,-20.714316,4.63583E+18,-0.105158,-0.687655,-0.101196,0.711219,-10.316261,0.183817,-0.616399,0.22407,0.370269,-0.216759,40.346323,-13.325161,14.583977,4.63583E+18,-0.667146,0.267541,-0.640935,-0.269331,0
-9.864698,1.554394,1.837442,0.790969,-0.245345,0.063513,39.421553,-15.255405,-19.593793,4.63583E+18,0.421039,-0.561488,0.308918,0.641893,-9.680194,-2.755041,-0.42678,-0.0158,0.072563,0.49706,40.265503,5.030341,-20.657875,4.63583E+18,-0.106647,-0.688058,-0.099875,0.710793,-10.382471,0.102684,-0.587965,0.197406,0.337144,-0.217902,41.307875,-14.067836,14.846508,4.63583E+18,-0.66673,0.267953,-0.641825,-0.267828,0
-10.010535,1.788766,1.80716,0.707548,-0.148785,0.092766,39.318502,-15.320292,-19.540188,4.63583E+18,0.422669,-0.559714,0.310792,0.641466,-9.18261,-9.260278,-2.999989,0.389298,0.339993,0.243981,40.31261,4.968413,-20.803044,4.63583E+18,-0.106113,-0.689325,-0.0982,0.709879,-10.3885,-0.238374,-0.597156,0.18959,0.315708,-0.218882,41.921756,-14.629022,14.947025,4.63583E+18,-0.666362,0.268364,-0.642644,-0.266367,0
-9.932343,2.078353,1.73484,0.631788,-0.098432,0.110628,39.197971,-15.358461,-19.581601,4.63583E+18,0.424006,-0.558181,0.312591,0.641046,-9.554415,-14.709304,-6.379205,1.223435,0.490616,0.1187,40.277719,4.783273,-20.998356,4.63583E+18,-0.102749,-0.691343,-0.094481,0.708916,-10.298903,-0.447757,-0.598163,0.186122,0.310116,-0.21603,41.890656,-14.538903,15.043666,4.63583E+18,-0.665999,0.26877,-0.643445,-0.264929,0
-9.781989,2.392819,1.591283,0.55442,-0.086993,0.131694,39.197971,-15.481924,-19.530923,4.63583E+18,0.425089,-0.556783,0.31425,0.640733,-9.390185,-14.197661,-6.554456,2.243944,0.574227,0.126874,40.454391,4.409565,-20.888213,4.63583E+18,-0.09643,-0.694004,-0.087756,0.708067,-10.279641,-0.116696,-0.575764,0.167239,0.279384,-0.211846,42.107593,-14.370017,15.219721,4.63583E+18,-0.66569,0.269182,-0.644142,-0.263587,0
-9.670145,2.697949,1.465829,0.49787,-0.094171,0.149027,39.197971,-15.491195,-19.672578,4.63583E+18,0.426002,-0.55544,0.315784,0.640539,-9.928466,-11.413941,-5.218675,3.064783,0.579054,0.16157,40.775526,3.874203,-20.606649,4.63583E+18,-0.087825,-0.696932,-0.078499,0.707397,-10.278633,-0.018255,-0.573748,0.133224,0.252151,-0.210513,41.970955,-14.075918,15.324435,4.63583E+18,-0.665413,0.269654,-0.644728,-0.262371,0
-9.501234,2.964988,1.38871,0.460146,-0.104812,0.148688,39.218512,-15.570421,-19.859452,4.63583E+18,0.426841,-0.554133,0.317195,0.640415,-11.992284,-7.315821,-1.26783,3.31817,0.327686,0.074284,40.626818,3.291253,-20.449562,4.63583E+18,-0.078293,-0.699056,-0.068643,0.707446,-10.133039,-0.202599,-0.584947,0.126394,0.239167,-0.202585,41.150479,-13.569142,15.343698,4.63583E+18,-0.665153,0.270108,-0.645277,-0.26121,0
-9.433389,3.085068,1.397042,0.427332,-0.118441,0.157623,39.283424,-15.897087,-19.702636,4.63583E+18,0.427597,-0.552833,0.318514,0.640379,-12.752426,-4.063016,4.163075,2.922485,0.018077,-0.213731,40.377145,2.760792,-20.422985,4.63583E+18,-0.06914,-0.699937,-0.060679,0.708256,-10.254315,-0.006968,-0.585955,0.107424,0.199003,-0.197961,41.301875,-13.738568,15.602264,4.63583E+18,-0.664973,0.270558,-0.645699,-0.260158,0
-9.412378,3.054202,1.508432,0.395677,-0.129205,0.176891,39.245279,-16.120582,-19.450268,4.63583E+18,0.428241,-0.551533,0.319772,0.640443,-11.574727,-2.989812,6.834827,2.119261,-0.174579,-0.62545,40.570923,2.451711,-20.339696,4.63583E+18,-0.061155,-0.699831,-0.056224,0.709461,-10.277624,-0.144565,-0.574757,0.08811,0.177834,-0.194668,41.84837,-14.026497,15.883031,4.63583E+18,-0.664823,0.271028,-0.646045,-0.25919,0
-9.35768,2.722025,1.79319,0.380004,-0.118843,0.195481,39.124729,-16.064943,-19.405897,4.63583E+18,0.428785,-0.550262,0.321048,0.640534,-11.04317,-3.146362,5.761292,1.111229,-0.274101,-0.999444,40.650654,2.522208,-20.461185,4.63583E+18,-0.055022,-0.699043,-0.055811,0.710772,-10.211445,-0.438648,-0.640936,0.106117,0.157628,-0.188524,41.369499,-13.412432,15.727078,4.63583E+18,-0.664741,0.27141,-0.64636,-0.258215,0
-9.240436,2.141026,2.206702,0.367641,-0.042212,0.217563,39.145264,-16.123615,-19.491343,4.63583E+18,0.429137,-0.549185,0.322477,0.640504,-10.9526,-2.670464,3.194386,0.210748,-0.41601,-1.235038,40.456319,2.878193,-20.665757,4.63583E+18,-0.050846,-0.697548,-0.058716,0.712316,-10.149405,-0.295931,-0.814943,0.109842,0.132436,-0.183095,40.862994,-12.795063,15.632551,4.63583E+18,-0.664723,0.271739,-0.646616,-0.257273,0
-8.963608,1.705584,2.373578,0.308298,0.109232,0.218626,39.192591,-16.367718,-19.485907,4.63583E+18,0.429147,-0.548616,0.324019,0.640207,-8.735893,-2.268266,-0.091341,-1.023839,-0.379744,-1.410752,40.440556,3.357932,-20.725215,4.63583E+18,-0.049725,-0.695826,-0.065802,0.713459,-9.9876,0.043931,-0.762924,0.067892,0.11072,-0.188531,40.754379,-12.67735,15.715048,4.63583E+18,-0.664722,0.272175,-0.646759,-0.256454,0
-8.630586,1.513237,2.059542,0.214256,0.29364,0.19119,39.154526,-16.553238,-19.239829,4.63583E+18,0.428764,-0.548741,0.325577,0.639565,-8.939083,-2.030812,-2.084155,-1.541692,-0.521636,-1.318859,40.566347,3.923165,-20.663413,4.63583E+18,-0.050413,-0.693554,-0.074127,0.714805,-9.80552,0.196392,-0.58893,0.01315,0.091319,-0.197878,40.669946,-12.592918,15.723135,4.63583E+18,-0.664719,0.272766,-0.64678,-0.255778,0
-8.378166,1.623652,1.471096,0.122175,0.440262,0.134187,39.251234,-16.532711,-19.168555,4.63583E+18,0.428123,-0.549497,0.327019,0.638609,-8.497957,1.269551,0.432668,-1.454897,-0.540666,-1.416476,40.398297,4.814408,-20.799988,4.63583E+18,-0.050561,-0.69116,-0.082466,0.716198,-9.745557,0.117965,-0.584943,-0.013985,0.075031,-0.203573,40.584494,-12.451492,15.633574,4.63583E+18,-0.664735,0.27343,-0.64672,-0.255179,0
-8.366006,1.917084,0.897928,0.034002,0.481988,0.061728,39.381084,-16.505895,-19.081095,4.63583E+18,0.427415,-0.550617,0.328134,0.637546,-5.609653,0.170442,-1.392237,-1.415913,-0.190672,-1.470129,40.129759,5.562617,-21.007495,4.63583E+18,-0.050313,-0.689748,-0.090912,0.716555,-9.674329,0.009098,-0.597152,-0.048352,0.067824,-0.209894,40.722961,-12.360969,15.793423,4.63583E+18,-0.664738,0.274197,-0.646596,-0.254664,0
-8.568147,2.164639,0.560543,-0.025427,0.457379,-0.021157,39.363498,-16.626484,-18.684125,4.63583E+18,0.426822,-0.551889,0.328855,0.636471,-6.592323,0.421506,-3.482285,-0.177772,-0.097625,-1.061018,39.935203,6.160007,-21.07627,4.63583E+18,-0.04769,-0.688996,-0.0945,0.716994,-9.589906,0.134327,-0.553387,-0.080655,0.056519,-0.214343,40.7473,-12.353892,15.98769,4.63583E+18,-0.664737,0.275054,-0.646401,-0.254236,0
-8.726331,2.355048,0.335473,-0.067335,0.425254,-0.09284,39.345918,-16.585475,-18.42292,4.63583E+18,0.426366,-0.553246,0.329241,0.635398,-5.133775,2.755165,-4.591221,0.82598,0.20501,-0.740711,39.884546,6.493263,-20.934191,4.63583E+18,-0.043021,-0.689458,-0.094229,0.71688,-9.63878,0.135295,-0.526946,-0.106822,0.052605,-0.222533,40.524441,-12.28673,16.003906,4.63583E+18,-0.664725,0.276,-0.646157,-0.253861,0
-8.936249,2.4322,0.072316,-0.103336,0.340089,-0.151964,39.466534,-16.438018,-18.506424,4.63583E+18,0.4261,-0.554521,0.329244,0.634464,-5.321635,6.485268,-6.301517,2.07117,0.341384,-0.169026,40.011051,6.361179,-20.886868,4.63583E+18,-0.036427,-0.690741,-0.088616,0.716726,-9.475943,0.067119,-0.390594,-0.114828,0.057236,-0.232058,40.492972,-12.13513,15.824807,4.63583E+18,-0.6647,0.276998,-0.645907,-0.253476,0
-9.166261,2.415138,-0.026913,-0.187245,0.211212,-0.191923,39.448972,-16.379409,-18.459593,4.63583E+18,0.425921,-0.555657,0.328702,0.633871,-5.757452,11.798927,-5.683862,3.140729,0.458751,0.391161,40.191207,5.734901,-21.016336,4.63583E+18,-0.02838,-0.692656,-0.078204,0.716454,-9.527892,0.139383,-0.255314,-0.117319,0.058659,-0.238732,40.637458,-11.976451,15.808587,4.63583E+18,-0.664675,0.278022,-0.645649,-0.253078,0
-9.280553,2.278929,0.217236,-0.270192,0.135842,-0.198888,39.428415,-16.273539,-18.363791,4.63583E+18,0.425671,-0.556749,0.32779,0.633552,-7.410472,13.711081,-4.326701,3.862438,0.41555,0.820663,40.198612,4.925566,-21.18723,4.63583E+18,-0.01954,-0.694511,-0.064375,0.71633,-9.713057,0.090528,-0.333686,-0.127289,0.054831,-0.251996,40.796151,-11.963255,15.97647,4.63583E+18,-0.664661,0.279104,-0.645355,-0.252674,0
-9.275199,2.032853,0.446749,-0.295533,0.069954,-0.204229,39.57783,-15.946795,-18.554254,4.63583E+18,0.425466,-0.557718,0.326681,0.63341,-10.54868,11.540391,2.958771,3.6737,0.369097,0.822875,40.260746,4.160214,-21.293402,4.63583E+18,-0.01126,-0.696031,-0.051083,0.716104,-9.83003,-0.160776,-0.487306,-0.118385,0.054476,-0.262944,40.809349,-11.963255,15.902161,4.63583E+18,-0.664669,0.28019,-0.645055,-0.252217,0
-9.240505,1.67691,0.688399,-0.307364,0.02611,-0.209569,39.680914,-15.922809,-18.602155,4.63583E+18,0.425306,-0.558598,0.32545,0.633376,-11.24156,8.498152,9.18274,2.834351,0.490747,0.555502,40.608066,3.480289,-21.230906,4.63583E+18,-0.004588,-0.69768,-0.041066,0.715217,-9.861549,-0.227874,-0.567649,-0.111621,0.04958,-0.273625,40.731012,-11.963255,15.815703,4.63583E+18,-0.664707,0.28128,-0.644736,-0.251718,0
-9.306892,1.196484,1.171252,-0.319939,0.008889,-0.21363,39.625233,-16.011762,-18.521558,4.63583E+18,0.425151,-0.559459,0.324144,0.63339,-12.636508,6.663678,9.943989,1.952127,0.506859,0.345305,40.850375,2.941343,-20.973119,4.63583E+18,0.000149,-0.699246,-0.034285,0.714058,-9.98668,-0.131224,-0.506604,-0.103254,0.047176,-0.285285,40.723896,-11.88492,15.797397,4.63583E+18,-0.664773,0.282374,-0.644404,-0.251167,0
-9.428952,0.571561,1.771869,-0.277537,0.008579,-0.216957,39.642783,-15.785302,-18.583491,4.63583E+18,0.425103,-0.560246,0.322941,0.633341,-14.254204,11.488584,8.696432,1.178012,0.325707,0.299859,40.654423,2.561042,-20.677187,4.63583E+18,0.00274,-0.700233,-0.029937,0.713281,-9.908326,-0.3683,-0.20951,-0.07806,0.05875,-0.300953,40.947738,-11.653962,16.053798,4.63583E+18,-0.664853,0.283452,-0.644112,-0.250491,0
-9.551018,-0.14367,2.058222,-0.196953,0.044059,-0.229818,39.680929,-15.496534,-18.700857,4.63583E+18,0.425228,-0.561001,0.321983,0.633077,-13.135979,17.492655,9.634958,0.10187,0.285612,0.178546,40.512693,2.348669,-20.532135,4.63583E+18,0.002547,-0.701087,-0.029142,0.712476,-9.855446,-0.379447,-0.283817,-0.052341,0.057858,-0.315014,41.11351,-11.566518,16.155476,4.63583E+18,-0.664978,0.284495,-0.643826,-0.249709,0
-9.699426,-1.015792,1.906889,-0.124113,0.120459,-0.233034,39.625233,-15.572708,-18.519644,4.63583E+18,0.42543,-0.561831,0.321344,0.63253,-11.050399,10.157308,6.810845,-0.958966,0.432914,-0.1424,40.741579,2.316444,-20.360514,4.63583E+18,0.000226,-0.702342,-0.032433,0.7111,-9.873753,-0.244158,-0.41606,-0.027685,0.043973,-0.324004,40.98128,-11.627547,16.084277,4.63583E+18,-0.665178,0.285479,-0.643516,-0.248852,0
-9.922569,-1.806031,1.677389,-0.021039,0.176545,-0.215945,39.66324,-15.596752,-18.44831,4.63583E+18,0.425752,-0.562602,0.321115,0.631743,-10.886267,1.851538,2.168875,-1.562099,0.487428,-0.379261,41.117369,2.633708,-20.091259,4.63583E+18,-0.00315,-0.703704,-0.038202,0.709459,-9.842221,-0.657133,-0.550341,-0.006054,0.037831,-0.330591,40.811396,-11.499384,15.987636,4.63583E+18,-0.665425,0.286412,-0.643203,-0.247926,0
-10.094491,-2.1571,1.538133,0.093305,0.171039,-0.200646,39.821926,-15.428782,-18.437134,4.63583E+18,0.426309,-0.563134,0.321212,0.630843,-9.732467,-0.459933,-0.715379,-1.667027,0.571972,-0.487662,41.147488,2.919335,-19.955435,4.63583E+18,-0.0065,-0.705259,-0.044599,0.707516,-9.917492,-0.88604,-0.57273,0.012371,0.040322,-0.333084,40.942602,-11.196246,16.147329,4.63583E+18,-0.665689,0.287303,-0.642911,-0.24694,0
-10.177537,-2.396603,1.593676,0.184101,0.167941,-0.191544,39.963087,-15.28762,-18.351679,4.63583E+18,0.427059,-0.563484,0.321564,0.629844,-10.463445,-2.97347,-0.437627,-1.11255,0.444484,-0.312441,40.932623,3.172727,-19.943934,4.63583E+18,-0.008759,-0.706455,-0.048842,0.706016,-9.801552,-0.545334,-0.450681,0.012907,0.04059,-0.330325,41.101279,-10.946015,16.240918,4.63583E+18,-0.665949,0.288185,-0.642624,-0.245961,0
-10.184939,-2.249813,1.810974,0.278969,0.2067,-0.184068,40.066055,-15.202181,-18.310062,4.63583E+18,0.427959,-0.563755,0.322249,0.628639,-10.864938,-4.102209,1.039891,-0.726235,0.343456,-0.056658,40.925843,3.484515,-19.799014,4.63583E+18,-0.010654,-0.707407,-0.051191,0.70487,-9.734399,-0.311331,-0.394715,-0.006761,0.025906,-0.325163,41.103345,-10.925626,16.158551,4.63583E+18,-0.666217,0.289091,-0.64228,-0.245066,0
-10.131627,-1.875827,1.894216,0.381236,0.261741,-0.176079,40.20723,-15.175174,-18.337589,4.63583E+18,0.429004,-0.563974,0.323318,0.627179,-10.174378,-4.316185,-1.048684,-0.803806,0.39155,-0.015686,41.119235,3.693955,-19.612944,4.63583E+18,-0.012887,-0.708496,-0.053648,0.703554,-9.807606,-0.606199,-0.591993,-0.003651,0.004991,-0.315908,40.968089,-11.003931,16.161581,4.63583E+18,-0.666535,0.289941,-0.641892,-0.244214,0
-10.171689,-1.361781,1.707674,0.446696,0.250311,-0.168,40.275146,-15.354314,-18.115985,4.63583E+18,0.430195,-0.564033,0.324555,0.62567,-9.126464,-4.271897,-5.124352,-0.627043,0.3654,0.043883,41.175571,3.79092,-19.494529,4.63583E+18,-0.014778,-0.709523,-0.05541,0.702345,-9.758821,-1.037493,-0.73342,0.00952,-0.010499,-0.297485,41.157192,-10.787351,16.061924,4.63583E+18,-0.666889,0.29069,-0.641495,-0.243397,0
-10.125494,-0.753373,1.592802,0.435428,0.222778,-0.161986,40.263991,-15.502065,-17.840046,4.63583E+18,0.431378,-0.564029,0.325726,0.624249,-9.232225,-5.338643,-6.158464,-0.032267,0.248468,0.222836,41.175571,3.873399,-19.249018,4.63583E+18,-0.015461,-0.710282,-0.054895,0.701603,-9.664225,-1.130183,-0.711093,0.005787,-0.025453,-0.272386,41.242691,-10.621507,15.963245,4.63583E+18,-0.667253,0.291365,-0.641083,-0.242678,0
-9.919826,-0.269313,1.614298,0.381047,0.223525,-0.144731,40.161009,-15.319993,-17.68029,4.63583E+18,0.432387,-0.564099,0.326795,0.622928,-9.618857,-6.067526,-3.879273,0.543986,0.166443,0.389881,41.110884,3.700103,-19.029976,4.63583E+18,-0.014946,-0.710873,-0.052196,0.701222,-9.689611,-1.056994,-0.652104,-0.014233,-0.037469,-0.245774,41.025117,-10.541124,15.955076,4.63583E+18,-0.667596,0.292013,-0.64065,-0.242101,0
-9.82112,0.061312,1.58271,0.359849,0.244467,-0.119399,40.040283,-15.124972,-17.591925,4.63583E+18,0.43325,-0.564224,0.327905,0.62163,-9.53857,-3.796051,-1.440151,0.794725,0.150609,0.45313,41.108597,3.268215,-19.047191,4.63583E+18,-0.013875,-0.711438,-0.048576,0.70093,-9.770972,-1.094576,-0.624623,-0.038532,-0.051176,-0.220049,40.937559,-10.534989,16.044554,4.63583E+18,-0.667919,0.292644,-0.640184,-0.241677,0
-9.817143,0.317668,1.400127,0.338299,0.23838,-0.086774,40.098676,-15.183365,-17.47091,4.63583E+18,0.433985,-0.564326,0.329023,0.620433,-9.734617,-0.57899,-0.198184,0.730482,0.152226,0.428293,41.179209,3.020158,-18.994049,4.63583E+18,-0.012922,-0.71199,-0.045216,0.700613,-9.744575,-1.154591,-0.600208,-0.05527,-0.062126,-0.188542,41.143936,-10.389586,16.04155,4.63583E+18,-0.668219,0.293227,-0.639709,-0.241399,0
-9.860662,0.574023,1.21835,0.288281,0.173177,-0.040495,40.325306,-15.409996,-17.296029,4.63583E+18,0.434571,-0.564284,0.330002,0.61954,-9.962583,1.538002,0.597259,0.537428,0.159213,0.352161,41.320097,2.913931,-18.89639,4.63583E+18,-0.012318,-0.712529,-0.042646,0.700237,-9.696774,-1.14852,-0.598163,-0.07814,-0.070849,-0.159437,41.375852,-10.298008,15.951059,4.63583E+18,-0.668484,0.293786,-0.639223,-0.241273,0
-9.839697,0.804098,1.183588,0.213257,0.115313,0.001626,40.434899,-15.540025,-17.235793,4.63583E+18,0.434951,-0.56417,0.330781,0.618962,-10.074747,2.011589,1.372597,0.306531,0.177459,0.279385,41.432597,2.64369,-18.937322,4.63583E+18,-0.012183,-0.713094,-0.040966,0.699765,-9.625577,-1.169863,-0.586979,-0.087939,-0.07548,-0.127661,41.328204,-10.290841,15.942868,4.63583E+18,-0.668717,0.294283,-0.638752,-0.241269,0
-9.787957,0.950565,1.226575,0.108729,0.069181,0.044788,40.369884,-15.519602,-17.333438,4.63583E+18,0.435037,-0.564066,0.331307,0.618714,-10.150946,1.952531,2.024408,0.05813,0.210134,0.196487,41.456341,2.443471,-18.958097,4.63583E+18,-0.012539,-0.713724,-0.040259,0.699156,-9.585883,-1.183094,-0.574772,-0.090613,-0.079753,-0.096595,41.187859,-10.436225,16.032335,4.63583E+18,-0.668926,0.2947,-0.638305,-0.241364,0
-9.712352,1.067875,1.253902,0.040253,0.022558,0.073209,40.390293,-15.454573,-17.387348,4.63583E+18,0.434954,-0.563927,0.331639,0.618722,-10.057916,1.984195,1.978928,-0.202044,0.248069,0.104855,41.456341,2.460284,-18.884196,4.63583E+18,-0.013396,-0.714435,-0.040584,0.698395,-9.616357,-1.172936,-0.58493,-0.087857,-0.090874,-0.063666,41.242665,-10.449537,15.872797,4.63583E+18,-0.669135,0.29501,-0.63787,-0.241557,0
-9.613602,1.071879,1.270113,0.001146,-0.017796,0.092739,40.434922,-15.492481,-17.31939,4.63583E+18,0.434784,-0.563727,0.331843,0.618914,-9.892947,1.577068,1.232954,-0.407425,0.267932,0.03294,41.391677,2.542769,-18.786535,4.63583E+18,-0.01465,-0.715178,-0.041723,0.697542,-9.630616,-1.261366,-0.608319,-0.082696,-0.102623,-0.037402,41.237632,-10.382446,15.678506,4.63583E+18,-0.669354,0.295223,-0.63744,-0.241824,0
-9.612504,0.972968,1.256261,-0.033141,-0.078988,0.111356,40.369884,-15.633668,-17.330497,4.63583E+18,0.434571,-0.563405,0.33189,0.619332,-9.77748,0.479841,0.412819,-0.496539,0.283433,-0.007156,41.435548,2.498897,-18.688884,4.63583E+18,-0.016051,-0.71595,-0.043241,0.696627,-9.732278,-1.280752,-0.588006,-0.081269,-0.110459,-0.00981,41.236607,-10.376293,15.751554,4.63583E+18,-0.669568,0.295351,-0.637023,-0.242174,0
-9.691585,0.76196,1.388912,-0.074181,-0.155089,0.134092,40.369884,-15.681229,-17.421787,4.63583E+18,0.434308,-0.562929,0.331747,0.620025,-9.799898,-0.494124,-0.066598,-0.49037,0.289756,-0.011721,41.456341,2.413447,-18.591228,4.63583E+18,-0.017418,-0.716735,-0.044755,0.69569,-9.752687,-1.270598,-0.574776,-0.06455,-0.113044,0.013065,41.236607,-10.443368,15.580889,4.63583E+18,-0.669786,0.295368,-0.636644,-0.242547,0
-9.757178,0.581769,1.662202,-0.098174,-0.213375,0.153111,40.34948,-15.605072,-17.505417,4.63583E+18,0.43402,-0.562319,0.331481,0.620923,-9.796282,-1.20674,-0.287992,-0.418415,0.292152,0.008713,41.520989,2.457299,-18.42893,4.63583E+18,-0.018629,-0.717533,-0.045999,0.694754,-9.69782,-1.236033,-0.573748,-0.049326,-0.119093,0.031583,41.370758,-10.371284,15.475007,4.63583E+18,-0.670019,0.295287,-0.636287,-0.24294,0
-9.703076,0.428364,1.990511,-0.102639,-0.1914,0.166025,40.246553,-15.560421,-17.525813,4.63583E+18,0.433657,-0.561755,0.331272,0.621798,-9.670297,-1.671949,-0.58815,-0.306051,0.299136,0.044041,41.597196,2.672015,-18.38435,4.63583E+18,-0.019604,-0.718364,-0.046813,0.693814,-9.737394,-1.143516,-0.584927,-0.042198,-0.127458,0.049741,41.461349,-10.364085,15.634465,4.63583E+18,-0.670264,0.295129,-0.635935,-0.243374,0
-9.60778,0.327794,2.101888,-0.097918,-0.100197,0.168864,40.105342,-15.66335,-17.611262,4.63583E+18,0.433172,-0.561414,0.331246,0.622457,-9.567006,-1.668504,-0.893013,-0.158692,0.285867,0.090572,41.790474,2.863728,-18.38435,4.63583E+18,-0.020275,-0.719175,-0.047061,0.692937,-9.808574,-0.978801,-0.585955,-0.041658,-0.139914,0.061052,41.546793,-10.442329,15.739312,4.63583E+18,-0.670531,0.294927,-0.635564,-0.243854,0
-9.588076,0.209204,1.836706,-0.113293,-0.020745,0.158537,40.040283,-15.784172,-17.676319,4.63583E+18,0.432568,-0.56132,0.331299,0.622933,-9.518489,-1.746595,-0.862816,-0.008398,0.267188,0.137283,41.911613,2.840727,-18.236613,4.63583E+18,-0.020634,-0.719953,-0.046734,0.69214,-9.837107,-0.930852,-0.541245,-0.049482,-0.146864,0.072711,41.408694,-10.594845,15.579887,4.63583E+18,-0.670795,0.294707,-0.635179,-0.244396,0
-9.670046,0.074372,1.40085,-0.153369,-0.026119,0.138695,40.060659,-15.763796,-17.632657,4.63583E+18,0.431929,-0.561311,0.331191,0.623441,-9.546497,-1.533005,-0.654687,0.102093,0.257109,0.163821,41.93243,2.690656,-17.967452,4.63583E+18,-0.02074,-0.720715,-0.046007,0.691392,-9.827989,-1.006005,-0.47006,-0.047269,-0.152295,0.085439,41.328239,-10.608233,15.564439,4.63583E+18,-0.671062,0.294442,-0.634797,-0.244975,0
-9.768272,-0.066958,1.242905,-0.179087,-0.098041,0.107924,40.125736,-15.739478,-17.536877,4.63583E+18,0.431409,-0.561204,0.330815,0.624097,-9.687646,-0.935684,-0.505842,0.128465,0.243978,0.169575,41.93243,2.778256,-17.822196,4.63583E+18,-0.020785,-0.721442,-0.045187,0.690686,-9.804604,-0.968504,-0.430349,-0.047977,-0.153723,0.09141,41.310882,-10.608233,15.475019,4.63583E+18,-0.671325,0.294161,-0.634417,-0.245574,0
-9.800193,-0.344834,1.452795,-0.153685,-0.150256,0.085295,40.105352,-15.890008,-17.696703,4.63583E+18,0.431079,-0.560946,0.330357,0.624799,-9.90471,-0.399783,-0.374536,0.088048,0.232255,0.146409,41.997056,2.81991,-17.946108,4.63583E+18,-0.020887,-0.722125,-0.044551,0.69001,-9.824897,-0.696156,-0.315497,-0.050022,-0.152835,0.097728,41.455142,-10.597058,15.37737,4.63583E+18,-0.671577,0.293869,-0.634045,-0.246196,0
-9.750805,-0.57262,1.659643,-0.100037,-0.150346,0.076192,40.002442,-15.955076,-17.738485,4.63583E+18,0.430899,-0.560603,0.330017,0.625411,-10.035089,0.439247,-0.314114,0.027923,0.229652,0.109782,41.962496,2.626059,-18.06756,4.63583E+18,-0.021065,-0.722789,-0.044198,0.689333,-9.815784,-0.74964,-0.215776,-0.03749,-0.153723,0.104137,41.457372,-10.674258,15.112071,4.63583E+18,-0.671839,0.293524,-0.633691,-0.246803,0
-9.761881,-0.667366,1.682277,-0.066218,-0.129394,0.067187,39.89905,-15.934703,-17.71068,4.63583E+18,0.430792,-0.560266,0.329782,0.625911,-10.095823,0.532948,-0.323646,-0.055027,0.223998,0.065676,41.81541,2.692784,-17.943682,4.63583E+18,-0.021367,-0.723419,-0.044216,0.68866,-9.725355,-1.080926,-0.352797,0.001817,-0.148924,0.10859,41.456341,-10.681478,15.08835,4.63583E+18,-0.672131,0.293062,-0.633397,-0.247313,0
-9.838597,-0.746991,1.629973,-0.045571,-0.116323,0.054321,39.992652,-15.852168,-17.86234,4.63583E+18,0.430749,-0.559943,0.329593,0.626329,-10.163113,0.525219,-0.218832,-0.116483,0.226213,0.01813,42.01373,2.734458,-17.748363,4.63583E+18,-0.021717,-0.724041,-0.044554,0.687974,-9.66122,-1.144398,-0.377397,0.052274,-0.139673,0.115796,41.456341,-10.681478,15.08835,4.63583E+18,-0.672452,0.292448,-0.633189,-0.247699,0
-9.881608,-0.828394,1.605558,-0.029853,-0.104983,0.044962,40.116436,-15.813836,-17.825089,4.63583E+18,0.430751,-0.559634,0.329443,0.626682,-10.199433,0.620191,-0.063127,-0.16801,0.225093,-0.022664,42.857176,2.051474,-17.60844,4.63583E+18,-0.022106,-0.724646,-0.045163,0.687284,-9.68958,-1.091623,-0.177286,0.09279,-0.126148,0.117406,41.456341,-10.681478,14.909557,4.63583E+18,-0.672785,0.291729,-0.633062,-0.247966,0
-9.891476,-0.963245,1.592781,-0.008894,-0.099996,0.038199,40.125736,-15.88999,-17.676319,4.63583E+18,0.430814,-0.559309,0.329341,0.626982,-10.122327,0.527013,0.003273,-0.212012,0.225119,-0.063539,43.556569,1.268131,-17.486369,4.63583E+18,-0.02251,-0.725239,-0.046021,0.686589,-9.826757,-0.740087,-0.158696,0.100044,-0.116174,0.127273,41.311089,-10.614438,14.893032,4.63583E+18,-0.673089,0.290974,-0.632983,-0.24823,0
-9.843218,-1.028902,1.605559,0.018722,-0.088297,0.036622,40.105373,-15.995803,-17.719955,4.63583E+18,0.430929,-0.558968,0.329328,0.627215,-9.874022,0.119129,-0.218522,-0.26013,0.224572,-0.089046,43.508691,1.215667,-17.318149,4.63583E+18,-0.022986,-0.725819,-0.047094,0.685887,-9.917379,-0.518086,-0.281601,0.083786,-0.121226,0.126222,41.297646,-10.530021,15.071802,4.63583E+18,-0.673387,0.290262,-0.632871,-0.24854,0
-9.734511,-0.98356,1.566607,0.037488,-0.072072,0.03469,39.961769,-16.085269,-17.882694,4.63583E+18,0.43107,-0.558637,0.329389,0.62738,-9.811773,-0.267614,-0.42217,-0.301446,0.194435,-0.101264,43.307728,1.626485,-17.061231,4.63583E+18,-0.023558,-0.726305,-0.048319,0.685268,-9.812887,-0.656928,-0.248285,0.059761,-0.118836,0.123108,41.375859,-10.600994,15.177735,4.63583E+18,-0.673653,0.289627,-0.632737,-0.248901,0
-9.571756,-0.895776,1.507326,0.050611,-0.056103,0.036317,39.710682,-15.917273,-17.95709,4.63583E+18,0.431216,-0.558322,0.329516,0.627494,-9.787069,-0.473975,-0.897583,-0.29872,0.155722,-0.093114,43.318403,1.93944,-17.066527,4.63583E+18,-0.024152,-0.72668,-0.049508,0.684764,-9.724343,-0.671407,-0.154774,0.050837,-0.111722,0.126747,41.450127,-10.742295,14.917886,4.63583E+18,-0.673884,0.289015,-0.632618,-0.249288,0
-9.48573,-0.74696,1.540463,0.06002,-0.053967,0.036317,39.748481,-15.776027,-17.983259,4.63583E+18,0.431382,-0.557995,0.329671,0.627589,-9.704317,-0.909454,-1.295974,-0.252828,0.133419,-0.074385,43.465455,1.937428,-17.311803,4.63583E+18,-0.024666,-0.726999,-0.050508,0.684334,-9.694747,-0.582023,-0.124143,0.038471,-0.11402,0.133953,41.52338,-10.82176,14.546668,4.63583E+18,-0.674099,0.288415,-0.632488,-0.249731,0
-9.460156,-0.545847,1.601495,0.060274,-0.051068,0.038352,39.889726,-15.769057,-18.087302,4.63583E+18,0.431538,-0.557673,0.329836,0.627681,-9.763507,-1.240606,-1.287174,-0.173067,0.119558,-0.052476,43.571769,1.851979,-17.226496,4.63583E+18,-0.025002,-0.72729,-0.051212,0.68396,-9.681506,-0.696638,-0.177933,0.024677,-0.115269,0.141429,41.607787,-10.90617,14.68218,4.63583E+18,-0.674292,0.287833,-0.63235,-0.250232,0
-9.526421,-0.349368,1.659624,0.042218,-0.042421,0.046896,39.917051,-15.995762,-18.172751,4.63583E+18,0.431619,-0.557393,0.32999,0.627794,-9.781111,-1.167799,-0.962123,-0.099203,0.114814,-0.033274,43.592636,1.766527,-16.815993,4.63583E+18,-0.025171,-0.727579,-0.051647,0.683614,-9.736322,-0.752711,-0.171941,0.021544,-0.11536,0.15086,41.771423,-10.980441,14.965802,4.63583E+18,-0.674471,0.287234,-0.632219,-0.250768,0
-9.651388,-0.244736,1.696829,0.018416,-0.015317,0.054424,39.79323,-16.08531,-18.23786,4.63583E+18,0.431587,-0.557217,0.330147,0.627889,-9.750454,-0.910903,-0.691448,-0.045116,0.114292,-0.015925,43.408133,1.745659,-16.625926,4.63583E+18,-0.025224,-0.727875,-0.051875,0.683279,-9.797359,-0.723348,-0.170904,0.023318,-0.113405,0.162428,41.562537,-11.064855,14.912499,4.63583E+18,-0.674635,0.286601,-0.632109,-0.25133,0
-9.753716,-0.201712,1.647415,0.000356,0.028382,0.057934,39.824622,-15.937636,-18.217513,4.63583E+18,0.431445,-0.557182,0.330343,0.627915,-9.686159,-0.722389,-0.477964,-0.025848,0.115906,-0.005292,43.348488,1.874805,-16.897262,4.63583E+18,-0.025249,-0.72818,-0.052017,0.682943,-9.791375,-0.686726,-0.170904,0.021544,-0.115178,0.170268,41.396582,-11.139136,14.648324,4.63583E+18,-0.674792,0.28595,-0.632001,-0.25192,0
-9.762452,-0.20641,1.416495,-0.00636,0.028613,0.060532,39.975217,-15.881832,-18.12911,4.63583E+18,0.43128,-0.557157,0.330528,0.627953,-9.612922,-0.554483,-0.362693,-0.016236,0.120463,-0.005626,43.523738,2.045694,-17.140285,4.63583E+18,-0.025243,-0.728499,-0.052133,0.682594,-9.823844,-0.583095,-0.316099,0.001817,-0.119269,0.171881,41.528293,-11.145359,14.6133,4.63583E+18,-0.674933,0.285346,-0.631862,-0.252572,0
-9.799073,-0.289506,1.146263,-0.011397,-0.034329,0.067754,39.96166,-15.881832,-18.078044,4.63583E+18,0.431171,-0.556965,0.330603,0.628158,-9.650366,-0.383569,-0.323358,-0.023572,0.120962,-0.011252,43.654225,1.893753,-17.114229,4.63583E+18,-0.025242,-0.728817,-0.052287,0.682243,-9.759947,-0.55141,-0.273756,-0.002932,-0.113769,0.170995,41.541794,-11.078347,14.701612,4.63583E+18,-0.675055,0.284762,-0.631733,-0.253228,0
-9.835692,-0.331947,1.063263,-0.018109,-0.134618,0.073653,39.672841,-15.919673,-18.126211,4.63583E+18,0.431169,-0.556515,0.330494,0.628616,-9.686711,-0.387926,-0.308169,-0.050109,0.125543,-0.02331,43.622746,1.646637,-16.933563,4.63583E+18,-0.025287,-0.729142,-0.052554,0.681873,-9.686694,-0.638694,-0.246223,0.006569,-0.117133,0.171881,41.530624,-11.139135,14.5312,4.63583E+18,-0.675196,0.284145,-0.631605,-0.253864,0
-9.846117,-0.410449,1.262711,-0.015505,-0.208806,0.079199,39.589827,-16.078369,-18.019255,4.63583E+18,0.431261,-0.555858,0.33027,0.629251,-9.674232,-0.495077,-0.323632,-0.077049,0.131952,-0.036388,43.59562,1.771429,-16.892062,4.63583E+18,-0.025375,-0.729479,-0.052937,0.681479,-9.646964,-0.591148,-0.199473,0.032886,-0.11261,0.174904,41.607767,-11.145359,14.425252,4.63583E+18,-0.675352,0.283451,-0.631521,-0.254435,0
-9.752506,-0.535992,1.55155,0.01008,-0.222168,0.089576,39.731053,-16.161392,-17.944883,4.63583E+18,0.431404,-0.555104,0.330113,0.629901,-9.677486,-0.460355,-0.375716,-0.093807,0.128676,-0.048399,43.712541,2.0248,-16.968833,4.63583E+18,-0.02548,-0.729802,-0.053405,0.681093,-9.643848,-0.463114,-0.128314,0.053815,-0.111178,0.174199,41.458693,-11.078355,14.338771,4.63583E+18,-0.675529,0.2827,-0.631462,-0.254947,0
-9.561843,-0.607462,1.675323,0.030263,-0.193888,0.099847,39.75542,-16.040527,-18.014681,4.63583E+18,0.431526,-0.554374,0.330084,0.630475,-9.615916,-0.384133,-0.556636,-0.119796,0.11904,-0.064989,43.806667,2.216577,-16.918928,4.63583E+18,-0.025619,-0.730091,-0.053996,0.680731,-9.655018,-0.384662,-0.133243,0.066293,-0.109133,0.172154,41.220761,-11.005103,14.253311,4.63583E+18,-0.675716,0.281921,-0.631419,-0.255417,0
-9.263028,-0.603981,1.675895,0.015913,-0.142559,0.100201,39.587415,-16.101617,-18.255314,4.63583E+18,0.431545,-0.553804,0.330109,0.630951,-9.622681,-0.421547,-0.85933,-0.130337,0.113201,-0.075077,43.640162,2.313694,-16.756735,4.63583E+18,-0.025763,-0.730359,-0.054647,0.680386,-9.600219,-0.255588,-0.167784,0.065339,-0.11286,0.164155,41.356332,-11.211051,14.413551,4.63583E+18,-0.67592,0.281162,-0.631355,-0.255872,0
-8.986376,-0.616762,1.627644,-0.018365,-0.085041,0.093589,39.507245,-16.334686,-18.287842,4.63583E+18,0.431422,-0.553455,0.330132,0.631329,-9.733077,-0.52246,-1.096735,-0.105562,0.100052,-0.075293,43.460551,2.202513,-16.711935,4.63583E+18,-0.025833,-0.730593,-0.055227,0.680086,-9.639683,-0.288812,-0.103908,0.063203,-0.112247,0.154633,41.594207,-11.364803,14.518478,4.63583E+18,-0.676129,0.280434,-0.631279,-0.256306,0
-8.895138,-0.566176,1.548008,-0.040794,-0.060071,0.08647,39.713045,-16.45558,-18.236709,4.63583E+18,0.431232,-0.553221,0.330124,0.631668,-9.775143,-0.650761,-0.898536,-0.077031,0.084838,-0.07235,43.541603,2.040841,-16.702715,4.63583E+18,-0.025828,-0.730786,-0.055716,0.679838,-9.677346,-0.337641,-0.064162,0.06986,-0.110201,0.150882,41.324726,-11.310305,14.52681,4.63583E+18,-0.676345,0.279698,-0.631212,-0.256708,0
-8.992221,-0.43771,1.492787,-0.045371,-0.067754,0.088961,39.934475,-16.397421,-18.383803,4.63583E+18,0.431035,-0.552972,0.330095,0.632035,-9.732028,-0.775818,-0.734913,-0.052749,0.077145,-0.056237,43.700293,2.186422,-16.561422,4.63583E+18,-0.025797,-0.730964,-0.056086,0.679618,-9.68047,-0.17434,-0.105695,0.060729,-0.113927,0.144747,41.018531,-11.460358,14.537975,4.63583E+18,-0.676565,0.279,-0.631116,-0.257122,0
-9.123588,-0.330757,1.470703,-0.046235,-0.098373,0.08652,39.790886,-16.211432,-18.613382,4.63583E+18,0.430886,-0.552647,0.330004,0.632469,-9.624901,-0.78725,-0.726468,-0.036512,0.079065,-0.039977,43.729905,2.439767,-16.442862,4.63583E+18,-0.025761,-0.731153,-0.056361,0.679394,-9.725128,-0.337326,-0.04288,0.054932,-0.116246,0.139316,41.003626,-11.765233,14.639496,4.63583E+18,-0.676789,0.27833,-0.631002,-0.257538,0
-9.263075,-0.262166,1.509641,-0.040489,-0.127058,0.085757,39.502011,-16.231769,-18.58084,4.63583E+18,0.43079,-0.552236,0.329874,0.63296,-9.576586,-0.716757,-0.621844,-0.012145,0.078498,-0.020994,43.671619,2.308967,-16.566424,4.63583E+18,-0.025705,-0.731346,-0.056509,0.679175,-9.796286,-0.588466,-0.08128,0.064244,-0.111544,0.137882,41.138641,-11.781187,14.548405,4.63583E+18,-0.677014,0.277642,-0.630908,-0.25792,0
-9.461318,-0.28077,1.55441,-0.028382,-0.13184,0.081281,39.401429,-16.317228,-18.506424,4.63583E+18,0.430742,-0.551798,0.329756,0.633437,-9.635116,-0.658958,-0.39242,-0.000502,0.086845,-0.004733,43.662891,2.126354,-16.678788,4.63583E+18,-0.025657,-0.731569,-0.056576,0.678931,-9.836034,-0.643859,-0.018474,0.081762,-0.100343,0.140721,41.363255,-11.568047,14.271105,4.63583E+18,-0.677225,0.276908,-0.630869,-0.258251,0
-9.686274,-0.274958,1.466054,-0.026551,-0.147403,0.071465,39.466534,-16.361993,-18.552922,4.63583E+18,0.430744,-0.551328,0.329593,0.633929,-9.628405,-0.536387,-0.283514,-0.015868,0.100209,-0.002681,43.730403,2.087466,-16.625991,4.63583E+18,-0.025659,-0.731828,-0.056681,0.678644,-9.839167,-0.613504,-0.012207,0.09992,-0.0925,0.145879,41.517053,-11.391923,14.067433,4.63583E+18,-0.67743,0.276118,-0.630876,-0.258539,0
-9.937969,-0.273785,1.397454,-0.04318,-0.189719,0.056563,39.425864,-16.276548,-18.748222,4.63583E+18,0.430806,-0.550796,0.329275,0.634514,-9.582568,-0.399124,-0.305428,-0.052814,0.111675,-0.009656,43.806632,2.15198,-16.537554,4.63583E+18,-0.025751,-0.732113,-0.056914,0.678313,-9.85033,-0.476415,-0.090348,0.118079,-0.097721,0.15415,41.529587,-11.667535,14.050721,4.63583E+18,-0.677661,0.275248,-0.630898,-0.258809,0
-10.09666,-0.358646,1.453819,-0.072528,-0.217799,0.040439,39.295631,-16.211432,-18.89706,4.63583E+18,0.430882,-0.550264,0.328791,0.635175,-9.699628,-0.39387,-0.354256,-0.112211,0.114292,-0.014169,43.879874,2.228214,-16.442888,4.63583E+18,-0.02601,-0.732398,-0.057328,0.67796,-9.784397,-0.653651,-0.053008,0.130377,-0.094363,0.164649,41.618891,-12.130045,14.140024,4.63583E+18,-0.677884,0.27432,-0.630954,-0.259073,0
-10.2205,-0.483613,1.606694,-0.098928,-0.221262,0.032096,39.315956,-16.231756,-18.873832,4.63583E+18,0.430923,-0.549781,0.328212,0.635864,-9.787587,-0.347548,-0.412302,-0.188658,0.115905,-0.024631,43.833311,2.310674,-16.271501,4.63583E+18,-0.026473,-0.732677,-0.057991,0.677585,-9.688837,-0.604438,-0.026506,0.132359,-0.084231,0.170446,41.928607,-12.516789,14.14838,4.63583E+18,-0.678076,0.273381,-0.631047,-0.259336,0
-10.186251,-0.60628,1.720651,-0.103056,-0.201839,0.029602,39.360759,-16.317208,-18.819725,4.63583E+18,0.430935,-0.549359,0.32765,0.63651,-9.673537,-0.384889,-0.491763,-0.242153,0.117234,-0.036641,43.692578,2.396118,-16.232853,4.63583E+18,-0.027064,-0.732949,-0.058842,0.677193,-9.736278,-0.307966,0.020231,0.12952,-0.089175,0.178717,41.956844,-12.482242,14.14838,4.63583E+18,-0.678268,0.272423,-0.631132,-0.259635,0
-9.985719,-0.688828,1.740445,-0.079458,-0.173952,0.029504,39.254982,-16.362011,-18.93131,4.63583E+18,0.430963,-0.548969,0.327201,0.637058,-9.539496,-0.541062,-0.457424,-0.25557,0.111046,-0.038715,43.653675,2.352564,-16.300348,4.63583E+18,-0.027692,-0.733201,-0.059736,0.676817,-9.786148,-0.381211,-0.120666,0.117528,-0.092654,0.185308,41.722483,-12.185804,14.0591,4.63583E+18,-0.678448,0.271477,-0.631202,-0.259988,0
-9.755499,-0.733039,1.652687,-0.046295,-0.202265,0.016028,39.124729,-16.279464,-19.103397,4.63583E+18,0.431141,-0.548462,0.326757,0.637602,-9.518781,-0.705744,-0.46711,-0.236199,0.10492,-0.026359,43.773463,2.396116,-16.183081,4.63583E+18,-0.028297,-0.73344,-0.060537,0.676461,-9.801497,-0.524557,-0.111962,0.094945,-0.092929,0.183905,41.55541,-11.946534,14.050721,4.63583E+18,-0.678603,0.270597,-0.631244,-0.260396,0
-9.652555,-0.684214,1.588067,-0.02223,-0.285566,-0.000814,39.145043,-16.243953,-19.201046,4.63583E+18,0.431532,-0.547713,0.326189,0.638272,-9.530988,-0.735438,-0.430022,-0.17322,0.097161,-0.009532,43.81237,2.417066,-15.990772,4.63583E+18,-0.028758,-0.733668,-0.061108,0.676143,-9.914011,-0.39222,-0.020694,0.070496,-0.087077,0.189573,41.541794,-11.859754,14.050721,4.63583E+18,-0.678709,0.269778,-0.631282,-0.260879,0
-9.686275,-0.606364,1.778686,-0.015365,-0.382163,-0.002539,39.189865,-16.346818,-19.295804,4.63583E+18,0.432073,-0.546696,0.32546,0.639149,-9.672178,-0.529757,-0.433478,-0.11538,0.087004,-0.004535,43.757091,2.417066,-16.090278,4.63583E+18,-0.029059,-0.733876,-0.0615,0.67587,-9.958051,-0.088686,0.154952,0.00693,-0.095296,0.18428,41.541794,-11.920252,14.139873,4.63583E+18,-0.67877,0.269143,-0.631221,-0.261522,0
-9.707787,-0.403546,2.060048,-0.00387,-0.467559,-0.019822,39.104417,-16.430065,-19.360941,4.63583E+18,0.432802,-0.545452,0.324568,0.640172,-9.781584,-0.417816,-0.87248,-0.107379,0.073098,-0.000242,43.729912,2.601327,-16.285596,4.63583E+18,-0.029352,-0.734046,-0.061854,0.67564,-10.050391,0.373573,0.326918,-0.107167,-0.125386,0.155444,41.408068,-12.216373,14.159525,4.63583E+18,-0.678812,0.268873,-0.630918,-0.262417,0
-9.746096,-0.098397,2.315768,-0.001564,-0.532604,-0.058017,39.001573,-16.28879,-19.407345,4.63583E+18,0.433724,-0.54408,0.323476,0.641268,-9.811756,-0.531796,-1.381648,-0.118622,0.052505,0.001874,43.84666,2.72569,-16.333506,4.63583E+18,-0.02969,-0.734157,-0.062232,0.67547,-9.969749,0.459627,0.542397,-0.184777,-0.110626,0.134218,41.328441,-12.533765,13.99343,4.63583E+18,-0.678752,0.268895,-0.630548,-0.26344,0
-9.833368,0.203869,2.556537,-0.031204,-0.516088,-0.093116,38.860284,-16.206242,-19.602651,4.63583E+18,0.434648,-0.542849,0.322253,0.6423,-9.888433,-0.629009,-1.47388,-0.104845,0.026045,-0.009146,43.830354,2.562463,-16.186144,4.63583E+18,-0.029961,-0.734192,-0.062601,0.675386,-9.961241,0.140748,0.617253,-0.200948,-0.080677,0.109051,41.388916,-12.561418,13.799196,4.63583E+18,-0.678621,0.26906,-0.630216,-0.264401,0
-9.806052,0.44176,2.612384,-0.093632,-0.482867,-0.113531,38.795128,-16.170696,-19.774781,4.63583E+18,0.435439,-0.541846,0.320875,0.6433,-9.728187,-0.55488,-1.372776,-0.070322,0.005525,-0.016042,43.81237,2.502518,-15.990807,4.63583E+18,-0.030112,-0.734171,-0.062891,0.675374,-10.005811,-0.057269,0.656005,-0.20188,-0.062375,0.085366,41.384164,-12.416567,13.693019,4.63583E+18,-0.678466,0.26931,-0.629908,-0.265276,0
-9.754937,0.450607,2.629779,-0.254897,-0.424711,-0.108297,38.832816,-16.215552,-19.895623,4.63583E+18,0.435773,-0.541282,0.319181,0.644391,-9.695895,-0.55255,-1.002027,-0.046378,-0.016662,-0.012255,43.867634,2.566991,-15.942868,4.63583E+18,-0.030207,-0.734093,-0.0631,0.675436,-10.221776,0.305597,0.469779,-0.226254,-0.059909,0.064791,41.449951,-12.402721,13.684499,4.63583E+18,-0.6783,0.269685,-0.629556,-0.266154,0
-9.636984,0.280315,2.543571,-0.553698,-0.251097,-0.098577,38.93353,-16.092412,-20.137328,4.63583E+18,0.435173,-0.54171,0.31702,0.645502,-9.741722,-0.515495,-0.762214,-0.067443,-0.033712,-0.021963,43.894825,2.459043,-16.090213,4.63583E+18,-0.030343,-0.73396,-0.063396,0.675546,-10.21973,0.397513,0.551943,-0.227609,-0.052018,0.039625,41.534329,-12.547555,13.684499,4.63583E+18,-0.678139,0.270138,-0.629196,-0.266956,0
-9.590121,0.038009,1.893248,-0.762136,-0.084584,-0.09588,38.845183,-15.888854,-20.504764,4.63583E+18,0.433873,-0.542956,0.314604,0.646512,-9.707667,-0.159742,-0.886013,-0.102432,-0.043026,-0.051423,43.833354,2.417066,-16.138187,4.63583E+18,-0.030506,-0.73379,-0.063879,0.675679,-10.306724,0.46969,0.717513,-0.266509,-0.064919,0.000342,41.408103,-12.561418,13.773626,4.63583E+18,-0.67801,0.270789,-0.628712,-0.267763,0
-10.04733,-0.22325,1.182661,-0.80296,-0.127186,-0.093798,38.753332,-15.833002,-20.704995,4.63583E+18,0.432526,-0.544152,0.312001,0.647669,-9.609797,-0.205383,-0.811044,-0.127203,-0.04728,-0.067874,43.747906,2.601246,-15.917171,4.63583E+18,-0.030699,-0.733599,-0.064482,0.675819,-10.337537,1.010853,0.854994,-0.324832,-0.06915,-0.038298,41.317318,-12.561418,13.615045,4.63583E+18,-0.677869,0.271701,-0.628106,-0.268618,0
-10.611515,-0.218479,0.920718,-0.936357,-0.28192,-0.070725,38.677202,-15.7751,-20.656568,4.63583E+18,0.431009,-0.545134,0.308807,0.649383,-9.684107,-0.495781,-0.584893,-0.138091,-0.048067,-0.072915,43.726917,2.661214,-15.780749,4.63583E+18,-0.030911,-0.733403,-0.065131,0.67596,-10.205996,0.816973,1.178634,-0.335906,-0.054809,-0.084545,41.443527,-12.561418,13.50993,4.63583E+18,-0.677728,0.27278,-0.627474,-0.269355,0
-10.753074,-0.33352,1.092426,-1.128735,-0.35371,0.012431,38.591744,-15.548312,-20.786711,4.63583E+18,0.428915,-0.546149,0.305147,0.651643,-9.818388,-0.509287,-0.570962,-0.161683,-0.044844,-0.075314,43.846632,2.661214,-15.971556,4.63583E+18,-0.031188,-0.733212,-0.065854,0.676084,-10.237739,0.849179,1.163975,-0.344264,-0.052433,-0.14324,41.601153,-12.550278,13.490248,4.63583E+18,-0.677636,0.274038,-0.626772,-0.269945,0
-10.643218,-0.362566,1.479362,-1.187669,-0.241598,0.076983,38.506302,-15.380319,-20.984908,4.63583E+18,0.426359,-0.547478,0.301665,0.653822,-9.593563,-0.35939,-0.742484,-0.231609,-0.0446,-0.092757,44.014521,2.79012,-16.261509,4.63583E+18,-0.031629,-0.733008,-0.066827,0.676191,-10.275433,1.16646,1.059436,-0.330389,-0.027969,-0.201113,41.615036,-12.415521,13.667433,4.63583E+18,-0.677559,0.275435,-0.626087,-0.270307,0
-10.602824,-0.036622,1.337768,-1.103748,-0.211717,0.04648,38.458481,-15.181096,-21.192433,4.63583E+18,0.42403,-0.548766,0.298389,0.655759,-9.620054,-0.565987,-0.867139,-0.260139,-0.059364,-0.086185,43.992067,2.896568,-16.333506,4.63583E+18,-0.032179,-0.732758,-0.067859,0.676332,-10.423449,1.419117,0.793626,-0.304622,-0.017838,-0.253914,41.615036,-12.324745,13.506266,4.63583E+18,-0.677542,0.276907,-0.625397,-0.27044,0
-10.696204,-0.097404,0.732444,-1.071892,-0.404881,0.010594,38.494098,-14.8544,-21.420214,4.63583E+18,0.422103,-0.549501,0.294769,0.658019,-9.784941,-0.84032,-0.900347,-0.235376,-0.081811,-0.073387,43.786944,2.853127,-16.186208,4.63583E+18,-0.032697,-0.732452,-0.068779,0.676546,-10.147704,1.072871,0.446022,-0.132688,0.058936,-0.293581,41.537062,-12.31727,13.322089,4.63583E+18,-0.677567,0.278083,-0.62507,-0.269925,0
-10.451718,-0.371096,0.865535,-1.083324,-0.56933,-0.007089,38.408652,-14.612262,-21.736311,4.63583E+18,0.42039,-0.549815,0.29078,0.660623,-9.633639,-0.995405,-0.765262,-0.23853,-0.112559,-0.07372,43.598038,2.896558,-16.221039,4.63583E+18,-0.033231,-0.732057,-0.069704,0.676853,-9.98628,0.001784,0.170013,0.367941,0.16076,-0.352496,41.451619,-12.183613,13.473141,4.63583E+18,-0.677971,0.278113,-0.625524,-0.267821,0
-10.057564,-0.697794,1.41838,-1.056362,-0.576758,-0.045096,38.32031,-14.554403,-22.103793,4.63583E+18,0.418843,-0.550093,0.286759,0.663127,-9.625838,-0.868925,-0.738648,-0.244081,-0.136005,-0.062688,43.611251,3.037244,-16.3217,4.63583E+18,-0.03382,-0.731598,-0.070609,0.677226,-10.407778,-1.222461,1.115378,0.783761,0.172759,-0.407527,41.45527,-12.092824,13.667367,4.63583E+18,-0.67888,0.277122,-0.626407,-0.264461,0
-9.731861,-1.029616,1.842038,-0.995848,-0.46579,-0.107408,38.245796,-14.272684,-22.356259,4.63583E+18,0.417465,-0.550634,0.282948,0.665182,-9.717485,-0.689031,-0.652605,-0.221249,-0.155493,-0.045056,43.693691,3.076266,-16.272076,4.63583E+18,-0.034395,-0.731091,-0.071392,0.677663,-10.081988,0.09504,1.687461,0.783211,0.114566,-0.40061,41.523169,-11.87371,13.851567,4.63583E+18,-0.679924,0.276048,-0.627123,-0.261185,0
-9.533651,-1.39937,1.841375,-0.944805,-0.330728,-0.158453,38.283389,-13.907433,-22.52171,4.63583E+18,0.416178,-0.55151,0.279391,0.666764,-9.76912,-0.637788,-0.659395,-0.224099,-0.165054,-0.043811,43.71471,3.02104,-16.248055,4.63583E+18,-0.034985,-0.730556,-0.072179,0.678126,-9.879643,2.225402,1.777998,0.551725,0.014429,-0.390717,41.529587,-11.419059,14.03466,4.63583E+18,-0.680944,0.275492,-0.62731,-0.258655,0
-9.294325,-1.709362,1.477729,-0.945199,-0.255315,-0.182203,38.4016,-13.700881,-22.800864,4.63583E+18,0.414861,-0.552614,0.275904,0.66812,-9.759726,-0.551966,-0.86465,-0.221879,-0.173878,-0.047278,43.650298,3.122648,-16.32167,4.63583E+18,-0.035561,-0.729994,-0.072968,0.678616,-10.231043,2.739986,2.33904,0.388524,-0.069683,-0.318748,41.596396,-11.232543,14.128668,4.63583E+18,-0.681914,0.275118,-0.627161,-0.25685,0
-8.955449,-1.902413,1.031549,-0.94995,-0.234404,-0.172002,38.296915,-13.57787,-22.926799,4.63583E+18,0.413475,-0.553764,0.272458,0.66944,-9.818124,-0.524918,-1.04738,-0.209572,-0.189126,-0.059338,43.629261,3.290536,-16.419324,4.63583E+18,-0.03607,-0.729386,-0.073757,0.679158,-10.344372,2.526109,2.893729,0.51035,-0.116854,-0.176469,41.669641,-11.218604,14.047093,4.63583E+18,-0.682992,0.273975,-0.627168,-0.255184,0
-8.628759,-2.115344,0.842961,-0.93767,-0.220658,-0.142241,37.969216,-13.353962,-22.9216,4.63583E+18,0.412012,-0.554888,0.269134,0.670755,-9.894375,-0.524918,-1.058855,-0.192466,-0.213463,-0.063826,43.693668,3.203802,-16.581393,4.63583E+18,-0.036522,-0.728709,-0.074508,0.679778,-10.240527,4.540234,3.10901,0.861481,-0.121675,0.076256,41.676075,-11.285414,13.949434,4.63583E+18,-0.684208,0.271165,-0.627819,-0.253323,0
-8.305557,-2.551314,0.81436,-0.895733,-0.219812,-0.086047,37.938672,-13.195251,-23.263741,4.63583E+18,0.410481,-0.555871,0.266055,0.672107,-9.894009,-0.598529,-0.939421,-0.158205,-0.239361,-0.071335,43.659504,3.0421,-16.773705,4.63583E+18,-0.036856,-0.727961,-0.07518,0.680487,-10.118467,6.128188,2.256665,1.293462,-0.073059,0.410108,41.754012,-11.291848,14.029925,4.63583E+18,-0.685417,0.266295,-0.629427,-0.251222,0
-8.033119,-2.992062,0.853871,-0.792216,-0.238925,-0.020133,38.070706,-13.053899,-23.66886,4.63583E+18,0.409022,-0.556544,0.263381,0.673491,-9.952406,-0.622578,-0.820536,-0.122709,-0.25453,-0.083364,43.641468,3.187048,-16.821802,4.63583E+18,-0.037054,-0.72717,-0.075786,0.681254,-9.729188,10.047821,-0.488012,1.832714,0.106019,0.864824,41.839461,-11.369784,14.205517,4.63583E+18,-0.686242,0.258867,-0.632583,-0.248793,0
-8.010293,-3.35825,0.885363,-0.636843,-0.262789,0.044936,38.098373,-12.930899,-23.723177,4.63583E+18,0.407763,-0.556807,0.261251,0.674865,-10.093052,-0.484574,-0.701479,-0.089336,-0.271109,-0.08652,43.567866,3.495575,-16.904605,4.63583E+18,-0.037146,-0.726335,-0.076304,0.682081,-8.957861,13.530322,-4.808414,1.891724,0.308907,1.23604,41.568639,-11.522037,14.410896,4.63583E+18,-0.686155,0.250481,-0.636731,-0.247031,0
-8.134885,-3.715806,0.849392,-0.485386,-0.279431,0.094356,37.919453,-12.724307,-23.634836,4.63583E+18,0.406732,-0.556709,0.259631,0.676192,-10.187344,-0.467066,-0.708207,-0.086814,-0.281217,-0.09296,43.42421,3.576769,-17.078867,4.63583E+18,-0.037215,-0.725469,-0.076833,0.68294,-9.632851,11.114716,-6.4583,1.695021,0.457379,1.512384,41.263485,-11.691848,14.707457,4.63583E+18,-0.685121,0.242055,-0.641331,-0.246401,0
-8.50779,-4.004952,0.767488,-0.359457,-0.294718,0.1166,37.733082,-12.659078,-23.583393,4.63583E+18,0.405945,-0.556328,0.25839,0.677453,-10.196189,-0.586487,-0.720237,-0.087851,-0.287084,-0.08943,43.320713,3.51237,-17.126987,4.63583E+18,-0.0373,-0.724585,-0.077353,0.683814,-11.319045,9.126901,-5.778277,1.527867,0.484596,1.808734,41.180948,-11.996335,15.090564,4.63583E+18,-0.683473,0.233319,-0.646074,-0.247013,0
-8.977117,-4.154962,0.683615,-0.265072,-0.315861,0.099997,37.802345,-12.682165,-23.701237,4.63583E+18,0.405445,-0.555744,0.257341,0.67863,-10.23917,-0.576589,-0.582272,-0.05942,-0.299667,-0.078735,43.29966,3.555701,-17.053406,4.63583E+18,-0.037333,-0.723672,-0.077758,0.684732,-11.53062,9.483444,-4.09783,1.285635,0.448019,2.106841,40.986324,-12.458445,15.481201,4.63583E+18,-0.68131,0.224407,-0.650685,-0.249133,0
-9.266314,-4.233747,0.692272,-0.192749,-0.307702,0.071914,37.965457,-12.739421,-23.910322,4.63583E+18,0.405183,-0.555089,0.256443,0.679662,-10.07028,-0.727085,-0.445156,-0.032499,-0.318644,-0.061353,43.23528,3.705526,-17.176478,4.63583E+18,-0.037341,-0.722714,-0.07803,0.685712,-11.090764,11.036639,-3.497759,0.873067,0.441428,2.363916,40.63412,-13.079183,15.80501,4.63583E+18,-0.678434,0.215938,-0.655018,-0.25308,0
-9.358634,-4.132307,0.726009,-0.123281,-0.258547,0.049056,37.732189,-12.66329,-24.180212,4.63583E+18,0.405092,-0.55448,0.255772,0.680465,-9.862902,-1.002027,-0.405854,-0.024289,-0.328478,-0.043735,43.149822,3.812059,-17.371814,4.63583E+18,-0.037377,-0.721733,-0.078225,0.686721,-10.65808,11.360094,-4.389783,0.300538,0.489848,2.560597,40.112015,-13.93667,15.944322,4.63583E+18,-0.674625,0.208576,-0.658984,-0.259071,0
-9.187499,-3.877278,0.773511,-0.07069,-0.196031,0.040726,37.628324,-12.655759,-24.349557,4.63583E+18,0.40508,-0.553967,0.255336,0.681054,-9.704385,-0.80753,-0.421239,-0.02028,-0.334886,-0.040326,43.193137,3.704362,-17.493543,4.63583E+18,-0.037413,-0.720734,-0.078397,0.687748,-10.6427,10.943251,-5.715487,-0.386057,0.553956,2.67385,39.730813,-14.882197,16.066371,4.63583E+18,-0.669835,0.202875,-0.662404,-0.267177,0
-8.852127,-3.550564,0.860954,-0.019555,-0.142218,0.054127,37.724657,-12.882591,-24.388833,4.63583E+18,0.405091,-0.553506,0.255166,0.681486,-9.705052,-0.646661,-0.33529,-0.011984,-0.337271,-0.03898,43.352162,3.542661,-17.729153,4.63583E+18,-0.037429,-0.719728,-0.07854,0.688783,-11.000948,10.278051,-6.447172,-1.191452,0.585025,2.702661,39.375766,-15.978912,16.28858,4.63583E+18,-0.66415,0.199347,-0.664942,-0.277521,0
-8.506779,-3.247609,0.833654,0.023986,-0.113262,0.081277,37.719533,-12.799558,-24.290511,4.63583E+18,0.405093,-0.553025,0.255232,0.68185,-9.799866,-0.558199,-0.332776,-0.016856,-0.339144,-0.040063,43.388123,3.567903,-17.945546,4.63583E+18,-0.037457,-0.718715,-0.0787,0.689821,-11.335941,8.982418,-6.206097,-1.963693,0.589429,2.688971,38.932735,-17.089775,16.075408,4.63583E+18,-0.657708,0.197962,-0.666469,-0.289913,0
-8.232683,-3.014353,0.805689,0.065446,-0.091338,0.112309,37.085265,-11.79822,-24.258325,4.63583E+18,0.40508,-0.552503,0.255523,0.682172,-9.909713,-0.583099,-0.433755,-0.027272,-0.346912,-0.045417,43.256385,3.772871,-17.855792,4.63583E+18,-0.037503,-0.717674,-0.078905,0.690878,-11.643319,6.814825,-5.253233,-2.498064,0.589618,2.692329,38.403106,-18.133995,15.908057,4.63583E+18,-0.650678,0.197988,-0.667207,-0.303735,0
-8.138783,-2.870082,0.820109,0.102325,-0.07382,0.139575,36.431117,-10.771156,-24.371275,4.63583E+18,0.387717,-0.55822,0.242012,0.692457,-9.927631,-0.598163,-0.491467,-0.015426,-0.35733,-0.051826,43.030304,3.833125,-17.737041,4.63583E+18,-0.037499,-0.716601,-0.079093,0.691969,-11.614638,4.246177,-3.895155,-2.661076,0.60617,2.75609,37.877162,-19.449719,15.849527,4.63583E+18,-0.643223,0.198247,-0.667667,-0.318093,0
-8.218647,-2.758016,0.909971,0.136562,-0.074357,0.163443,36.386037,-10.803915,-24.605891,4.63583E+18,0.387696,-0.557587,0.242667,0.692749,-9.869446,-0.579772,-0.380962,0.009434,-0.363184,-0.056626,42.979254,3.704388,-17.786507,4.63583E+18,-0.037409,-0.715512,-0.079223,0.693085,-11.564735,1.813208,-2.614942,-2.483635,0.621406,2.845956,37.274421,-20.736739,15.622682,4.63583E+18,-0.635588,0.197749,-0.668304,-0.332104,0
-8.432614,-2.579139,1.107497,0.165015,-0.104517,0.183115,36.434008,-11.236265,-24.596203,4.63583E+18,0.387715,-0.556801,0.243401,0.693113,-9.77782,-0.445027,-0.323419,0.013609,-0.362629,-0.071357,42.982265,3.726582,-17.957712,4.63583E+18,-0.037263,-0.714418,-0.079385,0.694202,-11.649421,0.664563,-1.356512,-2.220924,0.607153,2.898874,36.664057,-21.784852,15.289526,4.63583E+18,-0.627979,0.196338,-0.669145,-0.345453,0
-8.601985,-2.334991,1.351645,0.181778,-0.12288,0.203646,36.476085,-11.764923,-24.324939,4.63583E+18,0.387731,-0.555914,0.244201,0.693535,-9.762908,-0.375266,-0.326585,-0.012922,-0.36532,-0.087904,42.917917,3.812023,-18.153007,4.63583E+18,-0.037149,-0.713306,-0.079672,0.695318,-11.624695,0.807372,-0.31066,-2.012228,0.566703,2.906146,35.90913,-23.043785,15.125755,4.63583E+18,-0.6205,0.194255,-0.670031,-0.358194,0
-8.684552,-2.096615,1.53525,0.179047,-0.088343,0.214402,36.966074,-12.444283,-24.248991,4.63583E+18,0.387674,-0.555118,0.245074,0.693896,-9.802697,-0.458159,-0.320406,-0.061585,-0.367179,-0.10795,42.712943,3.768769,-18.348337,4.63583E+18,-0.037123,-0.712172,-0.080159,0.696425,-11.332203,0.418486,0.45888,-1.771319,0.498668,2.898643,35.140072,-24.036303,14.890269,4.63583E+18,-0.613284,0.191426,-0.670951,-0.370221,0
-8.749144,-1.917245,1.505757,0.147438,-0.021456,0.239039,37.565895,-13.050548,-24.302058,4.63583E+18,0.387404,-0.554542,0.246019,0.694173,-9.86991,-0.589418,-0.344971,-0.097293,-0.381117,-0.11805,42.717016,3.683322,-18.534451,4.63583E+18,-0.037178,-0.710986,-0.080778,0.697561,-10.925812,-0.211185,0.969911,-1.442025,0.447639,2.893991,34.426632,-24.922814,14.646121,4.63583E+18,-0.606361,0.187652,-0.672113,-0.381284,0
-8.777122,-1.868421,1.391518,0.108617,0.015086,0.278064,37.638866,-13.212104,-24.312891,4.63583E+18,0.386893,-0.554093,0.247001,0.694468,-9.878804,-0.63177,-0.3724,-0.101461,-0.406514,-0.125263,42.802466,3.790917,-18.726749,4.63583E+18,-0.037232,-0.709722,-0.081426,0.69877,-10.199349,-0.813613,1.235684,-0.981891,0.396563,2.890693,33.88553,-26.157603,14.402,4.63583E+18,-0.59984,0.182609,-0.673756,-0.391023,0
-8.780001,-1.799449,1.2128,0.086841,0.009839,0.338647,37.394747,-13.420405,-24.375307,4.63583E+18,0.386162,-0.553601,0.248051,0.694893,-9.87579,-0.552052,-0.424392,-0.103623,-0.444743,-0.134349,42.694876,3.952628,-18.857719,4.63583E+18,-0.03728,-0.70834,-0.082101,0.700089,-8.941947,-1.445139,1.68005,-0.534107,0.451381,2.770693,33.360618,-27.204692,14.413691,4.63583E+18,-0.593609,0.176844,-0.67607,-0.399104,0
-8.77782,-1.642157,1.159006,0.101543,-0.051622,0.429182,37.228307,-13.692434,-24.409139,4.63583E+18,0.385264,-0.552812,0.249252,0.695589,-10.013644,-0.524918,-0.614083,-0.113524,-0.492022,-0.15361,42.468861,4.056153,-18.81133,4.63583E+18,-0.037317,-0.706808,-0.082854,0.701544,-8.781459,-7.074305,0.275209,-0.069224,0.459114,2.566314,32.613233,-27.81855,14.617164,4.63583E+18,-0.587962,0.170495,-0.678937,-0.405311,0
-8.7405,-1.438981,1.236626,0.117697,-0.122343,0.508336,37.290739,-13.757744,-24.572117,4.63583E+18,0.384247,-0.551708,0.250568,0.696555,-9.985374,-0.515728,-0.846031,-0.105169,-0.545179,-0.180063,42.344184,4.141608,-18.86072,4.63583E+18,-0.037269,-0.70511,-0.083651,0.703159,-7.04209,-5.081602,0.245502,0.183407,0.432055,2.309104,31.910983,-28.314382,14.759019,4.63583E+18,-0.582942,0.16419,-0.681908,-0.410148,0
-8.789431,-1.383804,1.33269,0.146988,-0.146927,0.551434,37.243993,-13.815309,-24.643869,4.63583E+18,0.383195,-0.550437,0.252027,0.697612,-9.942859,-0.531093,-0.820628,-0.071718,-0.622979,-0.215878,42.323067,4.098387,-19.252497,4.63583E+18,-0.037046,-0.703172,-0.084444,0.705015,-6.972865,-5.868467,-0.155154,0.256567,0.496544,1.941336,31.359752,-29.013989,14.971152,4.63583E+18,-0.578367,0.158848,-0.684853,-0.413806,0
-8.962412,-1.474219,1.24088,0.176672,-0.215877,0.578746,37.105452,-14.079574,-24.608646,4.63583E+18,0.382201,-0.548887,0.253523,0.698835,-10.010346,-0.307376,-0.839431,-0.062757,-0.698773,-0.255132,42.267929,4.141603,-19.584519,4.63583E+18,-0.036708,-0.700992,-0.085313,0.707096,-6.35981,-10.017784,-0.351025,0.245152,0.435949,1.525258,30.833749,-29.456178,15.357713,4.63583E+18,-0.574642,0.154607,-0.687316,-0.416509,0
-9.009064,-1.502287,1.458663,0.145255,-0.31228,0.574664,37.032208,-14.36889,-24.498782,4.63583E+18,0.381247,-0.547107,0.254763,0.700301,-10.273387,-0.195187,-1.102608,-0.104024,-0.783459,-0.30912,42.121184,4.346495,-19.663107,4.63583E+18,-0.03636,-0.698529,-0.086447,0.709409,-5.553944,-9.445428,1.357462,0.023629,0.345713,1.026705,30.497937,-29.637654,15.315692,4.63583E+18,-0.571879,0.152163,-0.688835,-0.418697,0
-9.02344,-1.62646,2.053822,0.11498,-0.308368,0.568625,36.935968,-14.530443,-24.434934,4.63583E+18,0.380234,-0.545388,0.255904,0.701774,-10.517285,-0.376085,-1.377092,-0.14001,-0.880161,-0.375109,41.95027,4.471197,-19.960182,4.63583E+18,-0.035957,-0.695741,-0.087864,0.711991,-5.225354,-12.598032,2.19315,-0.222635,0.286937,0.40851,30.391835,-29.729625,15.141277,4.63583E+18,-0.570199,0.151975,-0.689384,-0.420151,0
-9.084474,-1.609921,2.406315,0.107821,-0.255842,0.541231,36.767952,-14.738705,-24.563498,4.63583E+18,0.379226,-0.54386,0.257044,0.703087,-10.645119,-0.10868,-1.578301,-0.15464,-0.987533,-0.441858,41.724246,4.620964,-20.571319,4.63583E+18,-0.035438,-0.692595,-0.0895,0.714875,-4.28837,-15.206513,2.480805,-0.510277,0.172025,-0.277141,30.473201,-30.015278,15.213946,4.63583E+18,-0.569865,0.154238,-0.688717,-0.420872,0
-9.125387,-1.462668,2.470183,0.123667,-0.197969,0.506858,36.609246,-15.068326,-24.809076,4.63583E+18,0.378291,-0.54251,0.258242,0.704194,-10.706023,0.156199,-1.375505,-0.186764,-1.10398,-0.522552,41.470917,5.039942,-21.107904,4.63583E+18,-0.034813,-0.689051,-0.091445,0.718077,-5.478056,-18.92159,2.124465,-0.731769,0.262475,-0.95836,30.548601,-29.975704,15.222631,4.63583E+18,-0.570314,0.159138,-0.687428,-0.420547,0
-9.075106,-1.122274,2.355997,0.181848,-0.152872,0.467151,36.450565,-15.340411,-24.893736,4.63583E+18,0.377553,-0.541241,0.259591,0.70507,-10.681334,0.207526,-1.496197,-0.208603,-1.212926,-0.617678,41.27883,5.411901,-21.38493,4.63583E+18,-0.034007,-0.68512,-0.093711,0.721576,-6.970829,-9.77882,-0.38094,0.106224,0.550629,-0.943126,30.688559,-29.680083,15.211513,4.63583E+18,-0.570453,0.162504,-0.688287,-0.417657,0
-8.981064,-0.525532,2.214578,0.246748,-0.196186,0.410782,36.349351,-15.425862,-24.721412,4.63583E+18,0.377172,-0.539801,0.260934,0.705882,-10.513035,-0.068184,-1.553357,-0.139383,-1.31625,-0.712722,41.172276,5.557664,-21.583246,4.63583E+18,-0.032756,-0.680827,-0.096022,0.725384,-13.575936,17.523776,-1.011741,0.212507,0.34437,-0.44146,30.846165,-29.573949,15.288257,4.63583E+18,-0.570375,0.163818,-0.68917,-0.415789,0
-8.977447,0.143001,2.397043,0.280298,-0.338117,0.304527,36.452049,-15.511314,-24.689861,4.63583E+18,0.377331,-0.538004,0.261912,0.706806,-10.673105,-0.388437,-1.412496,-0.027714,-1.441301,-0.80591,40.912226,5.569594,-21.925587,4.63583E+18,-0.030957,-0.676103,-0.098238,0.729572,-18.06723,16.948191,0.039689,-0.948761,0.10458,-0.502031,30.715787,-29.355097,15.295877,4.63583E+18,-0.57029,0.167649,-0.687421,-0.417271,0
-8.837422,0.782065,2.796207,0.303608,-0.404443,0.176671,36.553263,-15.614007,-24.872967,4.63583E+18,0.37799,-0.536112,0.262566,0.707648,-11.19286,0.308139,-2.056533,0.023585,-1.585022,-0.942273,40.456944,5.814725,-22.46331,4.63583E+18,-0.028655,-0.670857,-0.100659,0.734164,-11.174552,-3.005901,3.459499,-0.578363,0.310946,-0.591506,30.612679,-29.045336,15.029056,4.63583E+18,-0.570019,0.171212,-0.686733,-0.417327,0
-8.670128,1.439044,2.724404,0.312276,-0.341807,0.069366,36.39314,-15.775557,-24.987118,4.63583E+18,0.378914,-0.534506,0.263104,0.708169,-11.561237,0.77291,-2.650383,0.043038,-1.706685,-1.083223,39.892143,6.337294,-23.278978,4.63583E+18,-0.025918,-0.665139,-0.103394,0.739073,-8.40501,-3.553223,3.76206,0.156886,0.41303,-0.423158,31.48224,-29.572871,14.991781,4.63583E+18,-0.569683,0.172722,-0.687679,-0.415604,0
-8.520767,2.280598,2.649716,0.296442,-0.28834,-0.055222,36.047752,-15.906246,-24.88013,4.63583E+18,0.380111,-0.533218,0.263401,0.708389,-11.799069,0.189848,-2.697564,0.090419,-1.805432,-1.197692,39.434858,6.794578,-23.940353,4.63583E+18,-0.022737,-0.65902,-0.106281,0.744231,-10.882367,6.219628,2.248084,0.246682,0.361518,-0.342673,32.168615,-30.038666,15.413105,4.63583E+18,-0.569415,0.173699,-0.688712,-0.413848,0
-8.566721,2.807694,2.739488,0.314475,-0.27558,-0.188305,35.943621,-15.906246,-24.82842,4.63583E+18,0.381724,-0.532082,0.263474,0.708347,-12.239306,-0.171431,-2.213996,0.158546,-1.870477,-1.260277,39.084165,7.145273,-24.461936,4.63583E+18,-0.019203,-0.652622,-0.109114,0.74954,-11.000851,5.720664,3.133463,0.195383,0.334295,-0.292697,31.416076,-29.24534,15.721357,4.63583E+18,-0.5691,0.174607,-0.689625,-0.412377,0
-8.641471,3.199711,2.608101,0.318196,-0.399326,-0.332854,36.019722,-15.866069,-24.95189,4.63583E+18,0.383907,-0.530732,0.26304,0.708342,-12.283406,-1.359064,-3.00943,0.207599,-1.866526,-1.331657,38.690256,7.53918,-25.100247,4.63583E+18,-0.015309,-0.646148,-0.111978,0.754797,-8.496675,3.166608,3.312774,0.206665,0.335112,-0.290345,31.114084,-28.952282,15.758667,4.63583E+18,-0.568784,0.175483,-0.690558,-0.410876,0
-8.272405,3.410916,2.486023,0.237278,-0.567536,-0.483343,36.064992,-15.677939,-25.156551,4.63583E+18,0.386536,-0.529175,0.261763,0.708551,-13.138189,-3.782162,-4.20237,0.32964,-1.867144,-1.413105,38.275242,7.889884,-25.71949,4.63583E+18,-0.010829,-0.639581,-0.114667,0.760046,-7.974338,2.696368,1.908849,0.390153,0.362629,-0.218569,31.83694,-29.631772,15.83756,4.63583E+18,-0.568397,0.175764,-0.691921,-0.408996,0
-7.726649,3.245053,2.343851,0.094084,-0.716207,-0.624722,35.959445,-15.453877,-25.351876,4.63583E+18,0.389423,-0.527556,0.259509,0.709005,-14.576617,-4.069815,-4.198315,0.728144,-1.978593,-1.400493,37.740723,8.15519,-26.308502,4.63583E+18,-0.00538,-0.632617,-0.116043,0.765703,-8.113738,2.862369,0.514129,0.50723,0.3974,-0.158977,31.698975,-29.344946,16.18976,4.63583E+18,-0.567891,0.175654,-0.693604,-0.406891,0
-7.204627,2.922026,2.10767,-0.079614,-0.840408,-0.739521,35.788566,-15.295205,-25.593064,4.63583E+18,0.392395,-0.525967,0.256283,0.709721,-17.10358,-0.553378,-0.041501,1.002169,-2.160813,-1.274721,37.231363,8.399301,-26.894368,4.63583E+18,0.000302,-0.625063,-0.116196,0.771877,-8.50798,2.992079,-0.365062,0.55199,0.371383,-0.114917,31.233682,-28.609842,16.479243,4.63583E+18,-0.567413,0.175266,-0.695328,-0.404776,0
-6.953894,2.430086,1.898573,-0.256393,-0.943606,-0.7584,35.617648,-15.099187,-25.986607,4.63583E+18,0.395136,-0.524369,0.252317,0.710803,-17.507489,1.029987,1.211318,0.990505,-2.077925,-1.353453,36.678801,8.643435,-27.562955,4.63583E+18,0.006247,-0.617659,-0.116577,0.777733,-8.367394,2.68078,-2.1729,0.538908,0.364622,-0.070252,31.189915,-28.685362,16.426626,4.63583E+18,-0.566865,0.174767,-0.697042,-0.402807,0
-7.11395,1.940393,2.139068,-0.352361,-0.961724,-0.668443,35.466837,-14.79902,-26.363614,4.63583E+18,0.397409,-0.522767,0.248228,0.712155,-18.905127,-1.388052,-1.057344,1.259247,-2.103145,-1.402246,36.040698,8.768183,-28.46094,4.63583E+18,0.013028,-0.61006,-0.116198,0.78368,-8.527671,2.293392,-4.677542,0.523665,0.397299,-0.005937,30.97877,-28.632927,16.507861,4.63583E+18,-0.566098,0.174172,-0.698849,-0.401007,0
-7.542572,1.320804,2.557683,-0.348607,-0.896013,-0.50932,35.378523,-14.574973,-26.679512,4.63583E+18,0.399141,-0.521176,0.244599,0.713606,-19.287337,1.394349,-2.318066,1.376112,-2.235726,-1.432206,35.455021,8.908743,-29.296668,4.63583E+18,0.020137,-0.601918,-0.115503,0.789904,-8.58963,1.269424,-6.429687,0.461071,0.459864,0.046669,30.66907,-28.415238,16.961087,4.63583E+18,-0.565012,0.173674,-0.700733,-0.399465,0
-8.058137,0.571835,2.836456,-0.324389,-0.829584,-0.303746,35.283734,-14.413413,-27.050062,4.63583E+18,0.400239,-0.519524,0.241594,0.715217,-19.03063,3.910641,-1.691196,1.192773,-2.310528,-1.525321,34.884314,9.012323,-30.007458,4.63583E+18,0.027053,-0.593405,-0.115633,0.796095,-9.005142,1.071906,-6.946474,0.305302,0.492936,0.070716,31.09616,-28.672211,17.427154,4.63583E+18,-0.563672,0.173528,-0.702447,-0.398408,0
-8.634611,-0.103116,2.719476,-0.371432,-0.817805,-0.076138,35.198289,-14.245392,-27.352352,4.63583E+18,0.40054,-0.517749,0.238958,0.717218,-18.912177,3.510081,-1.492555,0.917947,-2.349741,-1.561123,34.255511,9.152872,-30.691011,4.63583E+18,0.033385,-0.584683,-0.11675,0.802123,-9.290113,1.139816,-5.682731,0.178739,0.527702,0.124158,31.218858,-28.766267,17.557677,4.63583E+18,-0.562048,0.173579,-0.704069,-0.397819,0
-9.379263,-0.701371,2.519811,-0.42293,-0.861599,0.167473,35.07557,-14.144034,-27.642463,4.63583E+18,0.400039,-0.515679,0.236617,0.719761,-18.327736,2.913569,-1.293334,0.590995,-2.410697,-1.554127,33.599414,9.375828,-31.374544,4.63583E+18,0.038861,-0.575717,-0.118933,0.808019,-9.992049,1.191942,-5.143243,0.003388,0.487118,0.180775,30.493179,-28.361725,17.488672,4.63583E+18,-0.560318,0.173807,-0.705341,-0.397905,0
-10.098095,-1.023296,2.425666,-0.398761,-0.895108,0.379115,34.811362,-14.249549,-27.920358,4.63583E+18,0.398981,-0.513251,0.234743,0.722692,-17.001598,3.101536,-0.431064,0.122253,-2.437541,-1.561395,32.692312,9.803614,-32.003045,4.63583E+18,0.043218,-0.566648,-0.122699,0.813626,-11.069815,2.507182,-3.436351,-0.061419,0.448782,0.234459,29.920945,-28.121214,17.669854,4.63583E+18,-0.558563,0.173965,-0.706453,-0.398333,0
-10.678367,-0.942211,2.51099,-0.317773,-0.906389,0.520712,34.444555,-14.363131,-28.171698,4.63583E+18,0.397673,-0.510505,0.233392,0.725788,-15.36851,2.546397,0.334122,-0.275035,-2.360373,-1.567247,31.694329,10.356186,-32.604233,4.63583E+18,0.04669,-0.557827,-0.127794,0.818729,-11.936366,3.04787,-1.70507,-0.071086,0.401672,0.17316,29.949287,-28.312533,17.777407,4.63583E+18,-0.557039,0.174246,-0.707391,-0.398678,0
-11.009575,-0.75564,2.780891,-0.158264,-0.937661,0.566895,34.013582,-14.307076,-28.387048,4.63583E+18,0.396587,-0.507345,0.232565,0.728858,-13.549179,0.761443,1.170811,-0.459046,-2.186872,-1.562417,30.886152,10.810565,-33.202394,4.63583E+18,0.049803,-0.549561,-0.133454,0.823221,-12.012085,3.455064,-0.339478,-0.089062,0.355554,0.11803,30.168035,-28.477797,17.697317,4.63583E+18,-0.555727,0.174655,-0.70815,-0.398981,0
-11.092914,-0.426792,3.091946,0.003171,-0.865546,0.520751,33.806666,-14.364356,-28.664953,4.63583E+18,0.395904,-0.504173,0.232245,0.731527,-11.837695,-2.069511,1.510999,-0.49751,-1.972941,-1.555744,30.325191,11.280666,-33.727053,4.63583E+18,0.052918,-0.541972,-0.13917,0.827102,-12.14539,3.657948,0.591201,-0.105373,0.299904,0.089895,30.200018,-28.492079,17.777397,4.63583E+18,-0.554614,0.175092,-0.708731,-0.399307,0
-11.203989,-0.080625,3.091028,0.141155,-0.63358,0.426836,33.683992,-14.57127,-28.893417,4.63583E+18,0.395567,-0.501563,0.232527,0.733411,-10.149842,-2.712753,1.284064,-0.307073,-1.715932,-1.524429,29.824658,11.778173,-34.080677,4.63583E+18,0.056499,-0.53519,-0.144089,0.830433,-12.380721,3.096846,1.03795,0.010784,0.295781,0.058431,30.05672,-28.569831,17.963904,4.63583E+18,-0.553648,0.175347,-0.709472,-0.399219,0
-11.623792,0.220146,2.429379,0.246027,-0.430355,0.306245,33.459907,-14.656712,-28.965306,4.63583E+18,0.395618,-0.499515,0.233211,0.734563,-7.893063,-3.114118,1.471761,-0.025025,-1.445168,-1.407788,29.259915,12.15011,-34.385843,4.63583E+18,0.060463,-0.529303,-0.147695,0.833288,-12.358293,2.839713,0.152352,0.072969,0.268664,0.107053,30.120169,-28.644175,17.981504,4.63583E+18,-0.552727,0.175269,-0.710288,-0.399079,0
-12.367238,0.511948,1.475002,0.262848,-0.40708,0.152829,33.338417,-14.779349,-28.975988,4.63583E+18,0.396149,-0.497657,0.233664,0.735394,-5.387389,2.17567,0.791359,0.369934,-1.222066,-1.105064,28.747423,12.351169,-34.755284,4.63583E+18,0.06438,-0.524246,-0.149197,0.83592,-12.787022,3.897182,-0.405411,0.01481,0.230985,0.139365,30.05013,-28.506398,18.059247,4.63583E+18,-0.55182,0.175167,-0.710944,-0.399212,0
-13.483037,0.555055,0.838685,0.224648,-0.653311,-0.011827,33.298368,-14.986301,-29.107209,4.63583E+18,0.397341,-0.495265,0.233251,0.736496,-4.14592,11.842662,-0.371558,-0.048853,-0.730575,-0.969492,28.314288,12.574087,-35.081602,4.63583E+18,0.067212,-0.521077,-0.151724,0.837222,-12.441232,3.393138,-1.051457,-0.033245,0.217797,0.178023,29.96467,-28.347687,17.989207,4.63583E+18,-0.550852,0.175038,-0.711516,-0.399585,0
-14.537617,0.519409,1.098379,0.158452,-0.956028,-0.169945,33.090297,-15.034569,-29.387962,4.63583E+18,0.399172,-0.492201,0.231804,0.738015,-3.640157,11.247835,-4.865201,-1.229901,-0.020858,-0.924949,28.073657,13.130209,-35.093083,4.63583E+18,0.067772,-0.520726,-0.158071,0.836221,-11.75858,2.843962,-1.943816,0.011203,0.216834,0.222399,29.968074,-28.555502,17.981504,4.63583E+18,-0.549845,0.174675,-0.712191,-0.399928,0
-14.968758,0.35039,1.992855,0.183404,-1.095135,-0.221891,32.780693,-14.978484,-29.64873,4.63583E+18,0.40134,-0.488708,0.230091,0.739695,-4.412012,7.889622,-9.599989,-1.530579,0.338215,-0.606235,28.074086,13.798626,-34.869964,4.63583E+18,0.066803,-0.521896,-0.164665,0.834294,-11.439291,3.095315,-2.426188,0.054888,0.187685,0.24588,29.902549,-28.866247,18.070341,4.63583E+18,-0.548916,0.174093,-0.712889,-0.400216,0
-14.400201,0.444226,2.372824,0.257221,-1.18409,-0.190031,32.573741,-14.998509,-29.864067,4.63583E+18,0.403635,-0.484776,0.228517,0.74152,-4.865052,6.459137,-8.980449,-1.242917,0.562252,-0.263246,28.32786,14.213073,-34.583038,4.63583E+18,0.065418,-0.52398,-0.169443,0.832138,-10.958591,3.236152,-2.610269,0.023765,0.114824,0.275019,29.684924,-28.972663,18.179116,4.63583E+18,-0.548131,0.173374,-0.713387,-0.400715,0
-13.030662,0.719251,2.014103,0.322379,-1.174604,-0.156507,32.451124,-15.063935,-30.121936,4.63583E+18,0.405938,-0.480718,0.227221,0.7433,-4.451567,5.99021,-7.153681,-0.787718,0.865507,0.060381,28.709461,14.368284,-34.290085,4.63583E+18,0.064117,-0.527205,-0.171849,0.829706,-10.324884,3.158334,-2.835576,-0.00011,0.054443,0.301038,29.519632,-28.913749,18.277866,4.63583E+18,-0.547464,0.172531,-0.713726,-0.401387,0
-11.448216,0.892679,1.5433,0.319183,-0.991008,-0.123684,32.166942,-15.103969,-30.327924,4.63583E+18,0.40795,-0.477192,0.226286,0.744754,-4.241947,5.541326,-6.132842,-0.375323,1.249352,0.369833,29.048058,14.456764,-33.923705,4.63583E+18,0.062925,-0.531854,-0.172042,0.826785,-9.966646,3.515908,-2.812121,-0.074028,-0.001384,0.324727,29.360955,-28.907131,18.28669,4.63583E+18,-0.546869,0.171693,-0.713829,-0.402372,0
-10.394131,0.760718,1.429038,0.255387,-0.887246,-0.175171,31.791938,-15.217686,-30.631549,4.63583E+18,0.40989,-0.474137,0.225224,0.745961,-4.489878,5.273264,-6.162209,0.070491,1.618858,0.676664,29.374628,14.477981,-33.468832,4.63583E+18,0.061927,-0.537856,-0.169915,0.82341,-10.014546,3.763308,-2.430206,-0.189987,-0.052069,0.367656,29.135643,-28.98485,18.297792,4.63583E+18,-0.546269,0.170906,-0.713652,-0.403835,0
-9.939165,0.653744,1.451641,0.213606,-0.92622,-0.25072,31.54497,-15.124454,-30.967064,4.63583E+18,0.412012,-0.471096,0.223812,0.747143,-5.210798,5.885313,-5.971931,0.461199,1.91026,0.96818,29.823433,14.166056,-33.047875,4.63583E+18,0.061006,-0.544927,-0.165707,0.819679,-10.222129,2.762834,-1.937435,-0.2319,-0.078956,0.418347,29.114656,-29.13692,18.221178,4.63583E+18,-0.545632,0.170018,-0.713376,-0.405555,0
-9.852683,0.969859,1.685155,0.329181,-1.0788,-0.186557,31.29145,-15.002898,-31.139536,4.63583E+18,0.414295,-0.467312,0.22262,0.748612,-5.998018,6.956837,-5.186783,0.70715,2.143297,1.229543,30.449302,13.631774,-32.635883,4.63583E+18,0.059906,-0.552859,-0.15999,0.815574,-10.408554,2.88327,-1.281492,-0.258308,-0.09478,0.502649,29.336713,-29.35113,18.202343,4.63583E+18,-0.544878,0.168912,-0.713076,-0.407554,0
-9.97112,1.127492,1.772402,0.411919,-1.249967,-0.122924,31.030162,-15.042907,-31.254339,4.63583E+18,0.416688,-0.46278,0.221508,0.750427,-7.024042,8.055529,-3.937825,0.776046,2.337129,1.461845,31.304263,13.122196,-32.156572,4.63583E+18,0.058297,-0.561517,-0.153434,0.811023,-10.380711,2.894259,-0.621187,-0.264514,-0.096133,0.582466,29.358805,-29.448733,18.123518,4.63583E+18,-0.543984,0.167579,-0.712813,-0.40975,0
-10.063321,1.022056,1.643069,0.412147,-1.370335,-0.051548,30.689957,-15.193797,-31.51948,4.63583E+18,0.418955,-0.45779,0.220318,0.752572,-8.033936,8.765795,-2.564538,0.723286,2.503445,1.663932,32.155547,12.688973,-31.729488,4.63583E+18,0.055979,-0.570792,-0.14652,0.805974,-10.542815,2.970865,-0.550439,-0.269758,-0.108761,0.658586,29.214486,-29.667392,17.860452,4.63583E+18,-0.542991,0.166009,-0.712561,-0.41214,0
-9.920765,0.822608,1.606951,0.400143,-1.474425,0.018989,30.274931,-15.31922,-32.067492,4.63583E+18,0.421058,-0.452412,0.219035,0.755022,-8.551824,8.773802,-1.487868,0.623641,2.658043,1.843881,32.985624,12.090464,-31.244095,4.63583E+18,0.052905,-0.58062,-0.13945,0.800397,-10.492803,3.600208,-0.560433,-0.322689,-0.138186,0.737329,28.911509,-29.910405,17.668516,4.63583E+18,-0.541907,0.164273,-0.712197,-0.414881,0
-9.536873,0.561031,1.623857,0.410785,-1.501658,0.103673,29.899842,-15.59273,-32.440001,4.63583E+18,0.422921,-0.446834,0.217888,0.757629,-8.973048,8.242156,-0.896604,0.532888,2.801144,2.015028,33.889033,11.183669,-30.447086,4.63583E+18,0.049112,-0.590929,-0.132209,0.7943,-10.075463,3.495722,-0.561541,-0.360944,-0.140996,0.787234,28.527519,-30.154551,17.674104,4.63583E+18,-0.540712,0.162467,-0.711787,-0.417844,0
-8.949707,0.436612,1.407792,0.361095,-1.474914,0.194049,29.638594,-15.865193,-32.538931,4.63583E+18,0.424364,-0.441328,0.216791,0.76036,-9.513342,7.659438,-0.64371,0.445841,2.914573,2.176819,34.743315,10.378407,-29.482685,4.63583E+18,0.044622,-0.601589,-0.124805,0.787733,-9.623789,3.44581,-0.716939,-0.369095,-0.136139,0.81675,28.281182,-30.398699,17.68742,4.63583E+18,-0.539439,0.160599,-0.711383,-0.420889,0
-8.34684,0.375886,1.217886,0.287317,-1.422548,0.25712,29.278411,-15.893558,-32.790527,4.63583E+18,0.425407,-0.436043,0.215659,0.763142,-10.105414,7.18045,-0.433093,0.349429,2.999188,2.327944,35.692611,9.762165,-28.631473,4.63583E+18,0.039427,-0.612479,-0.117292,0.780741,-9.427432,3.564572,-1.15419,-0.333648,-0.137597,0.833836,28.115857,-30.64282,17.344472,4.63583E+18,-0.538156,0.158595,-0.71104,-0.423861,0
-8.07687,0.178977,1.214243,0.264513,-1.345797,0.283878,28.740763,-15.811933,-33.263792,4.63583E+18,0.42624,-0.431004,0.214632,0.765825,-10.611914,6.682876,-0.305056,0.243662,3.055502,2.459577,36.626469,9.004932,-27.908257,4.63583E+18,0.033552,-0.623475,-0.109748,0.773374,-9.145577,3.576769,-1.584724,-0.280537,-0.113516,0.839176,27.957179,-30.80926,17.232418,4.63583E+18,-0.53682,0.156496,-0.710837,-0.426665,0
-8.239364,0.09972,1.264339,0.282976,-1.369796,0.278315,28.121575,-15.999943,-33.681972,4.63583E+18,0.42713,-0.425845,0.213604,0.768498,-11.097145,6.124342,-0.198232,0.143008,3.087782,2.562339,37.486944,8.113718,-26.983203,4.63583E+18,0.027089,-0.634467,-0.102226,0.765681,-8.896991,3.732127,-1.867718,-0.284321,-0.10429,0.858013,27.809582,-30.967954,17.402197,4.63583E+18,-0.535414,0.154365,-0.710651,-0.429511,0
-8.642991,0.189289,1.364376,0.335702,-1.459199,0.259019,27.690359,-16.246938,-33.927699,4.63583E+18,0.428238,-0.420307,0.212543,0.771219,-11.557915,5.523099,-0.170904,0.045544,3.108868,2.638946,38.32006,7.326578,-25.844668,4.63583E+18,0.020126,-0.64539,-0.094781,0.757683,-8.675061,3.670003,-2.003104,-0.315292,-0.102639,0.880247,27.652015,-31.270876,17.264626,4.63583E+18,-0.533935,0.152237,-0.710416,-0.432489,0
-8.935021,0.455099,1.300829,0.37496,-1.557789,0.233764,27.426268,-16.463338,-34.124256,4.63583E+18,0.429564,-0.414387,0.211379,0.774,-12.000418,4.793512,-0.244268,-0.050855,3.117663,2.683766,39.150162,6.517732,-24.733915,4.63583E+18,0.01276,-0.65618,-0.087491,0.749407,-8.566284,3.784272,-2.047508,-0.339667,-0.1006,0.902678,27.415651,-31.588265,16.905101,4.63583E+18,-0.532385,0.150097,-0.710145,-0.435581,0
-8.923959,0.969394,1.086006,0.385601,-1.685723,0.183712,27.03964,-16.548787,-34.424981,4.63583E+18,0.431162,-0.40806,0.209924,0.776864,-12.412337,3.941989,-0.286902,-0.129329,3.106154,2.707243,40.053548,5.696873,-23.940977,4.63583E+18,0.005099,-0.666754,-0.080357,0.740915,-8.390937,3.807599,-1.740132,-0.37482,-0.113029,0.941618,27.171477,-31.839111,16.6265,4.63583E+18,-0.530771,0.147896,-0.709794,-0.438864,0
-8.656573,1.371768,0.967236,0.375622,-1.825166,0.15616,26.431715,-16.634233,-34.725605,4.63583E+18,0.43293,-0.4013,0.208127,0.779881,-12.769323,3.182281,-0.3755,-0.209181,3.081844,2.7024,40.907929,4.805649,-23.0893,4.63583E+18,-0.00278,-0.677059,-0.073459,0.732248,-8.263323,3.797614,-1.464932,-0.366474,-0.105554,0.955019,26.794205,-32.149809,16.535494,4.63583E+18,-0.529106,0.145647,-0.709471,-0.442138,0
-8.152735,1.586962,1.027927,0.325907,-1.906793,0.149081,25.765619,-16.776729,-34.853841,4.63583E+18,0.43468,-0.394345,0.205996,0.783014,-12.872732,2.324589,-0.42118,-0.264949,3.058351,2.68477,41.563765,3.954352,-22.048514,4.63583E+18,-0.010768,-0.687091,-0.06676,0.723418,-8.141263,4.173704,-1.274061,-0.349775,-0.114386,0.968612,26.481274,-32.478259,16.539918,4.63583E+18,-0.527442,0.143301,-0.709153,-0.445389,0
-7.463843,1.518544,1.310357,0.27074,-1.860695,0.159583,25.294472,-17.089194,-35.187947,4.63583E+18,0.436237,-0.387606,0.203773,0.786088,-12.869644,1.448849,-0.408926,-0.313546,3.035121,2.648702,42.152691,3.060182,-20.81552,4.63583E+18,-0.018789,-0.696845,-0.06029,0.714436,-7.90825,4.056237,-1.013294,-0.330743,-0.124097,1.003854,26.320314,-32.796759,16.552125,4.63583E+18,-0.525743,0.140789,-0.708857,-0.448658,0
-6.665553,1.19992,1.650416,0.279361,-1.566735,0.177215,24.842376,-17.305636,-35.720161,4.63583E+18,0.437478,-0.38178,0.202129,0.78867,-12.774941,0.31633,-0.247019,-0.385938,3.016435,2.614264,42.674466,2.144655,-19.616278,4.63583E+18,-0.026918,-0.706334,-0.054116,0.705294,-7.730685,4.373432,-0.900058,-0.317342,-0.124973,1.018911,26.162749,-32.969914,16.47559,4.63583E+18,-0.524016,0.138199,-0.708579,-0.451912,0
-6.168762,0.836977,1.335734,0.316504,-1.282232,0.236431,24.268617,-17.354031,-36.105038,4.63583E+18,0.438327,-0.376756,0.201213,0.790846,-12.387091,-1.316728,-0.112833,-0.441984,3.007365,2.575005,43.119933,1.357493,-18.65527,4.63583E+18,-0.035091,-0.715586,-0.048207,0.695975,-7.604153,4.894946,-0.780215,-0.334613,-0.145356,1.040464,25.937499,-33.206254,16.301398,4.63583E+18,-0.522288,0.135541,-0.708222,-0.455266,0
-5.958786,0.673476,0.380179,0.342684,-1.275147,0.310729,23.73463,-17.29789,-36.167681,4.63583E+18,0.438952,-0.371634,0.200507,0.793099,-12.094332,-2.976626,0.006184,-0.441936,2.984119,2.52373,43.675431,0.48464,-17.690927,4.63583E+18,-0.04311,-0.724568,-0.042433,0.686544,-7.326751,5.021656,-0.658127,-0.35491,-0.157112,1.059014,25.627875,-33.661213,16.04061,4.63583E+18,-0.520536,0.132847,-0.707795,-0.458716,0
-5.909662,0.705963,-0.687942,0.247855,-1.400857,0.376367,23.311813,-17.374971,-36.243974,4.63583E+18,0.439303,-0.366202,0.199352,0.795719,-12.0365,-4.01379,0.247402,-0.329687,2.933627,2.492506,44.136164,-0.357656,-16.482123,4.63583E+18,-0.050699,-0.733229,-0.036413,0.67711,-7.31112,5.240212,-0.746827,-0.381027,-0.173616,1.066494,25.388163,-33.993052,15.860815,4.63583E+18,-0.518794,0.130153,-0.707271,-0.462257,0
-6.002396,0.667761,-0.828039,0.170751,-1.563977,0.410599,22.820709,-17.667443,-36.610163,4.63583E+18,0.439539,-0.360327,0.197686,0.79868,-11.999841,-3.921326,0.381545,-0.163831,2.851086,2.448958,44.432087,-1.193905,-15.209472,4.63583E+18,-0.057657,-0.741503,-0.03003,0.667793,-7.389883,5.383409,-0.790137,-0.402877,-0.190706,1.073874,25.222781,-34.099679,15.756469,4.63583E+18,-0.517063,0.127448,-0.706655,-0.465877,0
-6.076117,0.724359,0.264287,0.251723,-1.671707,0.425997,22.303083,-17.81837,-36.999214,4.63583E+18,0.439912,-0.353915,0.196106,0.801725,-11.868557,-3.518554,0.366194,-0.00365,2.740266,2.36429,44.761696,-2.026902,-14.297469,4.63583E+18,-0.063886,-0.749321,-0.023429,0.658702,-7.386595,5.207121,-0.649295,-0.402887,-0.207794,1.088144,24.775729,-34.329308,15.681003,4.63583E+18,-0.515343,0.124665,-0.705993,-0.469525,0
-6.265728,0.857848,1.316338,0.36908,-1.593939,0.467363,21.786408,-17.883846,-37.420289,4.63583E+18,0.440234,-0.347496,0.195112,0.804594,-11.636577,-3.894485,0.509765,0.203597,2.609951,2.267361,45.170662,-2.921088,-13.577329,4.63583E+18,-0.069201,-0.756665,-0.016522,0.64992,-7.34112,5.055069,-0.612605,-0.364848,-0.220031,1.102125,24.310788,-34.573427,15.696486,4.63583E+18,-0.51364,0.121732,-0.705369,-0.473086,0
-6.410946,1.043014,1.027033,0.33923,-1.420513,0.475549,21.402604,-17.943767,-37.675372,4.63583E+18,0.440324,-0.34169,0.194338,0.807214,-11.343546,-4.978309,0.873078,0.496878,2.444885,2.17416,45.414702,-3.900866,-12.51493,4.63583E+18,-0.073336,-0.763491,-0.009063,0.641577,-7.259022,5.318899,-0.632549,-0.305724,-0.222077,1.106308,23.979987,-34.817573,15.70981,4.63583E+18,-0.511952,0.118653,-0.704842,-0.476471,0
-6.469124,1.177962,0.123568,0.24799,-1.415293,0.398312,20.784093,-18.217203,-37.82344,4.63583E+18,0.440522,-0.336119,0.19315,0.809727,-10.89183,-6.055333,1.352195,0.845868,2.268934,2.050249,45.46953,-4.773468,-11.560015,4.63583E+18,-0.076023,-0.76981,-0.00101,0.633729,-7.17357,5.579725,-0.612606,-0.308883,-0.222175,1.093016,23.80676,-35.061721,15.455866,4.63583E+18,-0.510277,0.115617,-0.704286,-0.479824,0
-6.555015,0.980607,-0.274708,0.256823,-1.496897,0.286639,20.032627,-18.489759,-37.919489,4.63583E+18,0.441156,-0.330333,0.191677,0.812109,-10.492087,-6.998333,2.035942,1.212258,2.107113,1.906039,45.234381,-5.3654,-10.827639,4.63583E+18,-0.077142,-0.775687,0.0076,0.62634,-7.320982,5.72517,-0.566017,-0.367977,-0.223145,1.065451,23.648081,-35.438902,15.186215,4.63583E+18,-0.50862,0.112782,-0.70358,-0.483282,0
-6.71122,0.807741,-0.509165,0.253412,-1.500456,0.214819,19.532992,-18.535289,-38.118922,4.63583E+18,0.442013,-0.324585,0.190079,0.814333,-10.180825,-7.639063,2.615704,1.557532,1.951694,1.747407,44.788714,-5.685729,-9.795856,4.63583E+18,-0.076714,-0.781148,0.016647,0.619391,-7.502972,5.859449,-0.361953,-0.423333,-0.25526,1.138484,23.27871,-35.840625,15.083978,4.63583E+18,-0.506872,0.109783,-0.702711,-0.487059,0
-6.667659,0.845967,-0.786541,0.1907,-1.616243,0.148928,19.205406,-18.52966,-38.428966,4.63583E+18,0.443081,-0.318598,0.187958,0.816606,-9.805427,-7.96849,3.021486,1.868584,1.779192,1.56262,44.611924,-6.253524,-8.776713,4.63583E+18,-0.074773,-0.786152,0.025949,0.612944,-7.763701,5.993731,-0.053515,-0.48751,-0.226475,1.035518,22.954602,-36.099324,14.920908,4.63583E+18,-0.505206,0.107276,-0.701707,-0.49078,0
-6.486984,0.832144,-0.600974,0.203774,-1.729965,0.116856,18.641052,-18.766052,-38.726773,4.63583E+18,0.444343,-0.312209,0.18562,0.81892,-9.585801,-8.490487,3.387697,2.154029,1.570359,1.335091,44.731049,-6.989034,-8.010837,4.63583E+18,-0.071282,-0.790615,0.035296,0.607125,-8.043321,6.105824,0.529928,-0.506096,-0.245555,0.993311,22.703766,-36.265836,14.650241,4.63583E+18,-0.503663,0.10489,-0.700591,-0.494464,0
-6.248146,0.935942,-0.363805,0.25757,-1.652479,0.126757,18.087221,-18.917013,-38.802874,4.63583E+18,0.445557,-0.305962,0.183612,0.821068,-9.362983,-8.981773,4.34934,2.409037,1.340969,1.065368,44.776756,-7.306198,-7.397458,4.63583E+18,-0.066225,-0.794492,0.044463,0.602013,-8.25759,5.417362,0.663572,-0.447218,-0.304082,1.242426,22.260009,-36.502164,14.469237,4.63583E+18,-0.50179,0.101529,-0.699562,-0.49851,0
-6.244101,1.16867,-0.47039,0.273588,-1.609924,0.145126,17.561928,-19.039498,-38.931059,4.63583E+18,0.446675,-0.299802,0.181753,0.823144,-9.082247,-8.911353,5.746945,2.586018,1.094532,0.768736,44.657699,-7.596126,-6.747501,4.63583E+18,-0.059782,-0.797737,0.053154,0.597676,-8.897557,5.391195,0.771201,-0.410098,-0.269984,1.211619,21.785034,-36.82393,14.298331,4.63583E+18,-0.499882,0.098249,-0.698647,-0.502352,0
-6.370225,1.363989,-0.220879,0.270278,-1.729155,0.152674,16.912087,-19.286495,-39.219567,4.63583E+18,0.447831,-0.293219,0.179661,0.825343,-8.633566,-8.676356,7.517157,2.628446,0.792222,0.464037,44.508156,-8.374501,-6.204293,4.63583E+18,-0.052365,-0.800195,0.061006,0.594327,-9.381484,5.406758,0.69259,-0.358465,-0.272759,1.232128,21.597274,-37.142374,14.03878,4.63583E+18,-0.497945,0.094792,-0.697822,-0.506073,0
-6.294945,1.584943,0.60835,0.288152,-1.718964,0.160686,16.292791,-19.463072,-39.536535,4.63583E+18,0.448949,-0.286616,0.17765,0.827488,-8.728372,-7.830766,9.055227,2.471904,0.428759,0.168956,44.407459,-8.606219,-5.786204,4.63583E+18,-0.04464,-0.801696,0.067559,0.592221,-9.490635,4.92007,0.395363,-0.344826,-0.297698,1.399692,21.294438,-37.5374,13.770194,4.63583E+18,-0.495717,0.090763,-0.697016,-0.510094,0
-6.212752,1.907187,0.41798,0.267793,-1.628461,0.182723,15.80454,-19.417499,-39.728986,4.63583E+18,0.449877,-0.280333,0.175755,0.829539,-7.70274,-7.303047,11.133358,2.070029,0.023462,-0.186693,44.376963,-8.294893,-5.41395,4.63583E+18,-0.037262,-0.802149,0.072002,0.591595,-9.807788,4.904014,0.255355,-0.320661,-0.314701,1.512403,20.766394,-37.796121,13.590322,4.63583E+18,-0.493288,0.086317,-0.696241,-0.514262,0
-6.193233,2.208724,-1.062028,0.070757,-1.685711,0.19978,15.279221,-19.522885,-39.886468,4.63583E+18,0.450535,-0.274195,0.173083,0.831792,-8.142467,-6.417915,12.439461,1.685227,-0.378172,-0.482835,44.43801,-8.255266,-5.459783,4.63583E+18,-0.030317,-0.801588,0.074565,0.592434,-9.894587,4.962797,0.177644,-0.314429,-0.280287,1.513382,20.206097,-37.907208,13.419455,4.63583E+18,-0.490738,0.081925,-0.69552,-0.518379,0
-5.966177,2.197754,-0.932772,-0.099409,-1.746071,0.183366,14.632247,-19.633987,-39.962556,4.63583E+18,0.451076,-0.268165,0.16968,0.834162,-5.618234,-6.775158,14.404874,1.036593,-0.87805,-0.865759,44.39527,-8.084337,-5.652039,4.63583E+18,-0.024438,-0.79979,0.074307,0.595162,-9.999958,5.323095,0.15982,-0.311126,-0.312534,1.576506,19.722154,-38.060283,13.326143,4.63583E+18,-0.488125,0.077271,-0.69473,-0.522603,0
-5.906299,2.038636,0.526061,-0.105349,-1.657111,0.176172,14.002393,-19.51154,-40.073618,4.63583E+18,0.451549,-0.262447,0.166407,0.836381,-15.940268,-4.382354,10.794229,0.415225,-1.664467,-1.083106,44.483783,-7.516688,-6.07625,4.63583E+18,-0.019845,-0.795999,0.07186,0.60069,-10.15416,4.960033,-0.207069,-0.312771,-0.392788,1.792479,19.40124,-38.518242,13.163104,4.63583E+18,-0.485247,0.071815,-0.693806,-0.527267,0
-6.239947,2.0671,0.800056,-0.150847,-1.557321,0.182188,13.445723,-19.307242,-40.334402,4.63583E+18,0.451861,-0.257147,0.163163,0.838496,-19.525755,-14.702923,11.651786,-0.8328,-2.45883,-1.966393,45.014761,-7.403786,-6.842198,4.63583E+18,-0.01694,-0.790279,0.063417,0.609222,-10.711807,5.019325,-0.188736,-0.267391,-0.387949,1.883535,18.952015,-39.139474,13.091961,4.63583E+18,-0.482139,0.066009,-0.692975,-0.531949,0
-6.507816,2.280244,0.594423,-0.221481,-1.588179,0.184226,12.891158,-19.270998,-40.742173,4.63583E+18,0.452091,-0.25186,0.159609,0.840658,-32.44267,-10.358951,6.369937,0.246034,-3.365648,-2.29491,45.564087,-7.60519,-7.989633,4.63583E+18,-0.009406,-0.782232,0.056679,0.620332,-10.944438,4.563489,0.027681,-0.185104,-0.402202,2.018761,18.188137,-39.430952,13.019771,4.63583E+18,-0.478761,0.059612,-0.692287,-0.536631,0
-6.083633,2.639282,1.355691,-0.295442,-1.664541,0.139633,12.195766,-19.336527,-40.902509,4.63583E+18,0.452429,-0.246462,0.155597,0.842825,-46.582273,27.935421,9.713398,2.014907,-4.022861,-1.376421,45.564149,-7.162754,-9.390414,4.63583E+18,0.001677,-0.772075,0.057514,0.632921,-11.106489,4.871796,0.292931,-0.099644,-0.446478,2.139382,17.250336,-39.543091,13.046378,4.63583E+18,-0.475226,0.052592,-0.691676,-0.541275,0
-5.144025,2.265199,3.208476,-0.265068,-1.709634,0.06164,11.661847,-19.316613,-41.010719,4.63583E+18,0.453078,-0.240887,0.15152,0.844829,-39.437265,17.370776,13.211256,-1.539524,-3.286262,-2.62532,45.320011,-6.116014,-10.714933,4.63583E+18,0.004441,-0.763901,0.044942,0.643751,-10.588424,5.229107,1.360245,0.037248,-0.472115,2.257934,16.597805,-39.995754,12.816737,4.63583E+18,-0.471486,0.044897,-0.691289,-0.545716,0
-4.525273,1.127927,4.15086,-0.127287,-1.573534,0.059185,11.256169,-19.234008,-41.19667,4.63583E+18,0.453766,-0.235521,0.148174,0.846564,-21.894303,-22.359275,4.244362,-2.342574,-2.706489,-3.450845,45.298611,-4.944209,-11.923368,4.63583E+18,0.006754,-0.757154,0.027581,0.652619,-10.612638,5.860397,1.930782,0.15697,-0.54123,2.375513,16.030767,-40.406342,12.549319,4.63583E+18,-0.467653,0.036466,-0.690992,-0.550001,0
-4.706908,-0.15276,3.399197,-0.239153,-1.288548,0.148039,10.807035,-19.197734,-41.366378,4.63583E+18,0.453838,-0.231309,0.145055,0.848225,-7.499227,-25.604983,-4.419938,0.598658,-2.862802,-3.161073,45.167449,-3.772439,-13.034129,4.63583E+18,0.017573,-0.74958,0.019118,0.661404,-11.175136,6.053718,1.678064,0.224972,-0.638237,2.521172,15.191823,-40.465314,12.546984,4.63583E+18,-0.463726,0.027257,-0.690607,-0.554327,0
-5.40023,-1.75193,4.077024,-0.230584,-0.941901,0.267075,10.262555,-19.243378,-41.451831,4.63583E+18,0.453277,-0.228228,0.142733,0.849752,-1.093956,-1.041235,-8.913284,1.611796,-2.976648,-2.915827,45.045351,-2.728685,-13.964979,4.63583E+18,0.030883,-0.741347,0.014197,0.67026,-11.874189,5.556815,1.337404,0.345252,-0.655062,2.667689,14.469388,-40.700488,12.660138,4.63583E+18,-0.459463,0.017351,-0.690397,-0.55852,0
-6.552757,-3.351055,5.453211,0.134361,-0.68582,0.442628,9.811232,-19.17783,-41.560026,4.63583E+18,0.452283,-0.225258,0.142352,0.851138,0.960894,18.046537,-7.871573,0.362131,-3.065816,-2.730251,44.819571,-1.727678,-15.0727,4.63583E+18,0.039811,-0.732777,0.006345,0.679273,-13.18106,5.206075,0.174885,0.382964,-0.727659,2.853797,13.761444,-41.08991,12.615828,4.63583E+18,-0.454914,0.006666,-0.69005,-0.562885,0
-8.725331,-4.481148,5.369567,0.500042,-0.633289,0.641738,9.464611,-19.23467,-41.697647,4.63583E+18,0.450887,-0.221663,0.143551,0.852619,-1.59755,9.800203,-3.694718,-0.717697,-3.15554,-2.70347,44.056908,-0.369894,-16.265863,4.63583E+18,0.045355,-0.72391,-0.004499,0.688388,-14.581701,4.432745,-0.537955,0.384631,-0.797974,3.070152,12.631832,-41.370777,12.643525,4.63583E+18,-0.449985,-0.004811,-0.689465,-0.567563,0
-9.46376,-3.560221,3.140133,0.825877,-1.063145,0.740553,9.044715,-19.518606,-41.637126,4.63583E+18,0.449685,-0.215864,0.145188,0.854462,-3.698162,-3.53153,1.831553,-0.691505,-3.088602,-2.742984,42.937023,1.244408,-17.471302,4.63583E+18,0.051079,-0.715006,-0.015373,0.697081,-14.743194,3.703659,-0.764531,0.493227,-0.786847,3.250282,11.515492,-41.628222,12.691235,4.63583E+18,-0.444512,-0.016981,-0.689025,-0.572159,0
-6.981697,-1.265052,2.305705,0.892493,-1.708733,0.423201,8.565811,-19.930794,-41.417405,4.63583E+18,0.450039,-0.207823,0.145559,0.856205,-9.11835,-26.582505,9.569128,0.044924,-3.328155,-3.173165,41.881097,2.712337,-18.74377,4.63583E+18,0.060214,-0.704981,-0.025435,0.706208,-14.51363,3.08325,-1.114007,0.612859,-0.810321,3.372178,10.570997,-42.028758,13.072797,4.63583E+18,-0.438715,-0.029776,-0.688675,-0.576515,0
-5.538471,-0.153298,5.872921,0.856828,-1.552708,0.044736,8.077605,-20.299494,-41.265851,4.63583E+18,0.451589,-0.200621,0.145758,0.857072,-16.658651,-27.425312,10.471812,2.087376,-3.281187,-3.01881,41.188113,3.631271,-20.028566,4.63583E+18,0.074874,-0.69432,-0.029012,0.715172,-13.835812,2.650338,-1.19186,0.713082,-0.805097,3.453669,9.210681,-42.454899,13.421302,4.63583E+18,-0.432599,-0.042969,-0.688412,-0.580604,0
-6.012256,0.013069,7.259169,0.848282,-1.05598,-0.115534,7.629064,-20.572875,-41.339092,4.63583E+18,0.453383,-0.195299,0.146722,0.85719,-7.848395,9.580561,1.718441,1.997434,-2.976057,-2.585706,40.602157,4.314941,-21.228006,4.63583E+18,0.087992,-0.684384,-0.031498,0.723107,-13.060205,4.37566,-1.262864,0.694898,-0.794612,3.445273,7.94006,-42.671407,13.574546,4.63583E+18,-0.426379,-0.056071,-0.68797,-0.584598,0
-7.704471,-0.330781,6.189744,0.925611,-0.93192,-0.095797,7.291838,-20.922309,-41.412331,4.63583E+18,0.455079,-0.190256,0.148208,0.85717,-4.861132,15.04428,-0.589376,-0.001595,-3.137495,-2.794031,39.888121,5.102221,-22.198648,4.63583E+18,0.095987,-0.674446,-0.04065,0.730928,-13.066305,5.917388,-1.236301,0.481595,-0.904253,3.370933,7.026491,-42.711468,13.609019,4.63583E+18,-0.42061,-0.068835,-0.686678,-0.588916,0
-8.301965,0.033189,6.37944,0.916755,-1.15723,0.013942,6.871981,-21.297626,-41.417478,4.63583E+18,0.4565,-0.18435,0.149317,0.857512,-10.62775,-3.687241,2.692037,0.123009,-3.204457,-2.945912,39.259394,5.93225,-23.092768,4.63583E+18,0.104753,-0.664014,-0.049862,0.738665,-12.186957,5.866348,-0.933527,0.250777,-1.011467,3.338369,6.014482,-42.802421,13.644523,4.63583E+18,-0.415205,-0.08135,-0.684495,-0.593678,0
-7.72258,0.168929,7.600043,0.854993,-1.245812,0.154898,6.429961,-21.521904,-41.180741,4.63583E+18,0.457406,-0.178151,0.150139,0.858196,-9.945272,-8.192145,0.588853,0.824718,-3.148679,-2.891273,38.673458,6.698299,-24.267442,4.63583E+18,0.115268,-0.653239,-0.056723,0.746174,-10.877822,4.716338,-0.55961,0.191813,-1.042494,3.375605,4.922642,-42.911159,13.847466,4.63583E+18,-0.409728,-0.09393,-0.681951,-0.598534,0
-7.036424,0.246914,7.390844,0.810224,-1.152473,0.292418,6.106015,-21.737356,-40.882069,4.63583E+18,0.457711,-0.172279,0.151076,0.859067,-8.033576,-0.977629,0.322677,0.60096,-3.072589,-3.029633,37.968657,7.506906,-25.399707,4.63583E+18,0.125585,-0.642559,-0.0646,0.753109,-9.956373,4.524574,-0.968446,0.146275,-1.060172,3.386411,3.668753,-43.087551,13.823258,4.63583E+18,-0.404203,-0.106486,-0.679111,-0.603398,0
-5.824522,0.766973,6.178432,0.690919,-1.187521,0.291118,5.758315,-22.086276,-40.658299,4.63583E+18,0.457941,-0.166503,0.151513,0.860006,-8.437547,0.504435,0.732286,0.230983,-3.187208,-3.04293,37.141717,8.455878,-26.202618,4.63583E+18,0.13488,-0.631496,-0.073712,0.759992,-9.476615,5.66991,-1.611976,0.019816,-1.057858,3.339556,2.399183,-43.270664,13.774428,4.63583E+18,-0.398759,-0.118668,-0.675831,-0.608409,0
-4.055934,1.151442,6.883865,0.692775,-1.08569,0.151946,5.21046,-22.25718,-40.806144,4.63583E+18,0.458592,-0.161172,0.15205,0.86058,-10.411056,-5.795052,-2.072173,0.389614,-3.287432,-3.035669,36.122575,9.444677,-27.203308,4.63583E+18,0.144491,-0.61981,-0.082334,0.766929,-9.09263,5.331748,-1.705675,-0.007074,-0.966277,3.245508,1.351489,-43.387235,13.714517,4.63583E+18,-0.393228,-0.130285,-0.672541,-0.613259,0
-3.049528,1.109037,6.833553,0.708981,-0.892487,0.064878,4.565082,-22.464945,-41.097762,4.63583E+18,0.459431,-0.156554,0.152952,0.860825,-10.602591,-5.343705,-3.713279,0.598809,-3.277112,-3.092223,35.103287,10.250497,-28.292731,4.63583E+18,0.154775,-0.607791,-0.090397,0.773604,-8.204215,5.341239,-1.675776,-0.008545,-0.882364,3.122988,0.392598,-43.419493,13.819781,4.63583E+18,-0.387701,-0.141317,-0.669323,-0.617839,0
-2.197287,0.409749,7.263496,0.712135,-0.846161,-0.008397,4.28457,-22.774671,-41.115175,4.63583E+18,0.460496,-0.152139,0.153902,0.860878,-9.971081,-2.560115,-1.483497,0.701958,-3.293065,-3.160848,33.919538,10.995059,-29.37906,4.63583E+18,0.165479,-0.595407,-0.098279,0.780031,-7.541414,5.169455,-0.918517,-0.015336,-0.846681,2.989284,-0.537406,-43.588033,13.941855,4.63583E+18,-0.382355,-0.151848,-0.666106,-0.622133,0
-1.638398,-0.675842,8.358597,0.76325,-0.786473,-0.076511,4.108866,-22.979134,-40.884971,4.63583E+18,0.461789,-0.147881,0.155105,0.860712,-10.241396,-2.763772,1.37963,0.737268,-3.315245,-3.232939,32.80242,11.858544,-30.401487,4.63583E+18,0.176433,-0.582672,-0.106202,0.786184,-7.117321,3.810192,-0.110675,0.072245,-0.784669,2.838222,-1.69786,-43.771126,14.075001,4.63583E+18,-0.377114,-0.161916,-0.663204,-0.625883,0
-1.673311,-1.583482,8.525566,0.774007,-0.663143,-0.134874,3.874097,-23.111897,-40.579795,4.63583E+18,0.463209,-0.14408,0.156544,0.860333,-10.196503,-2.439288,1.532773,0.669564,-3.370203,-3.40824,31.783026,12.707035,-31.402494,4.63583E+18,0.187702,-0.5695,-0.114772,0.792001,-7.202232,2.964972,0.28485,0.129677,-0.76801,2.689358,-2.682431,-43.588421,13.943235,4.63583E+18,-0.372123,-0.171596,-0.660483,-0.62916,0
-2.361844,-1.764613,8.680955,0.782475,-0.578589,-0.169164,3.652641,-23.458454,-40.297308,4.63583E+18,0.464693,-0.140585,0.158154,0.859816,-10.424677,-3.449793,0.89794,0.687556,-3.400695,-3.590382,30.663267,13.399939,-32.39427,4.63583E+18,0.199522,-0.555886,-0.123689,0.797422,-7.380854,2.715791,0.771888,0.194724,-0.736861,2.540886,-3.358599,-43.368687,13.939733,4.63583E+18,-0.367341,-0.180865,-0.658001,-0.631967,0
-3.23701,-1.723296,9.136507,0.782576,-0.59501,-0.221004,3.540147,-23.844281,-40.132278,4.63583E+18,0.466365,-0.137064,0.159699,0.859193,-13.064055,-6.261693,1.777615,0.908137,-3.421252,-3.665033,29.448752,13.992065,-33.24592,4.63583E+18,0.212001,-0.541737,-0.132009,0.80259,-7.46419,1.345597,0.906567,0.265791,-0.643622,2.384671,-4.205032,-43.370658,14.051693,4.63583E+18,-0.362621,-0.189548,-0.655892,-0.634337,0
-4.13475,-1.024191,9.538566,0.742138,-0.525204,-0.246175,3.50332,-24.137074,-40.08803,4.63583E+18,0.468051,-0.133886,0.161218,0.858494,-18.606473,-5.312752,3.614294,1.142946,-3.450617,-3.79869,27.959706,14.684715,-34.051682,4.63583E+18,0.225341,-0.526955,-0.139809,0.807461,-7.980785,0.632176,0.594125,0.370331,-0.668424,2.329487,-5.215837,-43.18448,14.262436,4.63583E+18,-0.357993,-0.198284,-0.653995,-0.636251,0
-5.002252,-0.242012,9.572044,0.690933,-0.528656,-0.212781,3.344642,-24.305126,-40.003662,4.63583E+18,0.469583,-0.130771,0.162564,0.857883,-21.147735,-2.292881,4.772014,1.171269,-3.447466,-4.013547,26.147532,15.41705,-35.076621,4.63583E+18,0.239357,-0.511772,-0.147913,0.811739,-8.331733,1.039267,0.583708,0.620779,-0.64374,2.328267,-5.897661,-42.888282,14.471086,4.63583E+18,-0.353058,-0.207303,-0.65273,-0.637432,0
-5.903068,-0.050599,9.951155,0.629991,-0.536644,-0.26894,3.185956,-24.483626,-39.955541,4.63583E+18,0.471282,-0.127783,0.163644,0.857196,-22.688416,-1.915806,5.166484,1.154148,-3.484495,-4.202936,25.059802,15.6559,-36.010704,4.63583E+18,0.253827,-0.496095,-0.156438,0.815469,-7.56423,-0.564629,0.065142,1.096994,-0.544898,2.305292,-6.367215,-42.738299,15.110731,4.63583E+18,-0.347464,-0.216675,-0.652821,-0.637295,0
-6.896859,0.123514,9.961379,0.586953,-0.540093,-0.343822,3.044238,-24.690982,-39.815955,4.63583E+18,0.473221,-0.124917,0.164522,0.856382,-21.277367,-2.072192,5.416727,1.196254,-3.533377,-4.379727,24.369806,15.610319,-36.816591,4.63583E+18,0.268811,-0.479814,-0.165148,0.818685,-7.671536,-0.677033,0.588481,1.399886,-0.57296,2.273836,-7.129229,-42.670501,15.450857,4.63583E+18,-0.341713,-0.226447,-0.653623,-0.636184,0
-7.314179,0.358275,9.560855,0.54838,-0.453335,-0.361562,2.978606,-24.81322,-39.878758,4.63583E+18,0.475138,-0.122447,0.165422,0.855503,-17.834021,-0.539894,4.83225,1.156102,-3.565174,-4.56581,22.352048,16.374815,-37.48808,4.63583E+18,0.284168,-0.463059,-0.174306,0.821244,-8.14504,0.547648,0.946215,1.426947,-0.524436,2.222397,-8.133283,-42.476474,15.67847,4.63583E+18,-0.335899,-0.235959,-0.654531,-0.63489,0
-7.42333,-0.290804,9.775329,0.517244,-0.307254,-0.313062,2.944643,-25.037555,-39.801454,4.63583E+18,0.476761,-0.120526,0.166523,0.854659,-14.315274,0.633467,3.362596,1.044035,-3.558295,-4.774032,19.874318,17.36967,-38.195868,4.63583E+18,0.29985,-0.446022,-0.184132,0.822952,-7.382255,0.073033,1.597128,1.607389,-0.396952,2.183539,-8.792921,-42.036269,16.308176,4.63583E+18,-0.329619,-0.24525,-0.656048,-0.633092,0
-7.609818,-1.653774,8.940644,0.614069,-0.366026,-0.245509,2.795328,-25.199077,-39.528292,4.63583E+18,0.478228,-0.118155,0.167885,0.853904,-11.277982,0.909339,2.128802,0.95824,-3.509757,-4.969536,18.145513,17.724925,-38.973973,4.63583E+18,0.315885,-0.428819,-0.194435,0.823727,-6.380316,-2.203965,1.084002,2.309271,-0.202253,2.233416,-9.349006,-41.583476,17.156868,4.63583E+18,-0.321907,-0.25509,-0.659531,-0.629543,0
-7.431036,-2.729985,8.43189,0.778548,-0.472786,-0.170435,2.673421,-25.386932,-39.388676,4.63583E+18,0.479578,-0.115023,0.169655,0.853224,-9.085472,0.882084,1.289107,1.021507,-3.418239,-5.160179,16.476698,18.245968,-39.776517,4.63583E+18,0.332549,-0.411405,-0.20461,0.823585,-5.699527,-4.390585,-1.046699,3.44142,0.016011,2.226233,-10.319412,-40.998831,18.300616,4.63583E+18,-0.312336,-0.265794,-0.666127,-0.622956,0
-7.033258,-3.997681,8.723672,1.08528,-0.473087,-0.117641,2.656455,-25.670652,-39.42605,4.63583E+18,0.480878,-0.111237,0.172537,0.852416,-6.985987,-0.037788,0.614431,1.235991,-3.301301,-5.314615,14.249773,19.075728,-40.445206,4.63583E+18,0.349979,-0.393677,-0.214009,0.822638,-5.828172,-4.180041,-1.722703,4.411304,0.144896,2.090197,-11.24388,-40.323178,19.716148,4.63583E+18,-0.301576,-0.276954,-0.675324,-0.613422,0
-7.085486,-5.394279,8.944878,1.43852,-0.467899,-0.079124,2.583208,-26.119655,-39.258721,4.63583E+18,0.482185,-0.106732,0.176696,0.851402,-5.339947,-1.200674,-0.708709,1.715395,-3.148349,-5.395123,12.432672,19.034935,-41.049529,4.63583E+18,0.368356,-0.37542,-0.221519,0.821159,-6.345919,1.999675,-2.501313,4.603739,0.104569,1.945604,-11.738407,-39.495538,21.234163,4.63583E+18,-0.290948,-0.287933,-0.684841,-0.602857,0
-7.744956,-7.081837,9.483347,1.879988,-0.476943,0.017668,2.493018,-26.720675,-38.896161,4.63583E+18,0.483326,-0.10123,0.182437,0.850215,-4.182831,-3.635954,-1.884249,2.490005,-2.956177,-5.369405,10.809379,18.754062,-41.647586,4.63583E+18,0.387759,-0.356376,-0.22588,0.819523,-6.507473,8.817973,-2.941382,3.873741,-0.074193,1.749054,-12.134685,-38.431638,22.582818,4.63583E+18,-0.282091,-0.297808,-0.692287,-0.593695,0
-8.832674,-8.740767,9.663008,2.375463,-0.303458,0.131644,2.36348,-27.456015,-38.380575,4.63583E+18,0.4841,-0.095251,0.190315,0.848737,-2.895452,-4.513339,-1.536455,3.354925,-2.752693,-5.310132,8.564564,18.79002,-42.327982,4.63583E+18,0.408129,-0.336405,-0.226692,0.817847,-6.662768,10.777898,-1.549536,3.488148,-0.119002,1.805038,-12.735763,-37.566861,23.747108,4.63583E+18,-0.27362,-0.307413,-0.698455,-0.585482,0
-9.767592,-8.778277,9.50969,2.854092,-0.150463,0.208244,2.256313,-28.29111,-37.742588,4.63583E+18,0.484612,-0.088775,0.200203,0.84687,-2.834511,-2.345931,0.386644,3.92969,-2.607034,-5.266835,6.558604,18.184414,-42.944625,4.63583E+18,0.428949,-0.31571,-0.225045,0.815895,-6.688528,11.367614,-0.849955,3.545704,-0.094628,1.912487,-13.347255,-37.079053,24.817046,4.63583E+18,-0.264668,-0.317252,-0.704461,-0.577093,0
-9.460395,-7.649845,7.363309,3.32754,-0.325874,0.119077,2.056381,-29.409338,-36.771856,4.63583E+18,0.485679,-0.080784,0.211339,0.844349,-3.623873,1.597327,2.818353,4.122069,-2.555326,-5.265415,4.968154,16.836824,-43.521378,4.63583E+18,0.449689,-0.294571,-0.222453,0.81334,-7.498346,7.270777,0.746351,3.622648,-0.288632,1.86063,-13.758223,-36.117794,25.868012,4.63583E+18,-0.256232,-0.327399,-0.710305,-0.567998,0
-9.351671,-5.826537,5.71295,3.631951,-0.30087,-0.008792,1.958836,-30.468557,-35.94458,4.63583E+18,0.487172,-0.07236,0.22351,0.841113,-3.60183,2.938263,5.497296,4.24324,-2.519034,-5.241735,3.338834,15.377947,-44.168167,4.63583E+18,0.470128,-0.273087,-0.219153,0.81017,-4.479349,5.430549,0.936578,4.121921,-0.330017,1.825228,-14.292812,-34.827773,27.16142,4.63583E+18,-0.247239,-0.337965,-0.717104,-0.557148,0
-10.380573,-4.270477,5.630548,3.77928,-0.278631,0.114398,1.943693,-31.540969,-35.101276,4.63583E+18,0.488139,-0.063584,0.236225,0.83778,-2.931183,2.196281,7.577457,4.60586,-2.47871,-5.07142,2.287353,13.709005,-44.675231,4.63583E+18,0.490013,-0.250935,-0.214157,0.80688,-2.479102,6.969428,-2.017446,4.445497,-0.387438,1.811599,-14.764604,-33.50939,28.668104,4.63583E+18,-0.2379,-0.348827,-0.724343,-0.545023,0
-10.795627,-2.21237,5.646107,4.02376,-0.742728,0.2649,1.743564,-32.645966,-34.131265,4.63583E+18,0.48897,-0.052525,0.248825,0.834407,-1.693439,2.080934,9.231807,5.099675,-2.502049,-4.788568,1.892623,11.397438,-45.19076,4.63583E+18,0.508982,-0.227714,-0.207051,0.803874,-2.373658,6.288443,-2.374789,4.580983,-0.562687,1.650594,-14.874039,-32.323906,29.917118,4.63583E+18,-0.229161,-0.359592,-0.731651,-0.531851,0
-9.908943,0.5329,5.052517,4.189424,-1.436594,0.399124,1.272034,-33.632816,-33.020524,4.63583E+18,0.489934,-0.038561,0.260538,0.831022,0.611223,5.240841,10.407778,5.404356,-2.622011,-4.491086,1.091498,9.013775,-45.873949,4.63583E+18,0.526647,-0.203481,-0.198696,0.801098,-0.542192,6.356394,-2.723732,4.99893,-0.611011,1.491829,-14.880825,-31.218694,31.049003,4.63583E+18,-0.220192,-0.370216,-0.739749,-0.516941,0
-8.620962,1.561969,4.267756,4.206683,-1.680424,0.52379,0.473903,-34.71169,-31.904109,4.63583E+18,0.49056,-0.023569,0.271741,0.827618,2.383554,6.925984,12.650701,5.163965,-2.699367,-4.296148,-0.33559,7.226945,-46.487692,4.63583E+18,0.542896,-0.179487,-0.19096,0.797861,-0.752662,7.335662,-4.574933,5.278947,-0.657787,1.363883,-15.013707,-29.699258,32.603927,4.63583E+18,-0.211101,-0.380616,-0.748231,-0.500717,0
-7.726829,3.189346,3.493396,4.317968,-1.388885,0.682153,-0.307257,-35.846978,-30.706748,4.63583E+18,0.490143,-0.009167,0.28384,0.824082,5.571226,7.342213,13.70178,4.963949,-2.796188,-4.041379,-1.663808,5.381238,-46.760115,4.63583E+18,0.557595,-0.155668,-0.183749,0.794413,-1.413599,6.858485,-5.491741,5.648295,-0.673879,1.216624,-15.315225,-27.926315,34.203095,4.63583E+18,-0.201663,-0.390702,-0.757287,-0.482908,0
-6.530618,6.50821,1.640056,4.11044,-1.056848,0.715241,-0.804881,-36.942766,-29.280324,4.63583E+18,0.489042,0.003713,0.295809,0.820562,7.970584,7.720348,14.415373,4.727633,-2.79542,-3.714368,-2.671556,3.333765,-46.848838,4.63583E+18,0.570609,-0.132526,-0.176958,0.790903,-0.248081,8.692871,-7.7478,6.059516,-0.568499,1.113603,-15.344706,-26.342394,35.447781,4.63583E+18,-0.191305,-0.400349,-0.766951,-0.463583,0
-5.767484,8.324895,0.787944,3.719429,-0.734973,0.638912,-1.13724,-37.873271,-27.917092,4.63583E+18,0.48767,0.014601,0.307012,0.817134,8.605827,6.774879,14.338331,4.270165,-2.748178,-3.491875,-4.028477,1.61154,-46.855089,4.63583E+18,0.582267,-0.110697,-0.171313,0.786996,-0.243867,11.643935,-8.580398,6.098056,-0.514946,0.979489,-15.211841,-24.558422,36.64523,4.63583E+18,-0.180842,-0.409227,-0.776444,-0.443807,0
-5.638855,9.580373,1.210616,3.164227,-0.580274,0.420834,-1.359773,-38.651613,-27.058948,4.63583E+18,0.486768,0.023551,0.316586,0.813803,9.403703,4.878138,12.520485,3.877044,-2.616495,-3.323618,-6.168947,0.678998,-46.651155,4.63583E+18,0.592928,-0.090304,-0.166455,0.782672,0.784294,14.87145,-9.805269,6.218174,-0.349772,0.890147,-15.209288,-22.608002,37.94106,4.63583E+18,-0.169683,-0.417322,-0.785908,-0.423555,0
-5.452848,11.177688,2.141275,2.632665,-0.626726,0.43752,-1.571973,-39.239384,-26.308619,4.63583E+18,0.485847,0.031599,0.324211,0.811074,8.487614,3.636895,9.976223,3.623381,-2.442983,-3.137846,-7.65749,-0.311929,-46.437397,4.63583E+18,0.602689,-0.071185,-0.161835,0.778144,0.027633,14.310295,-11.563068,5.989306,-0.244144,0.771861,-15.298989,-20.576209,39.147604,4.63583E+18,-0.158672,-0.424404,-0.794728,-0.403871,0
-5.021852,13.34632,3.342278,1.930364,-0.492793,0.717674,-1.738196,-39.632829,-25.462617,4.63583E+18,0.48384,0.038148,0.329664,0.809793,7.819666,3.475811,10.528284,3.067623,-2.263809,-3.053142,-8.105277,-1.891271,-46.360748,4.63583E+18,0.611854,-0.054067,-0.158467,0.773045,-0.17173,14.420872,-12.019116,5.615855,-0.101331,0.646231,-15.330222,-18.537794,40.17776,4.63583E+18,-0.147965,-0.430328,-0.802763,-0.385352,0
-4.858605,17.705059,4.650218,1.115178,-0.300533,0.898898,-2.006745,-40.018715,-24.834516,4.63583E+18,0.481059,0.042651,0.332706,0.809981,5.126094,1.276539,10.335452,2.633015,-2.032467,-2.95317,-8.556133,-3.143916,-46.342382,4.63583E+18,0.620521,-0.038847,-0.155827,0.767569,-1.090889,15.493053,-12.845781,4.868035,0.017028,0.556987,-15.288216,-16.709297,40.936453,4.63583E+18,-0.138273,-0.435093,-0.809438,-0.369303,0
-5.15244,24.065683,6.482215,0.540053,0.084074,0.848586,-2.363548,-40.308851,-24.499316,4.63583E+18,0.478003,0.044632,0.334578,0.810912,10.001399,1.684695,10.844448,1.76258,-1.747526,-3.096117,-9.230465,-4.112113,-46.184058,4.63583E+18,0.629498,-0.026684,-0.155209,0.760875,-2.811302,15.656408,-13.193302,4.008444,0.11688,0.478323,-15.383292,-15.124164,41.325675,4.63583E+18,-0.129876,-0.438789,-0.814707,-0.356158,0
-4.019798,28.594074,9.252453,-0.321814,0.446096,0.252927,-2.534438,-40.377373,-24.527535,4.63583E+18,0.47661,0.042842,0.334367,0.811915,-1.42412,-10.063754,10.947313,3.828607,0.044005,-2.721063,-9.503248,-5.341436,-45.903429,4.63583E+18,0.638466,-0.015016,-0.143249,0.756052,-2.403011,17.355677,-13.442,3.063633,0.270355,0.379041,-15.327121,-14.192575,41.779309,4.63583E+18,-0.122803,-0.44131,-0.818655,-0.346366,0
-3.092229,23.795985,11.225177,-1.682168,-0.241073,-0.044041,-2.483737,-40.049673,-25.111568,4.63583E+18,0.477409,0.04026,0.328233,0.814078,10.673795,-17.838051,24.810539,3.751605,1.039604,-1.658709,-9.14127,-6.735853,-45.653067,4.63583E+18,0.644457,-0.007318,-0.128767,0.753685,-2.62055,16.356502,-11.749049,2.399473,0.454692,0.264007,-15.475259,-13.403333,42.154638,4.63583E+18,-0.116472,-0.442772,-0.821838,-0.339072,0
-5.648272,15.298693,11.418617,-2.01806,-0.86257,0.973329,-2.671543,-39.495645,-25.848706,4.63583E+18,0.475628,0.040506,0.319528,0.818559,17.922372,-19.482,26.168863,1.336282,0.57619,-2.230738,-8.552439,-7.896159,-45.567254,4.63583E+18,0.651782,-0.004342,-0.123104,0.748336,-0.424376,19.036003,-12.823281,1.422237,0.551533,0.135971,-15.801094,-12.411856,42.443344,4.63583E+18,-0.111785,-0.443152,-0.823863,-0.335216,0
