Accelerometer-X,Accelerometer-Y,Accelerometer-Z,Gyroscope-X,Gyroscope-Y,Gyroscope-Z,Magnetometer-X,Magnetometer-Y,Magnetometer-Z,Barometer-pressure,Orientation-S,Orientation-X,Orientation-Y,Orientation-Z,Accelerometer-X,Accelerometer-Y,Accelerometer-Z,Gyroscope-X,Gyroscope-Y,Gyroscope-Z,Magnetometer-X,Magnetometer-Y,Magnetometer-Z,Barometer-pressure,Orientation-S,Orientation-X,Orientation-Y,Orientation-Z,Accelerometer-X,Accelerometer-Y,Accelerometer-Z,Gyroscope-X,Gyroscope-Y,Gyroscope-Z,Magnetometer-X,Magnetometer-Y,Magnetometer-Z,Barometer-pressure,Orientation-S,Orientation-X,Orientation-Y,Orientation-Z,jump
-9.775167,-0.458824,-0.442430,-0.060076,-0.004089,-0.004715,41.872617,-1.768850,20.501993,4635731572685799400.000000,-0.704001,0.069503,-0.705326,-0.045474,-9.576326,0.667591,-1.549577,0.004206,-0.003071,-0.004706,37.716300,-20.474106,18.756672,4635727491929997300.000000,-0.554601,0.332330,-0.684228,-0.337352,-9.682523,0.079402,-0.675512,-0.022431,-0.002316,-0.014586,41.324326,16.846109,11.426129,4635729210453786600.000000,0.554430,0.410900,0.609311,-0.390524,0
-9.743601,-0.436503,-0.479052,-0.064607,-0.010208,-0.003128,41.852906,-1.783504,20.297078,4635731572685799400.000000,-0.704005,0.069720,-0.705288,-0.045663,-9.577089,0.636308,-1.538133,0.005474,-0.001636,-0.002637,37.830742,-20.463046,18.613243,4635727491929997300.000000,-0.554622,0.332325,-0.684219,-0.337341,-9.680470,0.103709,-0.651097,-0.024208,-0.000359,-0.020465,41.226559,16.929509,11.355044,4635729210453786600.000000,0.554448,0.410781,0.609376,-0.390522,0
-9.724245,-0.415052,-0.480280,-0.067034,-0.016648,0.000885,41.966590,-1.733451,20.234818,4635731572685799400.000000,-0.704027,0.069930,-0.705231,-0.045872,-9.550392,0.659200,-1.531649,0.005208,-0.001569,-0.001569,37.701065,-20.429470,18.671203,4635727491929997300.000000,-0.554642,0.332317,-0.684211,-0.337333,-9.680470,0.079405,-0.657146,-0.027233,0.003554,-0.029359,41.283270,17.004799,11.330524,4635729210453786600.000000,0.554447,0.410639,0.609470,-0.390526,0
-9.712040,-0.415052,-0.441567,-0.065599,-0.016022,0.003905,42.066711,-1.768825,20.313576,4635731572685799400.000000,-0.704047,0.070127,-0.705178,-0.046086,-9.528258,0.678651,-1.519442,0.003204,0.000634,-0.000501,37.541208,-20.525967,18.866521,4635727491929997300.000000,-0.554650,0.332314,-0.684207,-0.337330,-9.690623,0.012330,-0.649047,-0.023330,0.008714,-0.037195,41.358561,16.956207,11.409689,4635729210453786600.000000,0.554414,0.410494,0.609582,-0.390550,0
-9.725096,-0.399894,-0.417154,-0.065341,-0.023538,0.007735,42.031343,-1.783535,20.430141,4635731572685799400.000000,-0.704088,0.070309,-0.705104,-0.046312,-9.546948,0.695822,-1.520201,0.003772,0.001569,-0.000567,37.591907,-20.599613,18.854368,4635727491929997300.000000,-0.554657,0.332311,-0.684206,-0.337324,-9.692678,-0.050767,-0.687606,-0.019766,0.006060,-0.040230,41.381045,16.943876,11.507356,4635729210453786600.000000,0.554376,0.410346,0.609688,-0.390594,0
-9.738558,-0.388535,-0.387687,-0.064531,-0.041254,0.009171,41.945891,-1.667767,20.382565,4635731572685799400.000000,-0.704182,0.070479,-0.704979,-0.046542,-9.551914,0.695822,-1.499996,0.001437,0.003337,-0.001635,37.717424,-20.548513,18.607202,4635727491929997300.000000,-0.554657,0.332320,-0.684204,-0.337320,-9.702830,-0.040732,-0.705974,-0.017450,0.011559,-0.041478,41.383099,17.004790,11.523788,4635729210453786600.000000,0.554318,0.410208,0.609806,-0.390637,0
-9.712041,-0.428104,-0.325806,-0.064273,-0.049061,0.006777,41.931172,-1.574755,20.284911,4635731572685799400.000000,-0.704298,0.070652,-0.704830,-0.046765,-9.578601,0.715269,-1.509508,-0.001635,0.005908,-0.001002,37.751018,-20.469544,18.625379,4635727491929997300.000000,-0.554645,0.332337,-0.684204,-0.337322,-9.735342,-0.097535,-0.677573,-0.015314,0.011041,-0.042546,41.444009,17.027272,11.594853,4635729210453786600.000000,0.554256,0.410073,0.609920,-0.390690,0
-9.714989,-0.463881,-0.253408,-0.061253,-0.035764,0.004273,41.945897,-1.711152,20.313547,4635731572685799400.000000,-0.704377,0.070828,-0.704720,-0.046971,-9.620190,0.700036,-1.570541,-0.002703,0.008110,0.001701,37.706402,-20.525936,18.918337,4635727491929997300.000000,-0.554621,0.332352,-0.684212,-0.337330,-9.741508,-0.089562,-0.681559,-0.014954,0.011570,-0.044503,41.456341,17.029327,11.609241,4635729210453786600.000000,0.554189,0.409933,0.610038,-0.390746,0
-9.779820,-0.468933,-0.247097,-0.056096,-0.024457,0.004273,41.931172,-1.904355,20.394778,4635731572685799400.000000,-0.704424,0.070994,-0.704643,-0.047160,-9.599237,0.697331,-1.612132,-0.003772,0.009046,0.001503,37.672047,-20.644982,18.900214,4635727491929997300.000000,-0.554593,0.332371,-0.684221,-0.337339,-9.771960,-0.146357,-0.673464,-0.014066,0.011750,-0.046639,41.385287,17.151137,11.528034,4635729210453786600.000000,0.554116,0.409791,0.610159,-0.390810,0
-9.866526,-0.496291,-0.268563,-0.047036,-0.039888,0.003831,41.976208,-1.803344,20.211271,4635731661532975100.000000,-0.704519,0.071130,-0.704524,-0.047325,-9.603009,0.687832,-1.649508,-0.004273,0.006277,0.000000,37.672047,-20.595089,18.762779,4635727491929997300.000000,-0.554574,0.332393,-0.684220,-0.337350,-9.747678,-0.199299,-0.681558,-0.013886,0.010861,-0.044334,41.299836,17.307774,11.440527,4635729210453786600.000000,0.554049,0.409654,0.610274,-0.390870,0
-9.827393,-0.509767,-0.223110,-0.036428,-0.049799,0.003204,41.974101,-1.695559,20.037399,4635731787434164200.000000,-0.704647,0.071232,-0.704377,-0.047458,-9.651082,0.639759,-1.672414,-0.002005,0.003139,0.002835,37.665567,-20.429923,18.859982,4635727491929997300.000000,-0.554564,0.332396,-0.684219,-0.337366,-9.812562,-0.217676,-0.673464,-0.005892,0.015122,-0.037577,41.224534,17.202554,11.344924,4635729210453786600.000000,0.553969,0.409559,0.610374,-0.390927,0
-9.761710,-0.478195,-0.183949,-0.032486,-0.034587,0.002321,41.945906,-1.811316,20.125364,4635731787434164200.000000,-0.704731,0.071331,-0.704275,-0.047574,-9.603469,0.680893,-1.672414,0.003402,0.001569,0.007042,37.705196,-20.440454,18.952370,4635727491929997300.000000,-0.554559,0.332373,-0.684228,-0.337378,-9.806661,-0.260331,-0.681557,-0.000720,0.013358,-0.032765,41.344137,17.043874,11.490860,4635729210453786600.000000,0.553892,0.409486,0.610453,-0.390989,0
-9.820632,-0.468930,-0.219733,-0.030904,-0.030753,0.000185,41.931152,-1.833668,20.275218,4635731743023460400.000000,-0.704804,0.071431,-0.704184,-0.047677,-9.552669,0.706526,-1.678894,0.005842,-0.001767,0.005710,37.706415,-20.559522,18.854426,4635727491929997300.000000,-0.554570,0.332344,-0.684231,-0.337384,-9.772097,-0.268563,-0.714062,0.000888,0.012818,-0.027604,41.370892,17.088164,11.523788,4635729210453786600.000000,0.553821,0.409428,0.610520,-0.391045,0
-9.823196,-0.471041,-0.189444,-0.026888,-0.041730,-0.001952,42.046886,-1.733451,20.284941,4635731680059981800.000000,-0.704912,0.071521,-0.704061,-0.047764,-9.584311,0.703051,-1.658707,0.007608,-0.002005,0.004338,37.665568,-20.509667,18.866438,4635727491929997300.000000,-0.554585,0.332314,-0.684234,-0.337383,-9.765923,-0.248265,-0.750684,0.003732,0.011042,-0.019599,41.309995,17.102571,11.442595,4635729210453786600.000000,0.553764,0.409395,0.610564,-0.391092,0
-9.725537,-0.463881,-0.111151,-0.027402,-0.044420,-0.004088,42.175294,-1.804126,20.192330,4635731680059981800.000000,-0.705027,0.071620,-0.703930,-0.047848,-9.574836,0.804451,-1.622836,0.007913,-0.002834,0.002507,37.620971,-20.435194,19.003443,4635727491929997300.000000,-0.554606,0.332287,-0.684233,-0.337377,-9.786219,-0.183260,-0.726415,0.000721,0.009794,-0.015495,41.226609,17.163459,11.344946,4635729210453786600.000000,0.553721,0.409363,0.610603,-0.391124,0
-9.643025,-0.458834,-0.035799,-0.029025,-0.036286,-0.004899,42.154741,-1.838736,20.096787,4635731680059981800.000000,-0.705119,0.071728,-0.703822,-0.047933,-9.507322,0.859499,-1.617855,0.003008,-0.005908,-0.001700,37.631940,-20.480540,18.998203,4635727491929997300.000000,-0.554634,0.332280,-0.684212,-0.337380,-9.709156,-0.191199,-0.720237,-0.000888,0.008725,-0.011402,41.141161,17.175816,11.328470,4635729210453786600.000000,0.553691,0.409336,0.610636,-0.391145,0
-9.612273,-0.426440,-0.030280,-0.030863,-0.016362,-0.002506,41.988897,-1.675004,20.032349,4635731680059981800.000000,-0.705151,0.071835,-0.703773,-0.048022,-9.524763,0.777539,-1.617107,0.000000,-0.003575,-0.007172,37.710911,-20.429964,18.958097,4635727491929997300.000000,-0.554660,0.332298,-0.684184,-0.337375,-9.621644,-0.306943,-0.781123,-0.001068,0.007657,-0.004466,41.197775,17.175816,11.328470,4635729210453786600.000000,0.553675,0.409325,0.610654,-0.391151,0
-9.669901,-0.415871,-0.133805,-0.033483,-0.001880,-0.001325,41.961416,-1.680737,20.037395,4635731680059981800.000000,-0.705139,0.071950,-0.703766,-0.048117,-9.654799,0.733190,-1.604901,-0.001133,-0.001635,-0.007848,37.745293,-20.349741,18.906285,4635727491929997300.000000,-0.554679,0.332324,-0.684159,-0.337369,-9.698545,-0.319453,-0.803628,0.007810,0.005701,0.003010,41.273073,17.246842,11.328470,4635729210453786600.000000,0.553661,0.409350,0.610641,-0.391165,0
-9.802061,-0.456720,-0.280287,-0.028327,-0.007948,-0.003646,42.089828,-1.896710,20.044556,4635731680059981800.000000,-0.705147,0.072058,-0.703742,-0.048196,-9.664535,0.764081,-1.625076,-0.003270,-0.003270,-0.007041,37.615762,-20.395077,18.808626,4635727491929997300.000000,-0.554699,0.332350,-0.684128,-0.337374,-9.788116,-0.165199,-0.775250,0.004287,0.002677,0.004273,41.346314,17.261269,11.328470,4635729210453786600.000000,0.553662,0.409365,0.610624,-0.391173,0
-9.908180,-0.448744,-0.371268,-0.024126,-0.021876,-0.003390,42.104636,-1.959531,19.963822,4635731680059981800.000000,-0.705197,0.072152,-0.703677,-0.048268,-9.607226,0.706289,-1.641183,-0.002483,-0.002483,-0.006159,37.501144,-20.435194,18.708244,4635727491929997300.000000,-0.554717,0.332373,-0.684101,-0.337377,-9.792399,-0.103843,-0.738628,-0.001235,0.003024,0.005160,41.297805,17.129367,11.328470,4635729210453786600.000000,0.553674,0.409370,0.610616,-0.391163,0
-9.911593,-0.417166,-0.348149,-0.020408,-0.027843,-0.001695,42.019177,-1.916562,19.849237,4635731680059981800.000000,-0.705265,0.072227,-0.703596,-0.048336,-9.642656,0.618649,-1.635792,0.003892,-0.001068,-0.001172,37.593261,-20.335990,18.714722,4635727491929997300.000000,-0.554732,0.332370,-0.684093,-0.337371,-9.780192,-0.199109,-0.702009,-0.000361,0.002317,0.005341,41.214422,17.163441,11.247310,4635729210453786600.000000,0.553686,0.409377,0.610605,-0.391157,0
-9.855607,-0.402844,-0.325367,-0.019113,-0.023913,-0.003717,41.938779,-1.911517,19.929966,4635731680059981800.000000,-0.705323,0.072305,-0.703527,-0.048393,-9.618662,0.598163,-1.614534,0.006857,-0.002928,0.001068,37.759042,-20.313891,18.871033,4635727491929997300.000000,-0.554754,0.332350,-0.684089,-0.337365,-9.788275,-0.138575,-0.726256,0.002663,0.001249,0.002678,41.271000,17.307698,11.311969,4635729121222272000.000000,0.553691,0.409382,0.610590,-0.391167,0
-9.847135,-0.412932,-0.409497,-0.023058,-0.015651,-0.007477,41.931115,-1.904355,20.125257,4635731635695490000.000000,-0.705356,0.072407,-0.703480,-0.048446,-9.582811,0.598163,-1.613340,0.005789,-0.003033,0.003548,37.830742,-20.392251,18.844736,4635727367291427800.000000,-0.554770,0.332326,-0.684085,-0.337367,-9.820768,-0.000352,-0.732444,0.000542,0.003731,0.000361,41.295582,17.141785,11.409618,4635729103079604200.000000,0.553690,0.409381,0.610589,-0.391172,0
-9.901006,-0.452475,-0.533685,-0.020666,-0.031838,-0.007036,41.945957,-1.874096,20.159183,4635731572685799400.000000,-0.705437,0.072496,-0.703386,-0.048498,-9.618234,0.676092,-1.595247,0.002861,-0.000897,0.004721,37.738644,-20.380478,18.536076,4635727277181632500.000000,-0.554775,0.332308,-0.684085,-0.337377,-9.806675,0.024415,-0.702018,-0.006212,0.004273,-0.004437,41.236792,17.031578,11.588402,4635729103079604200.000000,0.553691,0.409353,0.610608,-0.391170,0
-9.911618,-0.518547,-0.542704,-0.015512,-0.058330,-0.005085,41.961351,-1.795818,19.958846,4635731572685799400.000000,-0.705596,0.072557,-0.703216,-0.048548,-9.622595,0.767867,-1.581840,0.000448,0.000620,0.004892,37.714554,-20.250558,18.428818,4635727277181632500.000000,-0.554773,0.332298,-0.684085,-0.337393,-9.741694,-0.066862,-0.675538,-0.004815,0.006047,-0.010665,41.153409,17.280808,11.692441,4635729103079604200.000000,0.553675,0.409314,0.610640,-0.391183,0
-9.845544,-0.586745,-0.443718,-0.009103,-0.064833,-0.000558,42.155322,-1.780945,19.837030,4635731572685799400.000000,-0.705776,0.072585,-0.703029,-0.048595,-9.593061,0.715571,-1.586962,0.003099,0.001068,0.006580,37.745293,-20.277996,18.583125,4635727277181632500.000000,-0.554770,0.332277,-0.684091,-0.337404,-9.719159,-0.044885,-0.722116,-0.009597,0.005521,-0.015299,41.199799,17.466357,11.625765,4635729103079604200.000000,0.553661,0.409253,0.610686,-0.391195,0
-9.807586,-0.602414,-0.435215,-0.003135,-0.057611,0.006733,42.298653,-1.931928,19.842071,4635731572685799400.000000,-0.705935,0.072578,-0.702867,-0.048645,-9.582811,0.666282,-1.544468,0.010918,0.003547,0.008097,37.702797,-20.491389,18.665119,4635727277181632500.000000,-0.554769,0.332238,-0.684117,-0.337392,-9.696812,0.014081,-0.712163,-0.011569,0.006228,-0.018684,41.212193,17.229552,11.538256,4635729103079604200.000000,0.553643,0.409179,0.610743,-0.391209,0
-9.814753,-0.553587,-0.494123,0.000882,-0.059768,0.010868,42.162565,-2.075258,19.813956,4635731572685799400.000000,-0.706100,0.072549,-0.702700,-0.048700,-9.618222,0.692654,-1.549129,0.016813,0.002862,0.008545,37.764114,-20.544314,18.778434,4635727339475149800.000000,-0.554777,0.332182,-0.684150,-0.337366,-9.712959,-0.097270,-0.677608,-0.008200,0.009958,-0.022776,41.212193,17.104834,11.523788,4635729103079604200.000000,0.553603,0.409109,0.610810,-0.391235,0
-9.799634,-0.509800,-0.537126,0.006546,-0.074789,0.008290,41.933777,-1.939194,19.758747,4635731572685799400.000000,-0.706312,0.072505,-0.702490,-0.048731,-9.622606,0.729272,-1.560594,0.018778,0.001688,0.011023,37.823661,-20.366824,18.910003,4635727384555814900.000000,-0.554788,0.332114,-0.684187,-0.337342,-9.737374,-0.051091,-0.722109,-0.006590,0.009794,-0.028823,41.273036,17.232330,11.442666,4635729103079604200.000000,0.553551,0.409027,0.610884,-0.391278,0
-9.717657,-0.463099,-0.461534,0.013259,-0.081483,0.005968,41.918877,-1.675107,19.786855,4635731572685799400.000000,-0.706546,0.072442,-0.702261,-0.048734,-9.585984,0.716328,-1.571583,0.019227,0.002756,0.010959,37.726483,-20.313856,18.839676,4635727384555814900.000000,-0.554796,0.332046,-0.684226,-0.337314,-9.741508,-0.067040,-0.712166,-0.009070,0.011388,-0.031682,41.417247,17.322103,11.334877,4635728924715291600.000000,0.553494,0.408934,0.610971,-0.391320,0
-9.606447,-0.402065,-0.328821,0.013886,-0.063493,0.003577,41.969051,-1.680570,19.842069,4635731572685799400.000000,-0.706726,0.072404,-0.702083,-0.048739,-9.577686,0.688740,-1.586962,0.017368,0.002585,0.012092,37.666921,-20.491372,18.762779,4635727384555814900.000000,-0.554801,0.331979,-0.684264,-0.337295,-9.761786,-0.063106,-0.697891,-0.011388,0.011750,-0.032932,41.515107,17.141873,11.478485,4635728888331239400.000000,0.553438,0.408834,0.611065,-0.391357,0
-9.620984,-0.351108,-0.303054,0.015208,-0.049457,0.000627,42.004318,-1.866376,19.808934,4635731572685799400.000000,-0.706868,0.072360,-0.701947,-0.048714,-9.582811,0.676535,-1.594042,0.016642,0.002136,0.013266,37.721606,-20.593889,18.819417,4635727384555814900.000000,-0.554805,0.331910,-0.684302,-0.337281,-9.755784,-0.030620,-0.665405,-0.018847,0.012637,-0.035774,41.407921,17.102571,11.592693,4635728888331239400.000000,0.553388,0.408711,0.611178,-0.391381,0
-9.712830,-0.319524,-0.282127,0.015327,-0.058443,0.000000,42.019238,-1.881297,19.670971,4635731661311700000.000000,-0.707036,0.072316,-0.701784,-0.048690,-9.575733,0.678486,-1.599170,0.015232,0.002756,0.010960,37.799970,-20.494788,18.803809,4635727384555814900.000000,-0.554808,0.331852,-0.684336,-0.337264,-9.723303,-0.196755,-0.699751,-0.019408,0.013705,-0.034543,41.231032,17.356014,11.457175,4635728888331239400.000000,0.553339,0.408591,0.611292,-0.391398,0
-9.726396,-0.295110,-0.216829,0.009732,-0.060563,0.000441,41.969051,-1.831110,19.556259,4635731787434164200.000000,-0.707208,0.072278,-0.701615,-0.048675,-9.584762,0.740244,-1.613327,0.010789,0.005063,0.010233,37.731642,-20.330964,18.755701,4635727384555814900.000000,-0.554799,0.331810,-0.684368,-0.337256,-9.727231,-0.272490,-0.738442,-0.007695,0.011225,-0.032407,41.129022,17.478720,11.345030,4635728888331239400.000000,0.553278,0.408500,0.611377,-0.391445,0
-9.714960,-0.295882,-0.185244,0.003137,-0.052899,0.002390,42.004312,-1.760591,19.631816,4635731787434164200.000000,-0.707355,0.072273,-0.701465,-0.048700,-9.573783,0.774195,-1.630663,0.005448,0.008267,0.008204,37.560740,-20.214739,18.920458,4635727384555814900.000000,-0.554777,0.331790,-0.684397,-0.337253,-9.729300,-0.260495,-0.754789,-0.008002,0.010681,-0.028496,41.124673,17.290461,11.490669,4635728888331239400.000000,0.553227,0.408417,0.611455,-0.391482,0
-9.744412,-0.302280,-0.160829,-0.000441,-0.045168,0.003391,42.119989,-1.559460,19.814931,4635731743126531100.000000,-0.707479,0.072262,-0.701340,-0.048722,-9.600868,0.726595,-1.635792,0.003204,0.005897,0.008267,37.538486,-20.228388,19.043549,4635727384555814900.000000,-0.554758,0.331771,-0.684417,-0.337260,-9.759705,-0.276625,-0.746724,-0.001451,0.009795,-0.026885,41.136878,17.117306,11.685949,4635728888331239400.000000,0.553169,0.408352,0.611518,-0.391534,0
-9.755851,-0.265663,-0.141453,-0.000628,-0.037759,0.003018,42.248451,-1.451310,19.841907,4635731768649480200.000000,-0.707581,0.072251,-0.701237,-0.048739,-9.631641,0.709979,-1.635792,0.004443,0.001966,0.007755,37.673489,-20.264290,18.873662,4635727384555814900.000000,-0.554753,0.331746,-0.684430,-0.337268,-9.816601,-0.311177,-0.724380,0.005321,0.010500,-0.023156,41.078135,17.161314,11.719108,4635728888331239400.000000,0.553103,0.408313,0.611565,-0.391594,0
-9.741508,-0.254219,-0.134281,-0.001322,-0.034808,0.004273,42.298653,-1.602223,19.732199,4635731894808346600.000000,-0.707674,0.072243,-0.701142,-0.048763,-9.610408,0.741470,-1.678259,0.006579,0.002307,0.005790,37.695748,-20.214745,18.750572,4635727384555814900.000000,-0.554753,0.331723,-0.684443,-0.337265,-9.816824,-0.256577,-0.770917,0.008183,0.010681,-0.021544,41.116386,17.236633,11.475844,4635728888331239400.000000,0.553035,0.408285,0.611605,-0.391656,0
-9.716328,-0.273599,-0.129246,-0.004967,-0.030215,0.004273,42.233187,-1.811125,19.824981,4635731894808346600.000000,-0.707753,0.072249,-0.701060,-0.048800,-9.595019,0.806399,-1.680728,0.010573,0.001347,0.004721,37.709380,-20.178837,18.807189,4635727384555814900.000000,-0.554762,0.331692,-0.684458,-0.337249,-9.814753,-0.163070,-0.761004,0.003224,0.008021,-0.022250,41.319301,17.320004,11.345051,4635728888331239400.000000,0.552981,0.408240,0.611648,-0.391713,0
-9.695574,-0.305942,-0.132143,-0.007477,-0.020162,0.003392,42.104716,-1.939596,19.906622,4635731894808346600.000000,-0.707801,0.072269,-0.701006,-0.048840,-9.623328,0.849388,-1.610667,0.004768,-0.000619,-0.000062,37.844372,-20.320380,18.855307,4635727384555814900.000000,-0.554776,0.331685,-0.684455,-0.337241,-9.764080,-0.156623,-0.746725,-0.002298,0.003930,-0.019771,41.358681,17.405454,11.399412,4635728888331239400.000000,0.552951,0.408181,0.611687,-0.391756,0
-9.747295,-0.377042,-0.171657,-0.005275,-0.018290,0.002577,42.084706,-1.924370,19.728432,4635731850534052900.000000,-0.707844,0.072285,-0.700959,-0.048871,-9.643848,0.819137,-1.631366,-0.004164,-0.004164,-0.005681,37.866660,-20.522054,18.917048,4635727384555814900.000000,-0.554795,0.331710,-0.684422,-0.337250,-9.733446,-0.229638,-0.754786,-0.005865,0.002318,-0.017453,41.226933,17.409830,11.424057,4635728888331239400.000000,0.552934,0.408118,0.611724,-0.391787,0
-9.785304,-0.437325,-0.187394,-0.001696,-0.024567,0.001443,42.162980,-1.795880,19.551226,4635731787434164200.000000,-0.707908,0.072291,-0.700893,-0.048889,-9.573100,0.843005,-1.686564,-0.004552,-0.003933,-0.011810,37.738769,-20.551440,18.958097,4635727384555814900.000000,-0.554822,0.331753,-0.684381,-0.337246,-9.688767,-0.284681,-0.787259,-0.009956,0.000363,-0.011770,41.139188,17.407757,11.507196,4635728888331239400.000000,0.552939,0.408057,0.611753,-0.391799,0
-9.752973,-0.461737,-0.138570,0.001133,-0.018844,-0.001068,42.278610,-1.780879,19.624556,4635731787434164200.000000,-0.707955,0.072296,-0.700844,-0.048889,-9.557145,0.893081,-1.682681,0.001748,-0.004612,-0.015573,37.664973,-20.372086,18.894429,4635727384555814900.000000,-0.554864,0.331792,-0.684343,-0.337216,-9.731136,-0.303111,-0.773215,-0.008908,-0.001773,-0.008022,41.197672,17.346959,11.594720,4635728888331239400.000000,0.552954,0.408004,0.611769,-0.391808,0
-9.696971,-0.481119,-0.145081,0.003392,-0.006280,0.000252,42.407112,-1.866325,19.779616,4635731787434164200.000000,-0.707967,0.072295,-0.700833,-0.048883,-9.632325,0.818467,-1.629974,0.006579,-0.008885,-0.019117,37.709354,-20.264290,18.791644,4635727384555814900.000000,-0.554931,0.331824,-0.684296,-0.337170,-9.751641,-0.193722,-0.769066,-0.011205,-0.001250,-0.005704,41.212193,17.334513,11.609241,4635728888331239400.000000,0.552975,0.407953,0.611787,-0.391804,0
-9.678325,-0.493327,-0.195318,0.001256,0.008363,0.002136,42.391950,-1.810919,19.756540,4635731787434164200.000000,-0.707935,0.072296,-0.700865,-0.048883,-9.632900,0.707350,-1.592097,0.007477,-0.012538,-0.018887,37.794801,-20.405745,18.870809,4635727384555814900.000000,-0.555009,0.331848,-0.684242,-0.337127,-9.733452,-0.140508,-0.728539,-0.015296,-0.002841,-0.002681,41.272985,17.273722,11.457263,4635728888331239400.000000,0.553012,0.407897,0.611802,-0.391787,0
-9.697708,-0.480383,-0.235559,0.001320,0.024696,0.001696,42.228233,-1.594817,19.636682,4635731787434164200.000000,-0.707855,0.072298,-0.700946,-0.048874,-9.600154,0.749208,-1.622326,0.007477,-0.012029,-0.019566,37.830742,-20.416492,19.007606,4635727384555814900.000000,-0.555086,0.331875,-0.684189,-0.337081,-9.739432,-0.144413,-0.730368,-0.018682,-0.005864,-0.000363,41.285439,17.322058,11.345077,4635728888331239400.000000,0.553066,0.407835,0.611812,-0.391760,0
-9.719973,-0.441616,-0.333211,0.004965,0.018655,0.001508,42.127750,-1.531686,19.674767,4635731787434164200.000000,-0.707794,0.072287,-0.701010,-0.048854,-9.602091,0.770329,-1.669215,0.008715,-0.011300,-0.021363,37.823670,-20.250734,19.100124,4635727384555814900.000000,-0.555166,0.331906,-0.684136,-0.337027,-9.761771,-0.176884,-0.742576,-0.017454,-0.009955,0.002660,41.153729,17.334513,11.409523,4635728888331239400.000000,0.553133,0.407776,0.611805,-0.391736,0
-9.716359,-0.447378,-0.315190,0.007037,-0.003773,0.003457,42.198167,-1.609963,19.779609,4635731787434164200.000000,-0.707799,0.072260,-0.701009,-0.048842,-9.628440,0.659796,-1.684622,0.015801,-0.014843,-0.018888,37.818535,-20.228337,19.141209,4635727384555814900.000000,-0.555262,0.331907,-0.684089,-0.336963,-9.715271,-0.183111,-0.754782,-0.018863,-0.008909,0.006750,41.065960,17.324383,11.588215,4635728888331239400.000000,0.553207,0.407727,0.611796,-0.391697,0
-9.645261,-0.476089,-0.127045,0.004208,-0.002319,0.008422,42.298653,-1.660207,19.796790,4635731787434164200.000000,-0.707798,0.072229,-0.701013,-0.048852,-9.629706,0.647662,-1.635123,0.019676,-0.015853,-0.017090,37.783179,-20.455215,19.035139,4635727384555814900.000000,-0.555363,0.331894,-0.684047,-0.336894,-9.694756,-0.314802,-0.726469,-0.013908,-0.009432,0.011023,41.124409,17.261525,11.621448,4635728888331239400.000000,0.553280,0.407699,0.611771,-0.391663,0
-9.589991,-0.461003,0.002878,-0.002892,0.023693,0.017658,42.298653,-1.660207,19.779599,4635731787434164200.000000,-0.707717,0.072196,-0.701094,-0.048903,-9.605293,0.697755,-1.577958,0.016752,-0.014954,-0.015853,37.708006,-20.742369,18.901533,4635727384555814900.000000,-0.555456,0.331885,-0.684005,-0.336834,-9.682548,-0.311417,-0.740497,-0.008386,-0.008727,0.015295,41.199729,17.249062,11.621448,4635728888331239400.000000,0.553349,0.407696,0.611731,-0.391631,0
-9.623038,-0.449523,-0.005755,-0.009865,0.048194,0.025887,42.298653,-1.695405,19.877257,4635731831662224400.000000,-0.707560,0.072166,-0.701250,-0.048992,-9.573809,0.658541,-1.604967,0.018047,-0.018666,-0.014954,37.622557,-20.751267,18.860437,4635727384555814900.000000,-0.555561,0.331865,-0.683958,-0.336778,-9.720986,-0.173509,-0.704136,-0.009250,-0.010318,0.020454,41.212193,17.319963,11.692350,4635728888331239400.000000,0.553432,0.407701,0.611680,-0.391587,0
-9.690526,-0.468909,-0.089053,-0.012190,0.048756,0.029532,42.298653,-1.745659,19.894466,4635731894808346600.000000,-0.707400,0.072132,-0.701407,-0.049098,-9.544259,0.608440,-1.607516,0.020913,-0.018270,-0.014336,37.636077,-20.580375,18.803886,4635727384555814900.000000,-0.555667,0.331838,-0.683916,-0.336715,-9.719172,-0.176875,-0.665436,-0.012272,-0.008909,0.021363,41.212193,17.334513,11.625871,4635728888331239400.000000,0.553519,0.407704,0.611635,-0.391532,0
-9.674728,-0.521325,-0.101253,-0.009739,0.042349,0.030725,42.298653,-1.780842,19.756611,4635731894808346600.000000,-0.707259,0.072086,-0.701546,-0.049203,-9.519845,0.654710,-1.586962,0.017034,-0.016641,-0.014504,37.714458,-20.416549,18.762779,4635727384555814900.000000,-0.555764,0.331822,-0.683872,-0.336659,-9.666432,-0.162846,-0.669332,-0.010158,-0.008545,0.024023,41.202061,17.466233,11.528182,4635728888331239400.000000,0.553605,0.407719,0.611584,-0.391475,0
-9.611536,-0.575903,0.003588,-0.004461,0.062454,0.025322,42.228286,-1.866294,19.686948,4635731894808346600.000000,-0.707062,0.072047,-0.701744,-0.049273,-9.516635,0.717027,-1.594031,0.010794,-0.019564,-0.015573,37.787702,-20.201305,18.812257,4635727384555814900.000000,-0.555862,0.331820,-0.683811,-0.336624,-9.706716,-0.128301,-0.671407,-0.008727,-0.008545,0.026340,41.139196,17.493210,11.592636,4635729066566713300.000000,0.553692,0.407744,0.611526,-0.391416,0
-9.617991,-0.556515,-0.034450,-0.003644,0.080552,0.017217,42.097596,-1.911537,19.831989,4635731894808346600.000000,-0.706814,0.072032,-0.701993,-0.049310,-9.521774,0.711239,-1.592101,0.006690,-0.021981,-0.020352,37.818535,-20.093386,18.848230,4635727384555814900.000000,-0.555967,0.331838,-0.683733,-0.336592,-9.696830,-0.182863,-0.651144,-0.006772,-0.010318,0.029363,41.197662,17.290578,11.690293,4635729103079604200.000000,0.553785,0.407778,0.611456,-0.391358,0
-9.668263,-0.534259,-0.175928,-0.003393,0.058627,0.008861,42.084654,-1.939528,19.906699,4635731894808346600.000000,-0.706631,0.072037,-0.702175,-0.049330,-9.507640,0.688754,-1.579895,0.002249,-0.021813,-0.023499,37.818535,-20.142858,18.791691,4635727384555814900.000000,-0.556071,0.331875,-0.683644,-0.336565,-9.662284,-0.205450,-0.646992,-0.002863,-0.009795,0.034341,41.283115,17.127482,11.787952,4635729103079604200.000000,0.553879,0.407834,0.611372,-0.391298,0
-9.628065,-0.477538,-0.157987,-0.002136,0.040778,0.002325,42.092577,-1.959658,19.728643,4635731894808346600.000000,-0.706503,0.072054,-0.702302,-0.049333,-9.483226,0.711882,-1.574755,-0.001237,-0.021363,-0.025354,37.868004,-20.228306,18.644569,4635727384555814900.000000,-0.556171,0.331926,-0.683549,-0.336542,-9.656056,-0.258178,-0.667253,0.003182,-0.004295,0.039681,41.297646,17.163353,11.723516,4635729103079604200.000000,0.553956,0.407927,0.611282,-0.391231,0
-9.590701,-0.402138,-0.122074,-0.001257,0.040840,0.000629,42.047321,-1.916562,19.636646,4635731894808346600.000000,-0.706375,0.072074,-0.702429,-0.049327,-9.494146,0.697110,-1.595956,-0.003991,-0.022600,-0.027940,37.861586,-20.264290,18.623996,4635727384555814900.000000,-0.556274,0.331989,-0.683443,-0.336524,-9.686447,-0.278693,-0.671407,0.011364,-0.000545,0.041476,41.358428,17.307508,11.544818,4635729103079604200.000000,0.554014,0.408050,0.611184,-0.391175,0
-9.659620,-0.336082,-0.117051,-0.005714,0.042286,-0.000440,42.054504,-1.876376,19.867115,4635731894808346600.000000,-0.706241,0.072108,-0.702560,-0.049330,-9.523698,0.720864,-1.604312,-0.009668,-0.023499,-0.030695,37.781287,-20.264290,18.714576,4635727384555814900.000000,-0.556376,0.332072,-0.683323,-0.336516,-9.743335,-0.250376,-0.681539,0.019023,-0.000886,0.043431,41.310102,17.263594,11.592632,4635729103079604200.000000,0.554062,0.408195,0.611070,-0.391134,0
-9.742210,-0.257815,-0.114890,-0.018721,0.039460,-0.002387,42.054504,-1.818903,20.072535,4635731894808346600.000000,-0.706112,0.072199,-0.702677,-0.049379,-9.562241,0.721535,-1.599170,-0.016527,-0.024736,-0.032663,37.695838,-20.264290,18.750572,4635727384555814900.000000,-0.556474,0.332175,-0.683189,-0.336525,-9.773973,-0.152986,-0.663356,0.020295,-0.000182,0.043794,41.297646,17.188285,11.771307,4635729103079604200.000000,0.554107,0.408344,0.610955,-0.391095,0
-9.803243,-0.207526,-0.112029,-0.028712,0.045107,-0.005152,42.084641,-1.788767,20.089827,4635731894808346600.000000,-0.705964,0.072313,-0.702810,-0.049432,-9.625204,0.695822,-1.599170,-0.017990,-0.026254,-0.033113,37.659840,-20.264290,18.694048,4635727384555814900.000000,-0.556576,0.332281,-0.683048,-0.336539,-9.828773,-0.124153,-0.669328,0.016750,0.000886,0.042022,41.358419,17.115044,11.642501,4635729103079604200.000000,0.554152,0.408483,0.610851,-0.391048,0
-9.874315,-0.207526,-0.127787,-0.038824,0.058119,-0.007727,42.198047,-1.710510,20.027328,4635731894808346600.000000,-0.705776,0.072465,-0.702978,-0.049502,-9.698439,0.695822,-1.599170,-0.018945,-0.026086,-0.033113,37.659840,-20.313736,18.659976,4635727384555814900.000000,-0.556675,0.332389,-0.682906,-0.336556,-9.859424,-0.101817,-0.701793,0.017795,0.001068,0.038999,41.299990,17.102571,11.376282,4635729103079604200.000000,0.554190,0.408617,0.610750,-0.391011,0
-9.964782,-0.202505,-0.211067,-0.049634,0.054355,-0.007856,42.333796,-1.695349,20.025162,4635731894808346600.000000,-0.705595,0.072649,-0.703133,-0.049604,-9.715174,0.625188,-1.620360,-0.019677,-0.024399,-0.030640,37.709284,-20.300298,18.771070,4635727384555814900.000000,-0.556766,0.332494,-0.682770,-0.336578,-9.823072,-0.097659,-0.718157,0.015500,0.001068,0.034909,41.285439,17.102571,11.328470,4635729103079604200.000000,0.554225,0.408735,0.610661,-0.390977,0
-10.012239,-0.215398,-0.243464,-0.057800,0.046310,-0.004902,42.278691,-1.810916,19.997211,4635731850655320100.000000,-0.705434,0.072863,-0.703262,-0.049758,-9.704885,0.616132,-1.628728,-0.014900,-0.025354,-0.026368,37.837124,-20.214841,18.961254,4635727260288849900.000000,-0.556859,0.332575,-0.682645,-0.336597,-9.824881,-0.117916,-0.760750,0.007864,0.002841,0.032408,41.224667,17.031673,11.409497,4635729103079604200.000000,0.554265,0.408832,0.610592,-0.390927,0
-9.987826,-0.244148,-0.207526,-0.068480,0.046429,-0.004273,41.997258,-1.904355,19.987048,4635731787434164200.000000,-0.705270,0.073093,-0.703391,-0.049932,-9.704885,0.639930,-1.630647,-0.008042,-0.025468,-0.025185,37.903988,-20.228273,18.881117,4635727169807450100.000000,-0.556961,0.332636,-0.682531,-0.336600,-9.826960,-0.020800,-0.769066,0.001092,0.003204,0.026728,41.212193,17.017120,11.507149,4635729103079604200.000000,0.554305,0.408900,0.610545,-0.390872,0
-9.978468,-0.249167,-0.252696,-0.076966,0.047568,-0.003394,41.910734,-1.834090,20.119839,4635731787434164200.000000,-0.705100,0.073344,-0.703521,-0.050131,-9.697825,0.655968,-1.628731,-0.003487,-0.024567,-0.023782,37.762767,-20.264290,18.642741,4635727169807450100.000000,-0.557065,0.332684,-0.682427,-0.336592,-9.806708,-0.030378,-0.758940,-0.004430,0.001432,0.022091,41.141313,17.077876,11.442781,4635729103079604200.000000,0.554353,0.408940,0.610511,-0.390817,0
-9.995692,-0.266392,-0.327429,-0.082746,0.032377,-0.002575,42.089633,-1.733451,20.267814,4635731787434164200.000000,-0.704972,0.073604,-0.703606,-0.050352,-9.678556,0.650224,-1.588279,-0.000283,-0.025185,-0.018724,37.659840,-20.214862,18.668230,4635727169807450100.000000,-0.557167,0.332709,-0.682333,-0.336587,-9.772168,-0.087251,-0.726482,-0.008885,-0.000704,0.017819,41.197621,17.029610,11.507135,4635729103079604200.000000,0.554406,0.408956,0.610486,-0.390763,0
-9.969931,-0.290805,-0.301668,-0.086520,0.009437,-0.003204,42.104835,-1.768573,20.285187,4635731787434164200.000000,-0.704911,0.073872,-0.703623,-0.050589,-9.640022,0.655966,-1.541367,0.001686,-0.023164,-0.016640,37.801044,-20.129416,18.750572,4635727169807450100.000000,-0.557264,0.332727,-0.682250,-0.336578,-9.755797,-0.067282,-0.740488,-0.007841,-0.003726,0.012660,41.353955,17.088000,11.675674,4635729103079604200.000000,0.554457,0.408956,0.610462,-0.390730,0
-9.857220,-0.300168,-0.214043,-0.088715,0.003073,-0.003204,42.054504,-1.854025,20.232684,4635731787434164200.000000,-0.704867,0.074146,-0.703620,-0.050836,-9.612375,0.671407,-1.490632,-0.001570,-0.019510,-0.016473,38.002809,-20.142796,18.588221,4635727293982200800.000000,-0.557346,0.332757,-0.682171,-0.336574,-9.753716,-0.040788,-0.694029,-0.011021,-0.003387,0.010864,41.372974,17.234191,11.544908,4635729103079604200.000000,0.554509,0.408944,0.610446,-0.390692,0
-9.763079,-0.292978,-0.155853,-0.095373,0.010989,-0.004521,42.054504,-1.869237,20.274992,4635731787434164200.000000,-0.704798,0.074445,-0.703638,-0.051095,-9.593108,0.664348,-1.464888,-0.007361,-0.015688,-0.018493,38.025479,-20.270604,18.639216,4635727384555814900.000000,-0.557411,0.332812,-0.682089,-0.336576,-9.733464,-0.036622,-0.683615,-0.013522,0.002111,0.008910,41.300012,17.322021,11.359699,4635729103079604200.000000,0.554548,0.408931,0.610451,-0.390642,0
-9.736492,-0.328090,-0.124249,-0.102600,0.014706,-0.004653,41.989297,-1.818903,20.325327,4635731787434164200.000000,-0.704716,0.074766,-0.703666,-0.051374,-9.561635,0.673317,-1.479006,-0.013319,-0.014504,-0.021530,37.897676,-20.344592,18.819248,4635727384555814900.000000,-0.557469,0.332890,-0.681998,-0.336587,-9.709051,-0.036622,-0.683615,-0.011228,0.002319,0.002344,41.295563,17.202893,11.490462,4635729103079604200.000000,0.554572,0.408907,0.610463,-0.390613,0
-9.699205,-0.373414,-0.104851,-0.107941,0.010623,0.013225,41.895809,-1.889127,20.250087,4635731787434164200.000000,-0.704640,0.075049,-0.703687,-0.051722,-9.532073,0.641266,-1.503419,-0.014787,-0.013719,-0.021196,37.873091,-20.152114,18.683984,4635727384555814900.000000,-0.557523,0.332973,-0.681907,-0.336601,-9.694763,-0.026499,-0.683615,-0.014225,0.000365,0.000182,41.307768,16.983479,11.756618,4635729103079604200.000000,0.554603,0.408867,0.610480,-0.390585,0
-9.661072,-0.326099,-0.087628,-0.108015,0.022837,0.020328,41.996117,-2.060022,20.147231,4635731787434164200.000000,-0.704527,0.075317,-0.703744,-0.052091,-9.542946,0.645656,-1.534890,-0.013886,-0.012200,-0.020912,37.946330,-19.958533,18.442336,4635727384555814900.000000,-0.557572,0.333055,-0.681821,-0.336611,-9.702801,-0.004169,-0.693737,-0.016726,0.002657,-0.003543,41.238992,16.943876,11.733700,4635729103079604200.000000,0.554626,0.408816,0.610512,-0.390555,0
-9.708379,-0.293635,-0.188578,-0.104049,0.025995,-0.001946,42.069753,-2.090507,20.189524,4635731787434164200.000000,-0.704410,0.075640,-0.703805,-0.052382,-9.565453,0.636124,-1.543284,-0.012034,-0.011132,-0.021363,37.984289,-20.021275,18.536350,4635727384555814900.000000,-0.557622,0.333135,-0.681740,-0.336614,-9.684640,-0.050614,-0.705945,-0.013547,-0.000339,-0.006044,41.285138,16.943876,11.395178,4635729103079604200.000000,0.554647,0.408761,0.610537,-0.390545,0
-9.770937,-0.359687,-0.273782,-0.103362,-0.000629,-0.001888,41.903863,-1.954705,20.279990,4635731787434164200.000000,-0.704371,0.075952,-0.703788,-0.052676,-9.591774,0.603314,-1.531076,-0.007594,-0.010681,-0.018276,37.940044,-20.142782,18.770969,4635727384555814900.000000,-0.557673,0.333197,-0.681670,-0.336610,-9.700714,-0.071159,-0.738394,-0.013703,-0.000183,-0.009951,41.358376,16.943876,11.166525,4635729103079604200.000000,0.554662,0.408696,0.610569,-0.390542,0
-9.778130,-0.392816,-0.153682,-0.102790,-0.001316,0.000439,41.845454,-1.939452,20.297422,4635731787434164200.000000,-0.704334,0.076254,-0.703770,-0.052975,-9.593115,0.569940,-1.525925,-0.004723,-0.008212,-0.016640,37.903988,-20.228228,18.742393,4635727384555814900.000000,-0.557718,0.333251,-0.681613,-0.336598,-9.715007,-0.093487,-0.704166,-0.010343,-0.000886,-0.012453,41.502468,17.014725,11.295093,4635729103079604200.000000,0.554669,0.408631,0.610598,-0.390555,0
-9.778130,-0.363390,-0.141476,-0.102047,-0.001450,0.001068,41.890796,-1.989807,20.159665,4635731743340266500.000000,-0.704297,0.076553,-0.703752,-0.053275,-9.589867,0.591664,-1.540036,-0.003038,-0.008261,-0.015856,37.953375,-20.257235,18.495795,4635727384555814900.000000,-0.557765,0.333299,-0.681558,-0.336584,-9.747461,-0.117904,-0.685699,-0.006070,-0.001068,-0.011046,41.387869,17.282391,11.328470,4635729103079604200.000000,0.554671,0.408580,0.610617,-0.390576,0
-9.783143,-0.366873,-0.129268,-0.098708,0.000191,0.001507,41.853523,-1.954715,20.004452,4635731680059981800.000000,-0.704257,0.076841,-0.703739,-0.053566,-9.587964,0.601412,-1.543285,-0.001519,-0.008379,-0.014954,38.038826,-20.209751,18.485026,4635727384555814900.000000,-0.557813,0.333340,-0.681507,-0.336567,-9.753716,-0.091709,-0.683615,-0.012426,-0.001954,-0.011567,41.227101,17.395242,11.247498,4635729192107154400.000000,0.554685,0.408511,0.610646,-0.390583,0
-9.800363,-0.437931,-0.142124,-0.098022,-0.001945,0.003452,41.840431,-1.939442,19.946898,4635731680059981800.000000,-0.704222,0.077120,-0.703721,-0.053860,-9.596922,0.628286,-1.524022,-0.002920,-0.006242,-0.016806,38.018448,-20.080065,18.616847,4635727384555814900.000000,-0.557855,0.333394,-0.681456,-0.336547,-9.743594,-0.186665,-0.673493,-0.007687,-0.000365,-0.011750,41.210107,17.276181,11.392752,4635729210453786600.000000,0.554687,0.408455,0.610671,-0.390600,0
-9.809741,-0.508342,-0.180927,-0.087802,0.003373,0.004025,41.953764,-2.024888,19.986990,4635731680059981800.000000,-0.704174,0.077377,-0.703720,-0.054132,-9.607226,0.645091,-1.499609,-0.004890,-0.005958,-0.015689,37.934905,-20.007935,18.490663,4635727384555814900.000000,-0.557893,0.333449,-0.681405,-0.336534,-9.781988,-0.197406,-0.691647,-0.001096,0.000886,-0.007322,41.283034,17.188340,11.577931,4635729210453786600.000000,0.554682,0.408427,0.610680,-0.390622,0
-9.827603,-0.557172,-0.230400,-0.070576,0.008433,0.002136,42.054504,-2.075258,20.124741,4635731680059981800.000000,-0.704117,0.077582,-0.703738,-0.054340,-9.593119,0.606570,-1.482250,-0.004106,-0.003323,-0.012652,37.861665,-20.106686,18.428572,4635727384555814900.000000,-0.557919,0.333497,-0.681365,-0.336523,-9.759982,-0.175081,-0.705941,-0.000885,0.002839,-0.006409,41.236932,17.175816,11.690190,4635729210453786600.000000,0.554672,0.408406,0.610692,-0.390638,0
-9.858571,-0.611010,-0.270748,-0.060390,-0.004879,0.003890,41.954285,-2.040182,20.320050,4635731680059981800.000000,-0.704103,0.077749,-0.703719,-0.054526,-9.611026,0.607117,-1.498257,-0.006290,0.000166,-0.012984,37.823688,-20.228214,18.688466,4635727384555814900.000000,-0.557933,0.333557,-0.681330,-0.336512,-9.733481,-0.201255,-0.718147,0.004243,-0.000337,-0.003753,41.153582,17.104996,11.636079,4635729210453786600.000000,0.554667,0.408398,0.610684,-0.390667,0
-9.831322,-0.641979,-0.256355,-0.054857,-0.016270,0.009918,41.810356,-2.024899,20.400102,4635731680059981800.000000,-0.704122,0.077878,-0.703671,-0.054716,-9.645747,0.622578,-1.520771,-0.007311,0.001685,-0.011417,37.867906,-20.264290,18.855283,4635727384555814900.000000,-0.557940,0.333616,-0.681299,-0.336505,-9.749535,-0.227760,-0.710120,0.007996,-0.000183,-0.001434,41.068131,17.090364,11.388758,4635729210453786600.000000,0.554658,0.408405,0.610666,-0.390700,0
-9.797527,-0.624749,-0.251337,-0.047070,-0.022549,0.016710,41.910717,-2.145511,20.229308,4635731680059981800.000000,-0.704161,0.077965,-0.703608,-0.054908,-9.634899,0.573212,-1.511821,-0.005792,0.001519,-0.007762,37.854621,-20.214923,18.740549,4635727384555814900.000000,-0.557943,0.333661,-0.681274,-0.336503,-9.753716,-0.231941,-0.718146,0.011201,-0.000885,0.001588,40.972561,17.282586,11.097871,4635729210453786600.000000,0.554651,0.408426,0.610636,-0.390735,0
-9.780302,-0.595317,-0.219060,-0.034253,-0.021376,0.020105,42.119734,-2.246162,20.056763,4635731680059981800.000000,-0.704198,0.078017,-0.703551,-0.055085,-9.619433,0.551230,-1.515615,-0.002872,0.003536,-0.004558,37.818535,-20.129471,18.652912,4635727384555814900.000000,-0.557941,0.333694,-0.681263,-0.336497,-9.763831,-0.221825,-0.730353,0.011750,-0.001068,0.003907,41.158152,17.393115,11.280361,4635729210453786600.000000,0.554647,0.408454,0.610601,-0.390766,0
-9.775956,-0.568731,-0.228260,-0.023631,-0.007170,0.020924,42.147984,-2.276262,20.096896,4635731680059981800.000000,-0.704198,0.078029,-0.703539,-0.055218,-9.605331,0.533335,-1.525925,0.000166,0.004724,-0.001970,37.818535,-20.044026,18.709324,4635727384555814900.000000,-0.557936,0.333714,-0.681263,-0.336487,-9.735576,-0.239964,-0.702098,0.017945,-0.001068,0.007813,41.341604,17.286372,11.561126,4635729210453786600.000000,0.554639,0.408506,0.610550,-0.390804,0
-9.815425,-0.566558,-0.338135,-0.013958,-0.012234,0.021612,41.989278,-2.354529,20.119301,4635731680059981800.000000,-0.704216,0.078010,-0.703515,-0.055327,-9.595019,0.519762,-1.532976,0.002919,0.003039,0.001400,37.867891,-20.007935,18.637759,4635727384555814900.000000,-0.557934,0.333715,-0.681267,-0.336479,-9.739414,-0.183463,-0.716050,0.020997,0.002472,0.009430,41.310205,17.190468,11.538441,4635729210453786600.000000,0.554619,0.408575,0.610499,-0.390840,0
-9.836326,-0.548667,-0.367731,-0.002459,-0.031093,0.022182,41.961020,-2.404858,20.109101,4635731724181946400.000000,-0.704292,0.077952,-0.703439,-0.055410,-9.602070,0.531969,-1.552234,0.007974,0.005221,0.005055,37.903988,-20.057290,18.562304,4635727384555814900.000000,-0.557929,0.333697,-0.681289,-0.336463,-9.781964,-0.150676,-0.710123,0.020478,0.000550,0.010498,41.358331,17.115132,11.523788,4635729210453786600.000000,0.554606,0.408643,0.610442,-0.390876,0
-9.799707,-0.507696,-0.267241,0.001449,-0.033875,0.019417,42.089611,-2.369753,20.241857,4635731787434164200.000000,-0.704379,0.077888,-0.703354,-0.055474,-9.614276,0.551226,-1.562548,0.010065,0.006860,0.007643,37.953338,-20.093386,18.673210,4635727384555814900.000000,-0.557918,0.333670,-0.681320,-0.336443,-9.780223,-0.095919,-0.718143,0.019410,0.000000,0.010681,41.310206,17.163255,11.523788,4635729210453786600.000000,0.554597,0.408707,0.610385,-0.390909,0
-9.753050,-0.520567,-0.185286,-0.000629,-0.020501,0.016403,42.039638,-2.319407,20.234374,4635731787434164200.000000,-0.704426,0.077842,-0.703307,-0.055530,-9.626483,0.547442,-1.541400,0.008380,0.004558,0.009779,38.031736,-20.044041,18.806966,4635727384555814900.000000,-0.557908,0.333637,-0.681348,-0.336437,-9.788243,-0.065226,-0.730350,0.013917,-0.000885,0.008912,41.024599,17.165703,11.523788,4635729210453786600.000000,0.554597,0.408753,0.610339,-0.390934,0
-9.717093,-0.549333,-0.185948,0.004388,-0.005035,0.013886,41.895809,-2.354510,20.068972,4635731787434164200.000000,-0.704430,0.077793,-0.703306,-0.055560,-9.603447,0.572368,-1.532974,0.007477,0.005055,0.011298,38.112023,-20.106612,18.798891,4635727384555814900.000000,-0.557894,0.333603,-0.681377,-0.336436,-9.760000,-0.081262,-0.732444,0.011048,-0.000183,0.010315,40.968044,17.234397,11.523788,4635729210453786600.000000,0.554602,0.408797,0.610296,-0.390947,0
-9.712080,-0.554346,-0.212539,0.013752,-0.005702,0.013009,42.061239,-2.404858,20.184271,4635731787434164200.000000,-0.704438,0.077732,-0.703304,-0.055573,-9.561670,0.591116,-1.545180,0.005627,0.007642,0.011750,38.056526,-20.228167,18.650027,4635727384555814900.000000,-0.557869,0.333576,-0.681410,-0.336438,-9.713265,-0.156240,-0.732444,0.008912,-0.005309,0.009797,41.170295,17.249062,11.523788,4635729210453786600.000000,0.554623,0.408827,0.610246,-0.390965,0
-9.674804,-0.551513,-0.204692,0.018159,-0.014325,0.011750,42.333749,-2.334667,20.384837,4635731787434164200.000000,-0.704474,0.077654,-0.703277,-0.055568,-9.553235,0.621187,-1.536247,0.001806,0.009162,0.010517,37.848513,-20.214964,18.454719,4635727384555814900.000000,-0.557836,0.333563,-0.681439,-0.336446,-9.694774,-0.150681,-0.702110,0.008545,-0.006409,0.013152,41.272862,17.380508,11.513677,4635729210453786600.000000,0.554653,0.408863,0.610189,-0.390975,0
-9.646681,-0.522086,-0.198151,0.018597,-0.010567,0.011311,42.313918,-2.198862,20.354980,4635731787434164200.000000,-0.704499,0.077577,-0.703262,-0.055557,-9.579536,0.675178,-1.540018,-0.001233,0.008997,0.008997,37.695967,-20.228162,18.484885,4635727384555814900.000000,-0.557801,0.333561,-0.681462,-0.336458,-9.682567,-0.156600,-0.675600,0.006776,-0.005524,0.014771,41.214660,17.539201,11.511581,4635729210453786600.000000,0.554686,0.408900,0.610133,-0.390976,0
-9.713373,-0.485467,-0.254819,0.024489,-0.003395,0.009804,42.148042,-2.183588,20.204789,4635731787434164200.000000,-0.704505,0.077478,-0.703269,-0.055513,-9.580928,0.653549,-1.564431,-0.002753,0.009778,0.009778,37.751431,-20.264290,18.785873,4635727384555814900.000000,-0.557761,0.333562,-0.681486,-0.336476,-9.690583,-0.189033,-0.681519,0.008179,-0.002686,0.015839,41.139314,17.434994,11.521693,4635729210453786600.000000,0.554711,0.408947,0.610080,-0.390973,0
-9.828260,-0.443829,-0.345289,0.035992,-0.012225,0.008984,42.019413,-2.233955,20.114318,4635731787434164200.000000,-0.704542,0.077346,-0.703253,-0.055435,-9.577648,0.615533,-1.574755,-0.000123,0.011298,0.012531,37.818535,-20.165672,18.945890,4635727384555814900.000000,-0.557717,0.333551,-0.681520,-0.336491,-9.743229,-0.266089,-0.663394,0.013853,-0.000367,0.019561,41.197512,17.215664,11.523788,4635729210453786600.000000,0.554727,0.409021,0.610017,-0.390972,0
-9.880154,-0.400014,-0.367757,0.040781,-0.030651,0.008736,42.004139,-2.238967,20.016664,4635731787434164200.000000,-0.704634,0.077197,-0.703184,-0.055350,-9.610989,0.596282,-1.588844,0.003369,0.009900,0.014502,37.867846,-20.093386,18.833182,4635727446516336600.000000,-0.557678,0.333524,-0.681559,-0.336502,-9.784044,-0.210003,-0.659200,0.017608,0.000885,0.019410,41.343620,17.115158,11.442912,4635729210453786600.000000,0.554733,0.409105,0.609951,-0.390979,0
-9.811282,-0.343348,-0.282311,0.037329,-0.034124,0.006161,42.019423,-2.206070,20.079383,4635731787434164200.000000,-0.704736,0.077064,-0.703103,-0.055267,-9.617555,0.607085,-1.578040,0.004273,0.009778,0.014954,37.903988,-20.142688,18.701269,4635727491929997300.000000,-0.557641,0.333494,-0.681600,-0.336512,-9.830776,-0.033565,-0.699638,0.011966,0.001953,0.017457,41.431547,17.163229,11.496897,4635729210453786600.000000,0.554743,0.409173,0.609899,-0.390974,0
-9.753716,-0.338082,-0.216906,0.034619,-0.025714,0.001642,41.938983,-2.113422,20.327257,4635731787434164200.000000,-0.704813,0.076952,-0.703046,-0.055174,-9.607226,0.636663,-1.583676,0.006121,0.009449,0.015570,37.953289,-20.228137,18.665119,4635727491929997300.000000,-0.557606,0.333457,-0.681643,-0.336518,-9.778517,-0.060650,-0.697921,0.008913,0.000367,0.016206,41.383485,17.175816,11.592448,4635729210453786600.000000,0.554759,0.409229,0.609852,-0.390967,0
-9.778770,-0.422888,-0.210351,0.036126,-0.011582,-0.003013,41.895809,-2.098128,20.360029,4635731743358440400.000000,-0.704850,0.076862,-0.703027,-0.055068,-9.628357,0.646992,-1.578039,0.006861,0.010394,0.015406,37.989441,-20.264290,18.721467,4635727429976910800.000000,-0.557570,0.333421,-0.681689,-0.336520,-9.786139,-0.154109,-0.716038,0.013852,0.000000,0.013369,41.370892,17.115167,11.528376,4635729210453786600.000000,0.554764,0.409288,0.609800,-0.390979,0
-9.849823,-0.441654,-0.267011,0.035193,-0.005643,-0.006026,41.925869,-2.218645,20.212002,4635731680059981800.000000,-0.704869,0.076788,-0.703024,-0.054957,-9.650891,0.675163,-1.583675,0.007641,0.008668,0.015570,37.940142,-20.264290,18.762779,4635727384555814900.000000,-0.557540,0.333380,-0.681733,-0.336523,-9.800445,-0.079930,-0.730345,0.013185,0.001769,0.011933,41.431539,17.102571,11.359959,4635729210453786600.000000,0.554763,0.409344,0.609756,-0.390990,0
-9.880166,-0.417240,-0.312383,0.030291,-0.013311,-0.008107,41.938995,-2.354473,20.199509,4635731680059981800.000000,-0.704910,0.076725,-0.702998,-0.054849,-9.641972,0.702864,-1.599170,0.007929,0.006409,0.015406,37.812442,-20.264290,18.706443,4635727384555814900.000000,-0.557516,0.333335,-0.681771,-0.336528,-9.772224,-0.040823,-0.732444,0.006627,0.003021,0.009097,41.383494,17.163213,11.409326,4635729210453786600.000000,0.554765,0.409380,0.609730,-0.390989,0
-9.836347,-0.387817,-0.305185,0.026019,-0.015775,-0.006600,41.895809,-2.334729,20.259281,4635731680059981800.000000,-0.704957,0.076669,-0.702964,-0.054758,-9.631641,0.722113,-1.563960,0.003164,0.008874,0.014338,37.787543,-20.214995,18.714414,4635727384555814900.000000,-0.557481,0.333308,-0.681807,-0.336540,-9.755816,-0.056836,-0.722338,0.000919,0.000551,0.005892,41.239503,17.175816,11.587836,4635729210453786600.000000,0.554778,0.409391,0.609713,-0.390985,0
-9.804733,-0.341175,-0.305185,0.022184,-0.015639,-0.005779,41.925865,-2.168831,20.166920,4635731680059981800.000000,-0.705002,0.076627,-0.702930,-0.054686,-9.617559,0.739485,-1.559256,-0.002464,0.008217,0.012038,37.917112,-20.178837,18.757613,4635727384555814900.000000,-0.557442,0.333300,-0.681831,-0.336564,-9.753716,-0.081250,-0.710130,0.000000,0.000884,0.002688,41.272834,17.115176,11.459741,4635729210453786600.000000,0.554787,0.409393,0.609705,-0.390985,0
-9.800354,-0.300177,-0.305185,0.021609,-0.019911,-0.006409,41.969051,-2.110315,19.969435,4635731680059981800.000000,-0.705059,0.076589,-0.702882,-0.054617,-9.600186,0.674246,-1.567714,-0.006121,0.006409,0.009449,38.080967,-20.221081,18.762779,4635727384555814900.000000,-0.557408,0.333306,-0.681841,-0.336595,-9.753716,-0.085452,-0.718136,0.000000,0.002837,0.001252,41.416824,17.041932,11.183570,4635729210453786600.000000,0.554788,0.409393,0.609703,-0.390986,0
-9.784709,-0.272949,-0.290164,0.021309,-0.020679,-0.004218,41.898951,-2.160710,19.901502,4635731680059981800.000000,-0.705118,0.076537,-0.702834,-0.054547,-9.595019,0.657780,-1.590710,-0.005629,0.004561,0.007313,38.155176,-20.301366,18.706454,4635727384555814900.000000,-0.557382,0.333313,-0.681845,-0.336621,-9.733504,-0.115768,-0.710131,0.000000,0.004973,0.000184,41.373395,17.019222,11.133152,4635729210453786600.000000,0.554782,0.409395,0.609708,-0.390985,0
-9.741508,-0.244148,-0.253545,0.014654,-0.015092,-0.000630,41.833192,-2.090627,20.034194,4635731680059981800.000000,-0.705158,0.076494,-0.702802,-0.054503,-9.580940,0.690654,-1.604338,-0.001809,0.003204,0.007641,38.104025,-20.246017,18.721437,4635727384555814900.000000,-0.557366,0.333309,-0.681852,-0.336640,-9.719196,-0.132179,-0.697924,0.000000,0.002688,0.000000,41.358681,17.148487,11.294835,4635729210453786600.000000,0.554782,0.409392,0.609708,-0.390988,0
-9.736503,-0.244148,-0.241949,0.006548,-0.006741,0.000438,42.018716,-1.989807,20.062148,4635731680059981800.000000,-0.705170,0.076471,-0.702794,-0.054482,-9.584683,0.646548,-1.606209,0.000000,0.003204,0.007929,38.111957,-20.031016,18.755740,4635727384555814900.000000,-0.557351,0.333300,-0.681861,-0.336654,-9.747405,-0.144385,-0.675614,0.001768,0.003904,0.000000,41.358681,17.246545,11.247638,4635729032707899400.000000,0.554775,0.409396,0.609707,-0.390994,0
-9.749320,-0.229133,-0.276375,0.001260,-0.004134,0.000192,42.178167,-1.989807,19.946898,4635731680059981800.000000,-0.705174,0.076466,-0.702791,-0.054476,-9.616136,0.631487,-1.583221,0.004311,0.000741,0.010557,38.148136,-19.922482,18.750572,4635727384555814900.000000,-0.557345,0.333271,-0.681875,-0.336665,-9.733508,-0.136385,-0.701718,0.003904,0.004273,0.000000,41.298060,17.190541,11.230811,4635728995705421800.000000,0.554764,0.409405,0.609705,-0.391005,0
-9.758109,-0.227546,-0.300180,-0.003066,-0.015990,-0.003258,42.027648,-2.024843,20.026979,4635731768108357600.000000,-0.705211,0.076481,-0.702752,-0.054476,-9.596450,0.639954,-1.562548,0.005630,-0.001068,0.010354,37.958103,-20.021017,18.750572,4635727384555814900.000000,-0.557347,0.333236,-0.681886,-0.336675,-9.719197,-0.083763,-0.687822,-0.001916,0.006925,-0.003536,41.285439,17.115193,11.392471,4635728995705421800.000000,0.554750,0.409396,0.609724,-0.391004,0
-9.704282,-0.266363,-0.237937,-0.012293,-0.016196,-0.007722,41.918627,-2.110284,20.147219,4635731894808346600.000000,-0.705247,0.076538,-0.702709,-0.054491,-9.584680,0.648860,-1.562548,0.001809,0.000163,0.006698,37.684820,-20.241175,18.806872,4635727384555814900.000000,-0.557345,0.333222,-0.681889,-0.336685,-9.777708,-0.042937,-0.703820,-0.001437,0.004825,-0.007808,41.295541,17.102571,11.587770,4635728995705421800.000000,0.554734,0.409374,0.609744,-0.391018,0
-9.688275,-0.270765,-0.183710,-0.022291,0.006374,-0.009613,42.004071,-2.160710,20.114400,4635731894808346600.000000,-0.705214,0.076635,-0.702729,-0.054523,-9.616130,0.750678,-1.555511,-0.001231,0.000452,0.005956,37.720292,-20.251226,18.742679,4635727384555814900.000000,-0.557340,0.333218,-0.681888,-0.336701,-9.800440,-0.036622,-0.718132,-0.003720,0.008692,-0.010313,41.297646,17.163185,11.611346,4635728995705421800.000000,0.554708,0.409346,0.609782,-0.391026,0
-9.772117,-0.271362,-0.284762,-0.029768,0.007023,-0.009613,42.019489,-2.090680,20.051761,4635731894808346600.000000,-0.705176,0.076765,-0.702748,-0.054588,-9.624606,0.740508,-1.557375,-0.005830,0.001847,0.003331,37.867783,-20.178837,18.665119,4635727384555814900.000000,-0.557327,0.333234,-0.681879,-0.336723,-9.772242,-0.087128,-0.689934,-0.003389,0.008729,-0.012449,41.156232,17.236423,11.538533,4635729173399773200.000000,0.554677,0.409314,0.609823,-0.391039,0
-9.856376,-0.317984,-0.358424,-0.034181,-0.016229,-0.006550,41.934043,-1.989807,19.924524,4635731850817531900.000000,-0.705204,0.076891,-0.702699,-0.054679,-9.647572,0.634372,-1.576617,-0.006083,0.003820,0.002299,37.812538,-20.228080,18.770639,4635727384555814900.000000,-0.557310,0.333256,-0.681874,-0.336740,-9.765923,-0.067360,-0.764411,-0.005856,0.005010,-0.014585,40.924751,17.380356,11.523788,4635729210453786600.000000,0.554657,0.409265,0.609863,-0.391057,0
-9.828572,-0.349013,-0.284588,-0.034181,-0.030590,-0.001261,41.883602,-2.059825,19.756580,4635731787434164200.000000,-0.705273,0.076989,-0.702610,-0.054782,-9.661229,0.654440,-1.572893,-0.002426,0.003657,0.003820,37.885986,-20.215046,18.855265,4635727384555814900.000000,-0.557297,0.333266,-0.681875,-0.336750,-9.755824,-0.061037,-0.750976,-0.010827,0.000738,-0.014070,40.549314,17.660241,11.614683,4635729210453786600.000000,0.554657,0.409198,0.609900,-0.391069,0
-9.748125,-0.346808,-0.204731,-0.035056,-0.033550,0.002625,41.848597,-2.160710,19.883803,4635731787434164200.000000,-0.705350,0.077078,-0.702514,-0.054900,-9.613848,0.702857,-1.604756,-0.007223,0.004436,0.001810,38.130132,-20.080352,18.747883,4635727384555814900.000000,-0.557277,0.333293,-0.681869,-0.336768,-9.753716,-0.131732,-0.744652,-0.010866,0.000884,-0.014770,39.944483,18.086618,11.633656,4635729210453786600.000000,0.554655,0.409130,0.609939,-0.391082,0
-9.689886,-0.349015,-0.158112,-0.036317,-0.033743,0.006846,41.798149,-2.125711,20.056763,4635731787434164200.000000,-0.705426,0.077159,-0.702419,-0.055034,-9.596877,0.700996,-1.635792,-0.009903,0.002264,-0.001231,38.092928,-20.057165,18.665119,4635727384555814900.000000,-0.557264,0.333332,-0.681850,-0.336790,-9.723421,-0.186881,-0.744652,-0.011565,-0.000699,-0.013187,39.560108,18.619032,11.633656,4635729210453786600.000000,0.554661,0.409062,0.609972,-0.391092,0
-9.688263,-0.351807,-0.112074,-0.038504,-0.024363,0.007915,41.898146,-2.110258,19.976765,4635731787434164200.000000,-0.705470,0.077292,-0.702345,-0.055222,-9.614259,0.695822,-1.628759,-0.003007,0.000000,-0.003367,37.890983,-20.142613,18.714348,4635727384555814900.000000,-0.557270,0.333358,-0.681832,-0.336790,-9.737289,-0.205416,-0.754749,-0.007332,0.000699,-0.011934,39.624333,19.037081,11.552873,4635729121634605100.000000,0.554659,0.409009,0.610000,-0.391107,0
-9.737090,-0.361223,-0.117656,-0.042533,-0.004751,0.010295,42.112286,-2.125715,19.936433,4635731787434164200.000000,-0.705458,0.077387,-0.702335,-0.055375,-9.598336,0.660660,-1.602488,0.003529,-0.000615,-0.003657,37.818535,-20.178837,18.750572,4635727384555814900.000000,-0.557288,0.333369,-0.681821,-0.336772,-9.751606,-0.167134,-0.716467,-0.005525,-0.002466,-0.008215,39.780918,19.043999,11.525898,4635729103079604200.000000,0.554667,0.408965,0.610011,-0.391124,0
-9.765923,-0.349016,-0.181478,-0.042482,0.002279,0.010194,42.248189,-2.040270,20.079545,4635731787434164200.000000,-0.705426,0.077482,-0.702345,-0.055523,-9.575780,0.655880,-1.579931,0.005341,-0.004145,-0.005666,37.867758,-20.129615,18.645096,4635727384555814900.000000,-0.557321,0.333377,-0.681802,-0.336748,-9.743618,-0.178890,-0.697933,-0.008875,-0.001438,-0.003943,39.879020,18.708249,11.453112,4635729103079604200.000000,0.554686,0.408925,0.610023,-0.391121,0
-9.755926,-0.346806,-0.256933,-0.040590,-0.005198,0.004222,42.228676,-1.954818,20.050034,4635731787434164200.000000,-0.705417,0.077596,-0.702330,-0.055660,-9.584668,0.685471,-1.567723,0.004725,-0.007024,-0.008708,37.854765,-20.093386,18.616683,4635727384555814900.000000,-0.557365,0.333391,-0.681771,-0.336724,-9.731411,-0.223497,-0.695822,-0.006080,0.001582,-0.003204,40.237072,17.994534,11.357565,4635729103079604200.000000,0.554693,0.408899,0.610036,-0.391118,0
-9.726514,-0.359013,-0.292978,-0.037091,-0.014861,0.001068,42.027794,-1.974324,19.939688,4635731787434164200.000000,-0.705438,0.077708,-0.702288,-0.055781,-9.587987,0.688790,-1.569579,0.003657,-0.007477,-0.010229,37.769312,-20.093386,18.821674,4635727384555814900.000000,-0.557411,0.333410,-0.681736,-0.336699,-9.759590,-0.231941,-0.716015,-0.003574,-0.001397,-0.000554,40.914631,17.415189,11.411352,4635728925467012100.000000,0.554708,0.408880,0.610034,-0.391120,0
-9.699888,-0.366222,-0.238005,-0.031607,-0.023306,0.000631,41.883602,-2.110241,20.031855,4635731743476730900.000000,-0.705486,0.077794,-0.702222,-0.055879,-9.589843,0.704707,-1.546631,0.001359,-0.008092,-0.010681,37.782299,-20.044170,18.889643,4635727384555814900.000000,-0.557457,0.333436,-0.681695,-0.336681,-9.755828,-0.231941,-0.740427,-0.000554,-0.000370,0.000000,41.182622,17.332401,11.658319,4635728888331239400.000000,0.554716,0.408872,0.610028,-0.391127,0
-9.692678,-0.391211,-0.143703,-0.029227,-0.016696,0.000000,41.983558,-2.125726,20.189407,4635731680059981800.000000,-0.705515,0.077876,-0.702176,-0.055965,-9.587989,0.706176,-1.532956,-0.000615,-0.006085,-0.012527,37.916960,-20.106358,18.686534,4635727384555814900.000000,-0.557496,0.333474,-0.681654,-0.336661,-9.753716,-0.171371,-0.704272,0.001767,0.000000,0.001767,41.070864,17.455652,11.636235,4635728888331239400.000000,0.554722,0.408874,0.610016,-0.391135,0
-9.707669,-0.427259,-0.152056,-0.025829,-0.001406,0.000437,42.127750,-2.140219,20.164920,4635731680059981800.000000,-0.705501,0.077961,-0.702175,-0.056048,-9.617963,0.674731,-1.552193,-0.001068,-0.004273,-0.013271,37.989441,-20.270231,18.623703,4635727384555814900.000000,-0.557531,0.333519,-0.681615,-0.336638,-9.763810,-0.128411,-0.705917,0.000370,0.000000,0.002136,41.101858,17.359862,11.379169,4635728888331239400.000000,0.554731,0.408873,0.610006,-0.391139,0
-9.769271,-0.442248,-0.235289,-0.021070,0.001650,0.002817,42.027824,-2.303904,20.021789,4635731680059981800.000000,-0.705477,0.078031,-0.702184,-0.056129,-9.636819,0.645141,-1.569577,-0.000453,-0.002427,-0.009742,37.940234,-20.344563,18.721355,4635727384555814900.000000,-0.557557,0.333554,-0.681586,-0.336619,-9.776016,-0.212918,-0.708029,0.003533,0.000000,0.002136,41.316407,17.273951,11.399127,4635728888331239400.000000,0.554734,0.408880,0.609990,-0.391151,0
-9.831956,-0.468877,-0.287982,-0.012962,-0.003885,0.005778,41.913578,-2.269965,19.921351,4635731680059981800.000000,-0.705472,0.078068,-0.702180,-0.056198,-9.624612,0.606670,-1.567726,0.000615,-0.000453,-0.007477,37.903988,-20.251337,18.811981,4635727384555814900.000000,-0.557575,0.333583,-0.681566,-0.336600,-9.768036,-0.151193,-0.718123,0.006039,0.000000,0.000370,41.368777,17.321829,11.656166,4635728888331239400.000000,0.554731,0.408889,0.609974,-0.391173,0
-9.844163,-0.481085,-0.275774,-0.008982,-0.006846,0.006846,41.956844,-2.005310,19.889208,4635731680059981800.000000,-0.705477,0.078083,-0.702169,-0.056252,-9.626463,0.557840,-1.548490,0.002913,0.000615,-0.005632,37.946159,-20.080434,18.792000,4635727384555814900.000000,-0.557591,0.333603,-0.681555,-0.336576,-9.755829,-0.043440,-0.700050,0.001110,0.000000,-0.000883,41.229581,17.334513,11.555497,4635728888331239400.000000,0.554733,0.408882,0.609968,-0.391185,0
-9.836388,-0.493292,-0.263567,-0.008302,-0.003980,0.009663,41.926872,-1.974291,19.946898,4635731680059981800.000000,-0.705473,0.078087,-0.702168,-0.056310,-9.610558,0.530098,-1.538133,0.006732,0.001068,-0.001813,38.026427,-20.007935,18.806795,4635727384555814900.000000,-0.557606,0.333604,-0.681555,-0.336550,-9.753716,-0.034507,-0.685730,-0.001766,0.000883,-0.002834,41.139434,17.203312,11.362312,4635728888331239400.000000,0.554736,0.408866,0.609971,-0.391193,0
-9.789778,-0.495509,-0.256355,-0.005098,-0.001117,0.012818,41.948535,-2.110223,19.871974,4635731680059981800.000000,-0.705462,0.078064,-0.702178,-0.056359,-9.580965,0.531946,-1.531105,0.010390,0.001683,0.000000,38.062683,-20.057126,18.848230,4635727384555814900.000000,-0.557621,0.333593,-0.681565,-0.336517,-9.713347,-0.097174,-0.734075,-0.000370,-0.004230,-0.003204,41.197385,17.105172,11.409206,4635728888331239400.000000,0.554748,0.408843,0.609962,-0.391215,0
-9.723755,-0.478309,-0.231388,-0.003204,-0.001214,0.012818,42.042297,-2.125756,19.678898,4635731680059981800.000000,-0.705451,0.078037,-0.702188,-0.056402,-9.570604,0.551180,-1.539980,0.012365,0.002136,0.001230,38.020520,-20.191769,18.742820,4635727384555814900.000000,-0.557636,0.333574,-0.681580,-0.336481,-9.704885,-0.170419,-0.754744,0.000000,-0.002692,-0.002321,41.141551,17.090364,11.506865,4635728888331239400.000000,0.554757,0.408827,0.609953,-0.391232,0
-9.665495,-0.463881,-0.195318,-0.002331,0.010630,0.011507,42.007353,-2.110202,19.601187,4635731680059981800.000000,-0.705407,0.078014,-0.702232,-0.056436,-9.570604,0.582620,-1.529261,0.010358,0.004596,0.003366,37.996467,-20.355634,18.552695,4635727384555814900.000000,-0.557638,0.333557,-0.681601,-0.336452,-9.745249,-0.183111,-0.746768,0.000000,-0.003019,-0.000370,41.126743,17.221546,11.523788,4635729065845216300.000000,0.554770,0.408814,0.609941,-0.391246,0
-9.673799,-0.453898,-0.240244,0.001552,0.016995,0.008740,41.991787,-2.195652,19.706060,4635731680059981800.000000,-0.705343,0.078015,-0.702293,-0.056475,-9.542501,0.654370,-1.506692,0.004242,0.005179,0.001814,37.903284,-20.331649,18.526009,4635727384555814900.000000,-0.557633,0.333559,-0.681612,-0.336435,-9.733534,-0.183111,-0.704289,0.002649,-0.001439,0.000000,41.257920,17.319695,11.513698,4635729103079604200.000000,0.554775,0.408811,0.609928,-0.391262,0
-9.732067,-0.424492,-0.315168,0.007088,0.004130,0.005730,42.112176,-2.246162,19.763786,4635731680059981800.000000,-0.705321,0.077994,-0.702317,-0.056480,-9.542852,0.674744,-1.515562,-0.002620,0.004273,0.000000,37.872898,-20.215108,18.672849,4635727384555814900.000000,-0.557623,0.333582,-0.681609,-0.336435,-9.729300,-0.183111,-0.685731,0.000556,-0.001951,0.001766,41.214804,17.334513,11.360223,4635729103079604200.000000,0.554788,0.408808,0.609913,-0.391271,0
-9.763696,-0.417815,-0.314629,0.009177,-0.011017,0.001895,42.143337,-2.141368,19.798717,4635731680059981800.000000,-0.705344,0.077971,-0.702297,-0.056470,-9.572447,0.638125,-1.554026,-0.004726,0.005502,0.000000,37.995313,-20.178837,18.869998,4635727384555814900.000000,-0.557606,0.333611,-0.681607,-0.336440,-9.699033,-0.203290,-0.693704,0.001766,-0.000371,0.002136,41.068825,17.263888,11.328470,4635729103079604200.000000,0.554795,0.408810,0.609900,-0.391278,0
-9.743192,-0.449449,-0.258040,0.008982,-0.016170,0.000873,41.942476,-2.024744,19.929095,4635731636159365100.000000,-0.705384,0.077947,-0.702261,-0.056456,-9.589836,0.608529,-1.567731,-0.002429,0.003950,0.000000,37.971366,-20.080496,18.894877,4635727384555814900.000000,-0.557597,0.333632,-0.681603,-0.336440,-9.712857,-0.167170,-0.685733,0.004785,-0.003531,0.006550,41.111915,17.188526,11.328470,4635729103079604200.000000,0.554813,0.408825,0.609867,-0.391289,0
-9.702659,-0.468872,-0.172593,0.012233,-0.004763,0.003446,41.803139,-2.175068,20.089470,4635731572685799400.000000,-0.705391,0.077900,-0.702262,-0.056428,-9.616090,0.605186,-1.555524,-0.000454,0.000293,-0.001229,37.805656,-20.007935,18.792042,4635727384555814900.000000,-0.557603,0.333648,-0.681593,-0.336436,-9.747361,-0.088073,-0.663436,0.003575,-0.004273,0.008360,41.318433,17.115281,11.328470,4635729103079604200.000000,0.554837,0.408842,0.609831,-0.391293,0
-9.761994,-0.486067,-0.137041,0.016459,0.012325,0.005777,41.875213,-2.289472,20.074599,4635731572685799400.000000,-0.705348,0.077840,-0.702314,-0.056390,-9.624619,0.652503,-1.571407,0.000000,0.000161,-0.000907,37.831393,-20.057089,18.750572,4635727384555814900.000000,-0.557610,0.333661,-0.681583,-0.336432,-9.753716,-0.093423,-0.659200,0.002322,-0.003390,0.008545,41.429305,16.971414,11.328470,4635729103079604200.000000,0.554861,0.408857,0.609799,-0.391293,0
-9.836936,-0.480551,-0.213566,0.018836,0.016757,0.005099,42.033898,-2.141411,19.954117,4635731572685799400.000000,-0.705294,0.077775,-0.702380,-0.056340,-9.626127,0.663533,-1.600350,0.000586,0.003411,0.001171,37.950845,-20.093386,18.650166,4635727384555814900.000000,-0.557605,0.333671,-0.681584,-0.336427,-9.753716,-0.158187,-0.659200,0.004784,0.001209,0.006780,41.383608,17.075018,11.560491,4635729103079604200.000000,0.554867,0.408880,0.609777,-0.391295,0
-9.811474,-0.431724,-0.292978,0.020927,0.004181,0.001895,42.092837,-2.024720,19.986797,4635731572685799400.000000,-0.705278,0.077707,-0.702408,-0.056277,-9.644491,0.595596,-1.617802,0.003879,0.003654,0.003261,37.944468,-20.048414,18.509640,4635727384555814900.000000,-0.557601,0.333669,-0.681593,-0.336417,-9.763803,-0.160816,-0.699550,0.006223,0.000371,0.004644,41.239750,17.294237,11.609241,4635729103079604200.000000,0.554869,0.408901,0.609754,-0.391307,0
-9.743742,-0.402844,-0.253084,0.018986,0.000918,0.000436,42.012377,-2.140085,20.049542,4635731572685799400.000000,-0.705271,0.077651,-0.702426,-0.056218,-9.636785,0.568604,-1.604314,0.005285,0.001012,0.005397,37.948955,-20.097866,18.515408,4635727384555814900.000000,-0.557604,0.333653,-0.681602,-0.336411,-9.786096,-0.088091,-0.748375,0.002879,0.002648,0.003390,41.070984,17.455549,11.457944,4635729103079604200.000000,0.554869,0.408914,0.609744,-0.391309,0
-9.734288,-0.402844,-0.195318,0.015345,0.002722,0.000632,41.969051,-2.238942,19.976966,4635731660420248600.000000,-0.705257,0.077607,-0.702449,-0.056172,-9.606588,0.611648,-1.580539,0.004835,0.000000,0.005847,37.989441,-20.262338,18.670230,4635727384555814900.000000,-0.557608,0.333636,-0.681607,-0.336409,-9.780251,-0.143848,-0.736687,0.000371,0.003204,0.003204,41.172410,17.420484,11.345440,4635729103079604200.000000,0.554871,0.408922,0.609739,-0.391304,0
-9.726545,-0.417807,-0.200306,0.015436,-0.002377,0.000873,41.934140,-2.211249,19.901345,4635731787434164200.000000,-0.705259,0.077560,-0.702456,-0.056127,-9.595019,0.628361,-1.587603,0.002530,0.002248,0.005903,37.944474,-20.254024,18.859136,4635727384555814900.000000,-0.557603,0.333627,-0.681615,-0.336411,-9.768045,-0.209121,-0.732444,0.002647,0.003204,0.004087,41.341177,17.216142,11.409150,4635729103079604200.000000,0.554871,0.408937,0.609729,-0.391304,0
-9.714859,-0.424506,-0.207526,0.020099,0.000091,0.000827,41.918508,-2.125804,20.033905,4635731787434164200.000000,-0.705254,0.077506,-0.702471,-0.056073,-9.588597,0.629000,-1.579903,0.000000,0.002587,0.005847,37.859031,-20.043970,18.843135,4635727384555814900.000000,-0.557593,0.333625,-0.681620,-0.336419,-9.765923,-0.179399,-0.722361,0.003204,0.002322,0.006037,41.370892,17.044731,11.506797,4635729103079604200.000000,0.554875,0.408957,0.609714,-0.391301,0
-9.779167,-0.402844,-0.237446,0.020927,0.002918,-0.001941,41.969051,-2.040352,20.102322,4635731787434164200.000000,-0.705241,0.077458,-0.702494,-0.056008,-9.589233,0.641206,-1.581810,0.002809,0.000506,0.005341,37.902006,-19.922482,18.699205,4635727384555814900.000000,-0.557594,0.333615,-0.681624,-0.336421,-9.786089,-0.110404,-0.720237,0.004087,0.001254,0.004644,41.300308,17.087702,11.443123,4635729103079604200.000000,0.554879,0.408974,0.609696,-0.391306,0
-9.856361,-0.412816,-0.260826,0.018986,-0.005627,-0.003204,41.934150,-2.059612,20.009653,4635731787434164200.000000,-0.705254,0.077421,-0.702491,-0.055950,-9.595019,0.659836,-1.599170,0.004779,0.001124,0.005903,38.022182,-20.012385,18.710707,4635727384555814900.000000,-0.557595,0.333599,-0.681632,-0.336417,-9.760088,-0.117826,-0.689987,0.003390,0.003715,0.006037,41.345936,17.233654,11.416046,4635729280460259300.000000,0.554879,0.408997,0.609683,-0.391302,0
-9.828685,-0.412303,-0.202029,0.014909,-0.007192,-0.003641,41.883602,-2.160710,20.038868,4635731787434164200.000000,-0.705269,0.077397,-0.702481,-0.055904,-9.601441,0.677829,-1.599170,0.003711,0.001574,0.003599,38.024155,-20.093386,18.756358,4635727384555814900.000000,-0.557597,0.333593,-0.681637,-0.336411,-9.733551,-0.132156,-0.693697,0.004087,0.005155,0.003762,41.358681,17.261269,11.413922,4635729317827969000.000000,0.554871,0.409018,0.609676,-0.391302,0
-9.753204,-0.380666,-0.143741,0.007824,0.004407,-0.003400,41.918498,-2.125814,20.189319,4635731787434164200.000000,-0.705248,0.077395,-0.702505,-0.055875,-9.632910,0.664352,-1.599170,0.004328,-0.000617,0.002192,37.944494,-20.048440,18.647838,4635727384555814900.000000,-0.557607,0.333587,-0.681636,-0.336403,-9.769627,-0.154445,-0.726067,0.007801,0.006223,0.004969,41.368765,17.190695,11.494576,4635729317827969000.000000,0.554856,0.409053,0.609664,-0.391307,0
-9.722078,-0.361237,-0.132043,0.002572,0.021737,-0.001264,42.033853,-2.075258,20.199997,4635731787434164200.000000,-0.705175,0.077396,-0.702580,-0.055851,-9.649636,0.653412,-1.618430,0.005902,-0.001013,0.003766,37.859047,-20.097815,18.657974,4635727384555814900.000000,-0.557619,0.333572,-0.681638,-0.336394,-9.768048,-0.118369,-0.712281,0.008545,0.003762,0.002694,41.370892,17.115325,11.511581,4635729229150527500.000000,0.554842,0.409079,0.609648,-0.391324,0
-9.769166,-0.373947,-0.201304,0.001896,0.026136,0.000000,42.092868,-2.110141,20.102350,4635731743603234800.000000,-0.705089,0.077397,-0.702668,-0.055833,-9.631010,0.691297,-1.610114,0.005285,0.000000,0.002026,37.863471,-20.223773,18.853282,4635727384555814900.000000,-0.557629,0.333565,-0.681639,-0.336382,-9.776003,-0.039303,-0.697949,0.003253,0.004086,0.000372,41.431373,17.233619,11.430937,4635729210453786600.000000,0.554833,0.409088,0.609646,-0.391331,0
-9.821977,-0.412809,-0.275788,0.000000,0.008611,0.000436,41.942652,-2.190604,20.089396,4635731680059981800.000000,-0.705053,0.077400,-0.702704,-0.055828,-9.606595,0.713817,-1.580543,0.002587,-0.000562,0.000000,37.903988,-20.174418,18.843180,4635727384555814900.000000,-0.557640,0.333569,-0.681632,-0.336373,-9.747889,-0.024415,-0.715983,-0.002274,0.002509,0.000000,41.373571,17.321750,11.333280,4635729210453786600.000000,0.554836,0.409080,0.609649,-0.391329,0
-9.759947,-0.407330,-0.228705,-0.000872,0.004839,0.001504,41.798149,-2.204061,20.154423,4635731680059981800.000000,-0.705026,0.077411,-0.702729,-0.055841,-9.601439,0.663094,-1.561916,0.001068,-0.002753,-0.000562,37.942503,-20.048450,18.699217,4635727384555814900.000000,-0.557656,0.333576,-0.681617,-0.336370,-9.701187,-0.074816,-0.720237,-0.005851,0.002136,-0.002646,41.227638,17.203468,11.165059,4635729210453786600.000000,0.554842,0.409057,0.609663,-0.391323,0
-9.695418,-0.378430,-0.195815,-0.003008,0.015390,0.002136,41.867901,-2.190604,20.114564,4635731680059981800.000000,-0.704968,0.077430,-0.702784,-0.055858,-9.587973,0.603324,-1.531087,0.000507,-0.003149,-0.000507,37.977230,-19.963009,18.550227,4635727384555814900.000000,-0.557672,0.333582,-0.681601,-0.336370,-9.712837,-0.125768,-0.730316,-0.003763,0.003018,-0.003204,41.199986,17.105263,11.294417,4635729210453786600.000000,0.554841,0.409039,0.609676,-0.391323,0
-9.742002,-0.358503,-0.266812,-0.003401,0.010791,0.001265,41.934181,-2.204065,20.016910,4635731680059981800.000000,-0.704923,0.077451,-0.702825,-0.055876,-9.557771,0.598788,-1.532967,0.000000,-0.002136,0.001123,37.938732,-19.922482,18.406262,4635727384555814900.000000,-0.557683,0.333587,-0.681588,-0.336373,-9.737251,-0.104045,-0.702208,-0.004086,0.003204,-0.004086,41.270538,17.160916,11.409101,4635729210453786600.000000,0.554839,0.409018,0.609691,-0.391324,0
-9.803031,-0.304699,-0.332333,-0.003444,-0.002896,0.000000,41.783998,-2.125849,19.998946,4635731680059981800.000000,-0.704920,0.077462,-0.702826,-0.055883,-9.565441,0.616787,-1.556757,-0.002246,-0.001575,0.001575,37.859067,-20.012323,18.411272,4635727384555814900.000000,-0.557688,0.333597,-0.681575,-0.336383,-9.751587,-0.107738,-0.685743,-0.005154,0.003204,-0.006036,41.214886,17.306841,11.345499,4635729210453786600.000000,0.554836,0.408990,0.609711,-0.391327,0
-9.839167,-0.293457,-0.339078,-0.006648,-0.015235,-0.000871,41.669326,-2.110110,20.056763,4635731680059981800.000000,-0.704952,0.077482,-0.702791,-0.055901,-9.595646,0.616160,-1.568965,-0.004273,-0.001068,0.000507,37.780033,-20.228146,18.618023,4635727384555814900.000000,-0.557690,0.333615,-0.681558,-0.336395,-9.763793,-0.130022,-0.693692,-0.005341,0.004086,-0.006409,41.260453,17.334513,11.328470,4635729210453786600.000000,0.554830,0.408962,0.609735,-0.391329,0
-9.829211,-0.334578,-0.292503,-0.011159,-0.026393,-0.003443,41.782388,-2.190578,20.056763,4635731680059981800.000000,-0.705015,0.077520,-0.702721,-0.055929,-9.594393,0.584704,-1.568339,-0.003711,-0.000507,0.000561,37.790207,-20.349741,18.814110,4635727384555814900.000000,-0.557691,0.333633,-0.681543,-0.336405,-9.755844,-0.164517,-0.675665,-0.001813,0.003391,-0.006409,41.353861,17.143019,11.409099,4635729210453786600.000000,0.554820,0.408940,0.609751,-0.391340,0
-9.794841,-0.341807,-0.216532,-0.017132,-0.033507,-0.004034,41.918446,-2.204088,20.051785,4635731680059981800.000000,-0.705093,0.077634,-0.702622,-0.056032,-9.608474,0.580788,-1.543300,-0.002643,0.000000,0.003875,37.824326,-20.259921,18.751371,4635727384555814900.000000,-0.557688,0.333639,-0.681536,-0.336420,-9.753716,-0.160826,-0.681485,-0.001068,0.005850,-0.005527,41.360811,17.102571,11.264888,4635729210453786600.000000,0.554803,0.408927,0.609770,-0.391348,0
-9.765923,-0.351763,-0.163674,-0.022908,-0.023572,-0.002572,41.998919,-2.056175,20.039578,4635731636275334100.000000,-0.705144,0.077703,-0.702557,-0.056094,-9.618813,0.630234,-1.538754,-0.001575,0.000561,0.006409,37.818535,-20.133938,18.652912,4635727384555814900.000000,-0.557681,0.333637,-0.681535,-0.336436,-9.733563,-0.158696,-0.693691,-0.003713,0.006409,-0.005341,41.227691,17.223486,11.150202,4635729210453786600.000000,0.554791,0.408909,0.609794,-0.391347,0
-9.790812,-0.386134,-0.210727,-0.023655,-0.012382,-0.002333,42.077143,-1.904355,19.992526,4635731572685799400.000000,-0.705163,0.077775,-0.702526,-0.056154,-9.587986,0.672027,-1.575994,-0.000507,0.000507,0.004725,37.818535,-20.048491,18.601603,4635727328143458300.000000,-0.557678,0.333636,-0.681533,-0.336445,-9.769609,-0.219159,-0.695822,0.001900,0.009936,-0.005341,41.199986,17.319601,11.294386,4635729299090323500.000000,0.554759,0.408910,0.609817,-0.391354,0
-9.836913,-0.395145,-0.293446,-0.019227,-0.017411,-0.000633,42.192447,-2.043702,19.899853,4635731572685799400.000000,-0.705196,0.077841,-0.702481,-0.056220,-9.602672,0.670788,-1.579929,0.002245,-0.000561,0.002082,37.857017,-19.963039,18.606561,4635727277181632500.000000,-0.557686,0.333636,-0.681528,-0.336442,-9.768054,-0.131179,-0.695822,0.001441,0.009800,-0.005341,41.139530,17.334513,11.409079,4635729317827969000.000000,0.554729,0.408910,0.609841,-0.391361,0
-9.821521,-0.376173,-0.309698,-0.020097,-0.026071,-0.000871,42.321275,-2.310844,19.814409,4635731572685799400.000000,-0.705254,0.077902,-0.702410,-0.056285,-9.625228,0.607898,-1.568960,0.002028,-0.001068,0.003313,37.981559,-19.967372,18.652912,4635727277181632500.000000,-0.557693,0.333631,-0.681524,-0.336442,-9.775997,-0.079643,-0.695822,-0.000695,0.009613,-0.007985,41.187190,17.263990,11.426129,4635729317827969000.000000,0.554698,0.408897,0.609872,-0.391368,0
-9.758224,-0.390637,-0.275794,-0.020928,-0.024527,-0.002572,42.302228,-2.340165,19.763786,4635731572685799400.000000,-0.705307,0.077984,-0.702341,-0.056360,-9.600197,0.580777,-1.561931,0.000561,-0.000507,0.005341,38.152451,-20.052819,18.761917,4635727277181632500.000000,-0.557694,0.333626,-0.681522,-0.336451,-9.757981,-0.113542,-0.705896,-0.000187,0.008732,-0.008545,41.199986,17.188614,11.426129,4635729229214954500.000000,0.554668,0.408883,0.609901,-0.391380,0
-9.729300,-0.395612,-0.273538,-0.019424,-0.020057,-0.004510,42.101488,-2.246162,19.763786,4635731572685799400.000000,-0.705349,0.078066,-0.702286,-0.056421,-9.595636,0.636635,-1.556752,0.000507,0.000561,0.004780,38.233585,-20.093386,18.860437,4635727277181632500.000000,-0.557692,0.333623,-0.681522,-0.336458,-9.733566,-0.112000,-0.708029,-0.000882,0.008545,-0.009427,41.139541,17.306784,11.506725,4635729210453786600.000000,0.554638,0.408865,0.609933,-0.391392,0
-9.729300,-0.412792,-0.280770,-0.016418,-0.022076,-0.006409,41.956844,-2.211344,19.723993,4635731572685799400.000000,-0.705398,0.078129,-0.702227,-0.056453,-9.587995,0.639354,-1.581779,0.000000,0.002751,0.004273,38.060502,-20.138259,18.706585,4635727277181632500.000000,-0.557684,0.333626,-0.681525,-0.336461,-9.719228,-0.150160,-0.728176,-0.002831,0.007664,-0.009613,41.187181,17.394952,11.513716,4635729210453786600.000000,0.554614,0.408840,0.609966,-0.391401,0
-9.734275,-0.442182,-0.270822,-0.014756,-0.030383,-0.005974,41.991665,-2.091069,19.700947,4635731572685799400.000000,-0.705472,0.078185,-0.702143,-0.056485,-9.577014,0.610370,-1.611990,0.000000,0.003151,0.005394,37.859118,-20.133968,18.509772,4635727277181632500.000000,-0.557673,0.333627,-0.681531,-0.336466,-9.696947,-0.219134,-0.732444,-0.000560,0.006596,-0.008732,41.270497,17.276809,11.592165,4635729210453786600.000000,0.554589,0.408821,0.609991,-0.391416,0
-9.736534,-0.483775,-0.226514,-0.013846,-0.030699,-0.004470,42.042297,-1.989807,19.870943,4635731572685799400.000000,-0.705544,0.078270,-0.702056,-0.056556,-9.589221,0.616780,-1.604355,0.000000,0.002136,0.005287,37.946732,-20.048517,18.611430,4635727277181632500.000000,-0.557666,0.333626,-0.681534,-0.336473,-9.722897,-0.191649,-0.732444,0.001763,0.006409,-0.005020,41.295511,17.118112,11.689824,4635729033253527600.000000,0.554568,0.408817,0.610006,-0.391428,0
-9.729300,-0.497792,-0.203003,-0.009376,-0.019109,-0.001464,41.977650,-2.059427,20.084339,4635731572685799400.000000,-0.705585,0.078309,-0.702007,-0.056591,-9.607837,0.648214,-1.574144,-0.001122,0.002697,0.005394,38.152410,-20.091253,18.756981,4635727277181632500.000000,-0.557655,0.333629,-0.681537,-0.336482,-9.759516,-0.152896,-0.722372,-0.003151,0.003765,-0.005154,41.156642,17.221298,11.555823,4635728995705421800.000000,0.554561,0.408796,0.610023,-0.391433,0
-9.754161,-0.461173,-0.251829,-0.006172,-0.008743,0.000633,41.948238,-2.195515,20.027859,4635731572685799400.000000,-0.705597,0.078337,-0.701991,-0.056621,-9.613025,0.626549,-1.556139,-0.001576,0.004326,0.006970,38.105420,-20.256347,18.608978,4635727333548568600.000000,-0.557637,0.333630,-0.681545,-0.336494,-9.755850,-0.136416,-0.710164,-0.008679,0.005849,-0.003578,41.116668,17.380006,11.362625,4635728995705421800.000000,0.554560,0.408770,0.610052,-0.391416,0
-9.810223,-0.454381,-0.320542,-0.005578,-0.012262,0.000000,42.077098,-2.211362,19.856473,4635731616413658100.000000,-0.705618,0.078365,-0.701963,-0.056651,-9.626452,0.579547,-1.537523,0.002296,0.004219,0.008038,37.861272,-20.299083,18.521069,4635727384555814900.000000,-0.557623,0.333620,-0.681560,-0.336497,-9.773861,-0.184646,-0.708029,-0.006088,0.005528,-0.003204,41.185044,17.347319,11.409054,4635728995705421800.000000,0.554557,0.408751,0.610074,-0.391406,0
-9.829225,-0.466146,-0.398314,-0.005737,-0.031841,-0.000435,42.162547,-2.125912,19.968546,4635731680059981800.000000,-0.705697,0.078389,-0.701879,-0.056684,-9.631032,0.599381,-1.551559,0.004780,0.002083,0.009667,37.783742,-20.174572,18.714853,4635727384555814900.000000,-0.557616,0.333596,-0.681576,-0.336500,-9.788201,-0.215460,-0.718100,-0.002697,0.005341,-0.004086,41.210056,17.334513,11.657752,4635728995705421800.000000,0.554547,0.408736,0.610093,-0.391407,0
-9.794864,-0.431786,-0.372567,-0.001029,-0.051073,-0.000198,42.178396,-2.040454,20.097467,4635731680059981800.000000,-0.705835,0.078380,-0.701740,-0.056697,-9.600210,0.641801,-1.587570,0.003151,0.002189,0.009560,37.863389,-20.048532,18.796969,4635727384555814900.000000,-0.557606,0.333576,-0.681590,-0.336508,-9.760113,-0.149209,-0.710162,-0.001255,0.003578,-0.003391,41.282718,17.334513,11.787499,4635728907088525300.000000,0.554540,0.408725,0.610103,-0.391413,0
-9.760952,-0.397873,-0.268123,0.001266,-0.047555,0.001068,42.092954,-2.024603,19.957786,4635731680059981800.000000,-0.705962,0.078370,-0.701612,-0.056715,-9.608442,0.627161,-1.611985,0.004379,0.002083,0.009667,37.897580,-19.963080,18.648048,4635727328194999300.000000,-0.557599,0.333553,-0.681605,-0.336512,-9.753716,-0.154436,-0.697952,-0.001068,0.000559,-0.003204,41.287569,17.263973,11.643325,4635728888331239400.000000,0.554541,0.408709,0.610106,-0.391424,0
-9.758685,-0.405546,-0.246850,0.000870,-0.043199,0.000633,42.042297,-2.075258,19.809480,4635731767485144100.000000,-0.706076,0.078364,-0.701496,-0.056731,-9.599611,0.578944,-1.591554,0.010333,0.000508,0.012363,37.853343,-19.922482,18.606502,4635727277181632500.000000,-0.557601,0.333506,-0.681629,-0.336507,-9.723487,-0.158696,-0.695822,-0.001068,0.001763,-0.002323,41.285439,17.249062,11.528631,4635728888331239400.000000,0.554540,0.408697,0.610110,-0.391431,0
-9.741070,-0.417318,-0.263592,0.002136,-0.047868,-0.000435,42.072120,-2.075258,19.791343,4635731894808346600.000000,-0.706205,0.078350,-0.701368,-0.056735,-9.570604,0.644802,-1.556143,0.011644,0.000560,0.012205,37.863369,-20.056981,18.704151,4635727277181632500.000000,-0.557604,0.333457,-0.681654,-0.336499,-9.717093,-0.158696,-0.715974,-0.003713,0.003900,-0.000373,41.224982,17.188605,11.521657,4635728888331239400.000000,0.554541,0.408687,0.610121,-0.391423,0
-9.685008,-0.397875,-0.216600,0.002136,-0.044787,-0.000199,42.150326,-2.040473,19.809483,4635731894808346600.000000,-0.706324,0.078344,-0.701248,-0.056747,-9.570604,0.713831,-1.569557,0.005690,0.001068,0.009000,37.903988,-20.178837,18.750572,4635727277181632500.000000,-0.557602,0.333432,-0.681668,-0.336499,-9.727168,-0.148622,-0.710162,-0.004273,0.002510,0.001763,41.212193,17.175816,11.523788,4635728888331239400.000000,0.554550,0.408680,0.610125,-0.391411,0
-9.656056,-0.370764,-0.158696,0.000397,-0.034106,0.001068,42.235771,-1.989807,19.786357,4635731894808346600.000000,-0.706411,0.078343,-0.701158,-0.056765,-9.570604,0.733651,-1.580557,-0.000666,0.000508,0.003554,37.859149,-20.133999,18.750572,4635727277181632500.000000,-0.557601,0.333435,-0.681664,-0.336505,-9.719228,-0.176709,-0.708029,-0.002510,0.003018,0.004781,41.131606,17.306768,11.282031,4635729065536004100.000000,0.554560,0.408685,0.610122,-0.391396,0
-9.675933,-0.356715,-0.163665,-0.003006,-0.026033,0.001068,42.251661,-2.024590,19.881753,4635731894808346600.000000,-0.706473,0.078355,-0.701092,-0.056792,-9.602624,0.750455,-1.593967,-0.002644,0.000000,0.000000,37.773706,-20.093386,18.699340,4635727277181632500.000000,-0.557603,0.333453,-0.681651,-0.336510,-9.727166,-0.233476,-0.728175,-0.002136,0.000560,0.007104,41.114532,17.394950,11.069644,4635729103079604200.000000,0.554579,0.408692,0.610110,-0.391380,0
-9.714821,-0.393333,-0.180839,-0.002969,-0.022195,0.000199,42.136410,-2.075258,19.907154,4635731894808346600.000000,-0.706525,0.078370,-0.701037,-0.056814,-9.631641,0.706227,-1.598569,-0.003257,0.000000,0.000000,37.822740,-20.138214,18.659316,4635727277181632500.000000,-0.557605,0.333473,-0.681638,-0.336516,-9.749447,-0.264294,-0.732444,-0.000374,0.000881,0.009240,41.245483,17.347319,11.277244,4635729103079604200.000000,0.554598,0.408710,0.610091,-0.391363,0
-9.739233,-0.395187,-0.185386,0.000235,-0.016818,-0.000634,42.007534,-2.075258,19.769779,4635731894808346600.000000,-0.706562,0.078377,-0.700999,-0.056821,-9.625238,0.677810,-1.599769,-0.004273,-0.001121,-0.001681,38.032052,-20.134015,18.665119,4635727277181632500.000000,-0.557610,0.333498,-0.681618,-0.336522,-9.773858,-0.187989,-0.712301,0.000000,0.001068,0.010495,41.353806,17.274082,11.479547,4635729103079604200.000000,0.554618,0.408732,0.610070,-0.391345,0
-9.763646,-0.356291,-0.160973,0.000833,-0.006970,0.001303,42.021396,-2.040500,19.693644,4635731894808346600.000000,-0.706570,0.078371,-0.700991,-0.056821,-9.625836,0.696418,-1.604975,-0.002032,-0.002136,-0.004325,38.058509,-20.048573,18.709933,4635727277181632500.000000,-0.557625,0.333524,-0.681595,-0.336518,-9.778130,-0.211190,-0.708029,0.000000,0.004593,0.012444,41.300390,17.130338,11.521653,4635729103079604200.000000,0.554632,0.408765,0.610054,-0.391315,0
-9.788059,-0.351737,-0.186206,-0.003240,0.000434,0.004942,42.185046,-1.989807,19.865767,4635731851139666900.000000,-0.706553,0.078392,-0.701003,-0.056864,-9.644447,0.669614,-1.618378,0.000000,-0.001016,-0.003100,37.849178,-20.007935,18.853013,4635727277181632500.000000,-0.557639,0.333543,-0.681579,-0.336509,-9.757987,-0.209662,-0.738244,0.003525,0.001816,0.010174,41.285439,17.102571,11.443216,4635729014492360700.000000,0.554644,0.408796,0.610030,-0.391305,0
-9.812474,-0.356293,-0.259042,-0.008581,-0.000669,0.008346,42.251692,-2.059313,20.037313,4635731787434164200.000000,-0.706538,0.078394,-0.701014,-0.056909,-9.649654,0.596370,-1.616584,0.001681,0.000000,-0.000508,37.905950,-20.052752,18.894670,4635727277181632500.000000,-0.557648,0.333553,-0.681572,-0.336500,-9.763787,-0.137025,-0.724509,0.003391,0.000187,0.013138,41.214937,17.163000,11.426129,4635728995705421800.000000,0.554665,0.408831,0.609997,-0.391290,0
-9.826960,-0.346772,-0.265876,-0.012184,-0.005811,0.008745,42.136452,-2.160710,19.925403,4635731787434164200.000000,-0.706537,0.078407,-0.701008,-0.056969,-9.631046,0.593546,-1.579967,0.002644,0.000000,0.000000,38.107491,-20.138193,18.803423,4635727277181632500.000000,-0.557657,0.333558,-0.681566,-0.336489,-9.745782,-0.091863,-0.710166,0.002323,0.000000,0.010361,41.139566,17.236239,11.426129,4635728995705421800.000000,0.554683,0.408856,0.609970,-0.391280,0
-9.812067,-0.373871,-0.214363,-0.012818,-0.006138,0.007043,42.072081,-2.125962,19.791292,4635731787434164200.000000,-0.706537,0.078426,-0.701002,-0.057026,-9.613033,0.635378,-1.562548,0.002696,0.000560,0.000000,38.020129,-20.223640,18.762779,4635727277181632500.000000,-0.557665,0.333565,-0.681562,-0.336477,-9.731438,-0.085452,-0.728170,-0.000507,0.000000,0.007851,41.187162,17.319551,11.426129,4635728995705421800.000000,0.554702,0.408869,0.609952,-0.391267,0
-9.765521,-0.412771,-0.175867,-0.010212,0.002840,0.005540,42.120504,-2.139781,19.928649,4635731787434164200.000000,-0.706511,0.078453,-0.701021,-0.057077,-9.581628,0.621394,-1.556148,0.002085,0.001068,0.001680,37.903988,-20.174695,18.705183,4635727277181632500.000000,-0.557669,0.333569,-0.681561,-0.336470,-9.739369,-0.115658,-0.722375,-0.004592,-0.002643,0.006596,41.330880,17.274100,11.345579,4635728995705421800.000000,0.554733,0.408864,0.609937,-0.391252,0
-9.734264,-0.422296,-0.207927,-0.008146,0.005071,0.003404,42.093007,-2.303440,20.089225,4635731787434164200.000000,-0.706480,0.078474,-0.701047,-0.057108,-9.551998,0.610961,-1.550340,0.000508,-0.000612,0.003764,37.987173,-20.048594,18.704104,4635727277181632500.000000,-0.557672,0.333568,-0.681556,-0.336475,-9.721371,-0.101937,-0.710168,-0.007103,-0.002323,0.004647,41.288203,17.251200,11.247922,4635728995705421800.000000,0.554764,0.408850,0.609930,-0.391235,0
-9.736545,-0.390238,-0.224297,-0.010247,-0.002605,0.000834,42.111774,-2.404858,20.154423,4635731787434164200.000000,-0.706471,0.078520,-0.701047,-0.057154,-9.533391,0.635375,-1.569537,-0.000560,-0.003816,0.000353,38.062683,-20.097518,18.756971,4635727277181632500.000000,-0.557688,0.333575,-0.681538,-0.336479,-9.696956,-0.127865,-0.697961,-0.010120,-0.001255,0.003392,41.081928,17.249062,11.240879,4635728995705421800.000000,0.554795,0.408827,0.609932,-0.391211,0
-9.694572,-0.344092,-0.185396,-0.009179,-0.003804,-0.001502,42.208239,-2.340363,20.070083,4635731787434164200.000000,-0.706466,0.078564,-0.701045,-0.057184,-9.534571,0.640594,-1.606157,-0.003307,-0.006460,-0.003764,38.107471,-20.217226,18.813964,4635727277181632500.000000,-0.557713,0.333597,-0.681504,-0.336485,-9.692678,-0.154416,-0.695822,-0.008920,-0.001068,0.005847,40.980885,17.178589,11.394029,4635728995705421800.000000,0.554828,0.408813,0.609929,-0.391184,0
-9.628968,-0.334560,-0.170904,-0.005941,-0.002604,-0.001702,42.166270,-2.280884,19.832810,4635731787434164200.000000,-0.706459,0.078596,-0.701047,-0.057201,-9.546189,0.679567,-1.604392,-0.004781,-0.006357,-0.003713,38.064970,-20.213697,18.854040,4635727277181632500.000000,-0.557735,0.333621,-0.681468,-0.336496,-9.682611,-0.188898,-0.695822,-0.005022,-0.003711,0.007290,41.169387,17.103206,11.587203,4635728995705421800.000000,0.554864,0.408807,0.609911,-0.391168,0
-9.617146,-0.336848,-0.170904,-0.002136,-0.005107,0.000234,42.150258,-2.296896,19.700845,4635731743809376300.000000,-0.706461,0.078607,-0.701043,-0.057209,-9.558984,0.707442,-1.593360,-0.005392,-0.007580,-0.005444,37.464852,-19.878158,18.733077,4635727277181632500.000000,-0.557763,0.333651,-0.681426,-0.336505,-9.730806,-0.265788,-0.675688,0.001894,-0.001630,0.010120,41.413535,17.029962,11.530844,4635728995705421800.000000,0.554886,0.408828,0.609881,-0.391159,0
-9.656439,-0.329600,-0.156025,-0.004740,-0.000167,0.001268,42.270426,-2.241203,19.870605,4635731680059981800.000000,-0.706446,0.078627,-0.701054,-0.057230,-9.596191,0.676632,-1.586377,-0.003051,-0.010733,-0.008596,36.630220,-19.304447,18.622101,4635727333445497900.000000,-0.557807,0.333679,-0.681376,-0.336505,-9.751575,-0.139831,-0.661340,0.004085,-0.001068,0.011562,41.385873,17.017120,11.441111,4635728995705421800.000000,0.554906,0.408859,0.609847,-0.391152,0
-9.737316,-0.314721,-0.154120,-0.010715,0.002103,0.000434,42.302462,-2.268673,19.970160,4635731680059981800.000000,-0.706423,0.078668,-0.701069,-0.057265,-9.625830,0.671992,-1.574755,-0.002798,-0.011190,-0.010173,36.387964,-18.897027,18.712229,4635727384555814900.000000,-0.557855,0.333711,-0.681323,-0.336502,-9.763782,-0.150135,-0.659200,0.003392,0.000694,0.011750,41.300421,17.087590,11.426129,4635728995705421800.000000,0.554924,0.408891,0.609817,-0.391140,0
-9.832298,-0.302895,-0.188070,-0.016055,-0.003238,0.000634,42.166280,-2.324365,19.782103,4635731680059981800.000000,-0.706414,0.078724,-0.701068,-0.057319,-9.631641,0.709198,-1.568359,-0.007020,-0.010122,-0.011241,36.425138,-18.864530,18.805797,4635727384555814900.000000,-0.557896,0.333758,-0.681265,-0.336506,-9.755857,-0.188894,-0.679332,0.007608,0.001068,0.013511,41.225042,17.092506,11.426129,4635728995705421800.000000,0.554935,0.408939,0.609779,-0.391133,0
-9.875790,-0.302518,-0.165569,-0.020094,-0.009880,-0.002169,42.150248,-2.227491,19.740500,4635731680059981800.000000,-0.706424,0.078798,-0.701045,-0.057378,-9.631641,0.719655,-1.556153,-0.010224,-0.007935,-0.013428,36.083337,-18.818002,18.702903,4635727384555814900.000000,-0.557929,0.333821,-0.681204,-0.336511,-9.753716,-0.175190,-0.693679,0.012068,-0.001574,0.016528,41.202128,17.090364,11.265098,4635728995705421800.000000,0.554951,0.409000,0.609722,-0.391136,0
-9.851003,-0.290685,-0.131989,-0.022230,-0.014087,-0.003606,42.200993,-2.075258,20.002916,4635731680059981800.000000,-0.706446,0.078880,-0.701009,-0.057439,-9.625247,0.669667,-1.556734,-0.011750,-0.007528,-0.014954,35.714801,-18.439597,18.597689,4635727384555814900.000000,-0.557961,0.333892,-0.681140,-0.336517,-9.763779,-0.130647,-0.695822,0.015460,-0.002136,0.017090,41.199986,17.221200,11.230811,4635728995705421800.000000,0.554963,0.409069,0.609658,-0.391147,0
-9.799880,-0.305185,-0.121702,-0.026536,-0.011083,-0.001068,42.136547,-2.139705,20.232624,4635731680059981800.000000,-0.706456,0.078972,-0.700981,-0.057523,-9.600250,0.647574,-1.549759,-0.013988,-0.010224,-0.014954,36.068236,-18.457019,18.547114,4635727384555814900.000000,-0.557998,0.333965,-0.681067,-0.336532,-9.725666,-0.152267,-0.705886,0.021306,-0.001256,0.018852,41.270436,17.188675,11.472351,4635728995705421800.000000,0.554966,0.409158,0.609582,-0.391167,0
-9.778130,-0.295272,-0.095365,-0.033579,-0.012015,0.001100,42.072037,-2.303350,20.046560,4635731680059981800.000000,-0.706466,0.079079,-0.700949,-0.057636,-9.589205,0.665593,-1.550920,-0.017141,-0.012309,-0.016632,37.134855,-19.424813,18.480849,4635727384555814900.000000,-0.558038,0.334047,-0.680982,-0.336556,-9.696967,-0.158696,-0.708029,0.025953,-0.003710,0.023629,41.295501,17.105375,11.674733,4635728995705421800.000000,0.554976,0.409265,0.609486,-0.391192,0
-9.783086,-0.290683,-0.144562,-0.039987,-0.028800,0.007742,42.179975,-2.340424,19.679525,4635731680059981800.000000,-0.706522,0.079180,-0.700869,-0.057790,-9.588627,0.671407,-1.556155,-0.020396,-0.012258,-0.019277,37.917882,-20.221231,18.617401,4635727384555814900.000000,-0.558077,0.334144,-0.680889,-0.336582,-9.692678,-0.158696,-0.677841,0.029345,-0.006034,0.028089,41.297646,17.221181,11.706900,4635728995705421800.000000,0.554992,0.409388,0.609371,-0.391219,0
-9.770510,-0.295272,-0.180448,-0.044228,-0.056340,0.014986,42.279195,-2.176767,19.635568,4635731680059981800.000000,-0.706655,0.079265,-0.700710,-0.057987,-9.557242,0.671407,-1.537556,-0.024668,-0.011750,-0.021413,38.023751,-20.120194,18.858664,4635727384555814900.000000,-0.558112,0.334258,-0.680788,-0.336615,-9.662490,-0.209010,-0.681470,0.040474,-0.005528,0.035884,41.217143,17.319500,11.545896,4635728907195490300.000000,0.555001,0.409557,0.609226,-0.391256,0
-9.696904,-0.265903,-0.124005,-0.046597,-0.073734,0.022495,42.251754,-2.109950,19.791226,4635731680059981800.000000,-0.706835,0.079333,-0.700500,-0.058220,-9.533982,0.665015,-1.564279,-0.028382,-0.013428,-0.025787,37.932486,-19.839383,18.843614,4635727384555814900.000000,-0.558153,0.334391,-0.680672,-0.336650,-9.625871,-0.149303,-0.673553,0.040085,-0.010623,0.041787,41.199986,17.203712,11.280167,4635728888331239400.000000,0.555033,0.409732,0.609059,-0.391286,0
-9.606865,-0.254059,-0.078200,-0.052604,-0.081243,0.033609,42.166305,-2.195398,19.814550,4635731680059981800.000000,-0.707033,0.079386,-0.700271,-0.058508,-9.533982,0.652808,-1.560820,-0.033264,-0.017191,-0.029959,37.936520,-19.891618,18.801704,4635727384555814900.000000,-0.558203,0.334541,-0.680535,-0.336695,-9.589253,-0.164462,-0.671407,0.038641,-0.009989,0.050648,41.199986,17.175816,11.230811,4635728888331239400.000000,0.555080,0.409928,0.608881,-0.391292,0
-9.545835,-0.332963,-0.075544,-0.059414,-0.092790,0.044924,42.150217,-2.280839,19.763786,4635731680059981800.000000,-0.707259,0.079423,-0.700009,-0.058852,-9.495637,0.646992,-1.519535,-0.040791,-0.023700,-0.034891,37.977230,-20.052670,18.899357,4635727384555814900.000000,-0.558269,0.334714,-0.680365,-0.336759,-9.441958,-0.341941,-0.651285,0.059581,-0.007853,0.064664,41.270413,17.236183,11.391787,4635728888331239400.000000,0.555109,0.410210,0.608650,-0.391314,0
-9.484790,-0.521411,-0.016439,-0.059785,-0.106043,0.061244,42.300100,-2.296926,19.679545,4635731636473463800.000000,-0.707520,0.079408,-0.699714,-0.059248,-9.473518,0.698113,-1.571229,-0.051013,-0.030568,-0.044045,38.021961,-20.003924,18.792528,4635727384555814900.000000,-0.558352,0.334927,-0.680152,-0.336840,-9.230849,-0.559489,-0.616816,0.133621,-0.011878,0.084016,41.215026,17.188707,11.345659,4635728888331239400.000000,0.555053,0.410706,0.608255,-0.391487,0
-9.443571,-0.743510,0.053789,-0.046197,-0.120801,0.081046,42.410424,-2.280878,19.561219,4635731572685799400.000000,-0.707823,0.079289,-0.699385,-0.059665,-9.568223,0.719091,-1.655535,-0.049343,-0.039263,-0.053608,38.107414,-19.922482,18.557061,4635727384555814900.000000,-0.558475,0.335151,-0.679907,-0.336906,-9.443633,-0.638396,-0.630487,0.216241,-0.013698,0.103430,41.139637,17.105408,11.258062,4635728888331239400.000000,0.554891,0.411440,0.607688,-0.391826,0
-9.485914,-0.832012,0.061037,-0.021864,-0.131182,0.092128,42.230752,-2.396083,19.613100,4635731572685799400.000000,-0.708161,0.079065,-0.699035,-0.060049,-9.726910,0.619150,-1.659064,-0.027631,-0.053807,-0.061593,38.148136,-20.011932,18.469801,4635727384555814900.000000,-0.558681,0.335327,-0.679648,-0.336912,-9.960042,-0.526292,-0.624727,0.237761,-0.012126,0.115616,41.056334,17.150714,11.393893,4635728888331239400.000000,0.554708,0.412256,0.607068,-0.392189,0
-9.687304,-0.677156,0.075911,0.000999,-0.146766,0.096768,42.072044,-2.490310,19.678333,4635731572685799400.000000,-0.708551,0.078757,-0.698646,-0.060386,-9.821708,0.587660,-1.571913,-0.003825,-0.072572,-0.069629,38.065094,-20.048671,18.418699,4635727384555814900.000000,-0.558985,0.335443,-0.679367,-0.336858,-10.280183,-0.349629,-0.612519,0.225183,-0.006469,0.124537,41.242457,17.042909,11.345663,4635728888331239400.000000,0.554546,0.413074,0.606466,-0.392489,0
-9.935288,-0.400962,0.092701,0.017991,-0.183752,0.087456,42.214705,-2.425853,19.633710,4635731572685799400.000000,-0.709056,0.078417,-0.698149,-0.060657,-9.756124,0.660905,-1.520106,-0.002484,-0.088396,-0.084322,37.983051,-19.918503,18.365754,4635727384555814900.000000,-0.559356,0.335576,-0.679031,-0.336789,-10.468262,-0.347564,-0.600313,0.201935,-0.000941,0.127801,41.406123,16.956778,11.087100,4635728888331239400.000000,0.554415,0.413855,0.605908,-0.392713,0
-10.002451,-0.140425,0.169717,0.019395,-0.208088,0.062193,42.290293,-2.232478,19.484202,4635731572685799400.000000,-0.709637,0.078136,-0.697572,-0.060855,-9.584641,0.970533,-1.640921,-0.021911,-0.087848,-0.104059,38.021951,-19.926472,18.417432,4635727328362510300.000000,-0.559726,0.335811,-0.678641,-0.336727,-10.307286,-0.313787,-0.608220,0.185288,0.011440,0.129058,41.301188,17.134956,11.196402,4635728888331239400.000000,0.554283,0.414621,0.605403,-0.392870,0
-9.928845,-0.064062,0.317757,0.013653,-0.191578,0.029917,42.154094,-2.151893,19.326250,4635731572685799400.000000,-0.710178,0.077964,-0.697031,-0.060961,-9.484584,1.393213,-1.892580,-0.027523,-0.092308,-0.121608,38.152113,-20.007935,18.520904,4635727277181632500.000000,-0.560124,0.336102,-0.678208,-0.336646,-9.663087,0.117152,-0.710927,0.156257,0.013886,0.126606,41.283287,17.175816,11.311256,4635729065226790900.000000,0.554190,0.415317,0.604955,-0.392955,0
-9.843756,-0.211291,0.339145,0.015653,-0.146480,0.000506,42.242115,-2.384944,19.280446,4635731572685799400.000000,-0.710592,0.077917,-0.696611,-0.060995,-9.562355,1.160770,-1.994497,-0.035284,-0.104827,-0.135393,38.227199,-19.918525,18.516369,4635727277181632500.000000,-0.560567,0.336432,-0.677715,-0.336573,-9.533982,0.096916,-0.883275,0.125093,0.005967,0.128681,41.416158,17.045096,11.248027,4635729103079604200.000000,0.554174,0.415934,0.604536,-0.392971,0
-9.889096,-0.406238,0.322349,0.030904,-0.121166,-0.014552,42.509571,-2.553276,19.203442,4635731572685799400.000000,-0.710943,0.077857,-0.696267,-0.060914,-9.675777,0.818460,-1.920692,-0.024649,-0.115147,-0.142672,38.221378,-19.837030,18.514501,4635727277181632500.000000,-0.561063,0.336744,-0.677202,-0.336467,-9.815533,0.012912,-0.995998,0.105555,-0.002766,0.119568,41.574853,16.956788,11.230811,4635729103079604200.000000,0.554199,0.416468,0.604145,-0.392973,0
-9.987954,-0.495548,0.349420,0.044862,-0.108498,-0.012755,42.569152,-2.368731,19.075217,4635731572685799400.000000,-0.711261,0.077748,-0.695965,-0.060788,-9.730425,0.817334,-1.841631,-0.000362,-0.124562,-0.143641,38.183070,-19.837030,18.504173,4635727277181632500.000000,-0.561621,0.336988,-0.676699,-0.336303,-9.755139,0.100542,-0.993106,0.075270,-0.006912,0.116617,41.663155,16.883551,11.150378,4635729103079604200.000000,0.554282,0.416917,0.603798,-0.392912,0
-9.983361,-0.532899,0.353650,0.039658,-0.065303,-0.000772,42.453959,-2.202653,19.147259,4635731529094432800.000000,-0.711450,0.077625,-0.695794,-0.060692,-9.792016,0.729087,-1.723711,0.004880,-0.123200,-0.145925,38.186436,-19.792346,18.361842,4635727277181632500.000000,-0.562185,0.337227,-0.676204,-0.336116,-9.568438,0.081858,-0.898314,0.044797,-0.015395,0.117308,41.686129,16.739930,11.052721,4635729103079604200.000000,0.554440,0.417284,0.603480,-0.392788,0
-10.082104,-0.657627,0.183599,0.035080,-0.055162,0.013547,42.359688,-2.315537,19.268238,4635731465311617000.000000,-0.711604,0.077479,-0.695657,-0.060651,-9.782280,0.512396,-1.622468,0.022047,-0.125776,-0.145122,38.304356,-19.662220,18.268100,4635727333323396100.000000,-0.562779,0.337421,-0.675727,-0.335887,-9.654629,-0.017241,-0.888987,0.044800,-0.020609,0.116617,41.617903,16.651612,11.035493,4635729103079604200.000000,0.554610,0.417640,0.603151,-0.392675,0
-10.190528,-0.709975,-0.051838,0.045156,-0.108921,0.023298,42.389412,-2.417066,19.235859,4635731465311617000.000000,-0.711914,0.077264,-0.695365,-0.060630,-9.626631,0.416722,-1.528968,0.031291,-0.131382,-0.142622,38.380077,-19.625349,18.268658,4635727384555814900.000000,-0.563398,0.337578,-0.675252,-0.335645,-9.600039,0.073971,-0.881086,0.049449,-0.026641,0.110270,41.542507,16.699014,11.196356,4635729103079604200.000000,0.554776,0.417982,0.602811,-0.392598,0
-10.054835,-0.579942,-0.060331,0.059476,-0.165144,0.019800,42.432934,-2.451741,19.138202,4635731465311617000.000000,-0.712392,0.077006,-0.694909,-0.060578,-9.547300,0.547394,-1.515939,0.022795,-0.133616,-0.147040,38.341789,-19.755465,18.223432,4635727384555814900.000000,-0.564017,0.337764,-0.674755,-0.335419,-9.522488,0.198199,-0.718070,0.053722,-0.029531,0.105432,41.529587,16.711935,11.150380,4635729103079604200.000000,0.554934,0.418316,0.602467,-0.392548,0
-9.823597,-0.424250,0.111285,0.077031,-0.196230,0.009350,42.467611,-2.502518,19.119802,4635731465311617000.000000,-0.712967,0.076721,-0.694360,-0.060458,-9.730137,0.628404,-1.588073,0.015876,-0.132305,-0.152284,38.351501,-19.747692,18.125773,4635727384555814900.000000,-0.564630,0.337982,-0.674242,-0.335199,-9.630200,0.350419,-0.633351,0.029846,-0.027269,0.093244,41.459217,16.711935,11.062783,4635729191501612000.000000,0.555108,0.418568,0.602187,-0.392463,0
-9.739205,-0.371174,0.236546,0.091024,-0.201355,0.004273,42.553053,-2.467851,19.177830,4635731465311617000.000000,-0.713563,0.076407,-0.693798,-0.060283,-9.926834,0.558772,-1.604997,0.013934,-0.128688,-0.154372,38.468851,-19.532135,18.079165,4635727328433672200.000000,-0.565232,0.338216,-0.673732,-0.334974,-9.776671,-0.184441,-0.602475,0.036001,-0.009114,0.081118,41.373774,16.772242,11.047700,4635729210453786600.000000,0.555206,0.418833,0.601960,-0.392389,0
-9.857697,-0.373478,0.153059,0.100728,-0.202030,0.009038,42.598885,-2.387357,19.058994,4635731465311617000.000000,-0.714162,0.076049,-0.693238,-0.060093,-9.916023,0.538787,-1.599170,0.012163,-0.133761,-0.159348,38.538773,-19.365107,18.021739,4635727389427087400.000000,-0.565853,0.338461,-0.673200,-0.334749,-9.842749,-0.345389,-0.578061,0.099136,-0.003582,0.078163,41.429039,16.785179,10.967292,4635729210453786600.000000,0.555174,0.419246,0.601649,-0.392470,0
-10.074433,-0.321664,0.058392,0.115188,-0.239996,0.018621,42.591629,-2.343822,18.805639,4635731465311617000.000000,-0.714872,0.075611,-0.692570,-0.059902,-9.748718,0.586511,-1.573645,0.000121,-0.139976,-0.168452,38.494103,-19.330701,18.020348,4635727491929997300.000000,-0.566486,0.338750,-0.672623,-0.334544,-9.871477,0.339504,-0.583799,0.124468,0.000313,0.058627,41.504441,16.724873,10.869633,4635729210453786600.000000,0.555057,0.419675,0.601338,-0.392654,0
-10.139067,-0.196955,0.076223,0.120499,-0.276276,0.021565,42.626280,-2.373522,18.729135,4635731465311617000.000000,-0.715687,0.075137,-0.691796,-0.059713,-9.624707,0.521596,-1.524818,-0.012453,-0.146020,-0.177506,38.542648,-19.291863,18.118001,4635727491929997300.000000,-0.567130,0.339087,-0.672001,-0.334362,-9.795391,0.438047,-0.596005,0.100729,0.003706,0.036888,41.587726,16.651637,10.852382,4635729210453786600.000000,0.554937,0.420000,0.601112,-0.392822,0
-10.036115,-0.085113,0.183788,0.133032,-0.285456,0.019862,42.711737,-2.451720,18.787193,4635731421766565900.000000,-0.716531,0.074626,-0.690996,-0.059483,-9.575327,0.292178,-1.482371,-0.041701,-0.164007,-0.195541,38.751823,-19.244695,18.068918,4635727491929997300.000000,-0.567808,0.339517,-0.671270,-0.334244,-9.627387,0.497606,-0.668510,0.099462,0.003393,0.012888,41.663128,16.638691,10.852382,4635729210453786600.000000,0.554780,0.420261,0.600930,-0.393043,0
-9.874779,0.040276,0.201902,0.154739,-0.297467,0.018360,42.757585,-2.537170,18.712938,4635731445021954000.000000,-0.717416,0.074052,-0.690165,-0.059190,-9.476011,0.063551,-1.420230,-0.107025,-0.198016,-0.206056,38.957691,-19.238867,17.828389,4635727491929997300.000000,-0.568503,0.340083,-0.670351,-0.334332,-9.494524,0.432315,-0.753961,0.214719,-0.029331,-0.023111,41.736374,16.698988,10.691589,4635729210453786600.000000,0.554445,0.420645,0.600546,-0.393693,0
-9.726329,0.220396,0.136922,0.164957,-0.301997,0.020122,42.750328,-2.488986,18.559540,4635731572685799400.000000,-0.718315,0.073443,-0.689321,-0.058877,-9.469320,-0.069619,-1.232718,-0.132988,-0.233531,-0.186155,38.994622,-19.149560,17.637495,4635727491929997300.000000,-0.569231,0.340605,-0.669339,-0.334589,-9.573429,0.224133,-0.819308,0.389613,-0.086433,-0.103763,41.678982,16.842564,10.576676,4635729210453786600.000000,0.553812,0.421136,0.599883,-0.395066,0
-9.727650,0.263284,0.208185,0.175263,-0.291142,0.026300,42.784969,-2.309179,18.449677,4635731572685799400.000000,-0.719183,0.072789,-0.688512,-0.058550,-9.547288,-0.428236,-0.920072,-0.098886,-0.283529,-0.150860,38.909176,-19.067965,17.590868,4635727491929997300.000000,-0.570096,0.340878,-0.668305,-0.334905,-9.705548,0.203207,-0.669334,0.403455,-0.095443,-0.151284,41.533244,16.930920,10.639789,4635729210453786600.000000,0.553098,0.421525,0.599258,-0.396598,0
-9.864218,0.239519,0.265931,0.190416,-0.292526,0.024512,42.830831,-2.327621,18.310152,4635731572685799400.000000,-0.720059,0.072094,-0.687702,-0.058174,-9.481317,-0.739917,-0.584663,-0.029425,-0.318962,-0.117893,38.868374,-19.112607,17.590868,4635727491929997300.000000,-0.571112,0.340844,-0.667329,-0.335156,-9.488147,0.478824,-0.423775,0.221008,-0.063414,-0.113246,41.434835,17.014212,10.657063,4635729122072709100.000000,0.552685,0.421640,0.598940,-0.397530,0
-9.847794,0.313079,0.179847,0.204735,-0.319625,0.007771,42.858195,-2.364972,18.156722,4635731572685799400.000000,-0.721019,0.071397,-0.686807,-0.057715,-9.246654,-0.513990,-0.420882,0.027788,-0.299751,-0.122024,38.868374,-19.153416,17.488837,4635727491929997300.000000,-0.572160,0.340711,-0.666471,-0.335209,-9.546838,0.135251,-0.288008,0.060458,-0.030239,-0.059655,41.550328,17.029327,10.576688,4635729103079604200.000000,0.552560,0.421573,0.598870,-0.397879,0
-9.593430,0.437788,0.095345,0.218391,-0.367693,-0.024790,42.973328,-2.166700,18.046853,4635731572685799400.000000,-0.722126,0.070740,-0.685759,-0.057132,-9.113099,0.114551,-0.402299,0.041195,-0.252517,-0.142765,38.957639,-19.108783,17.293532,4635727491929997300.000000,-0.573124,0.340670,-0.665714,-0.335109,-9.771537,-0.433408,-0.459448,-0.026476,-0.014018,-0.002733,41.638696,17.029327,10.398658,4635729103079604200.000000,0.552642,0.421476,0.598882,-0.397851,0
-9.392125,0.549647,0.198889,0.228408,-0.385031,-0.055396,43.102339,-2.118080,17.946885,4635731572685799400.000000,-0.723291,0.070137,-0.684651,-0.056435,-9.169934,0.590847,-0.358760,0.052767,-0.195160,-0.149683,39.077528,-19.067965,17.251235,4635727491929997300.000000,-0.573954,0.340699,-0.665100,-0.334878,-9.905182,-0.758178,-0.580886,-0.084360,-0.002079,0.056711,41.591373,17.029327,10.444468,4635729103079604200.000000,0.552894,0.421413,0.598912,-0.397522,0
-9.590579,0.482096,0.398839,0.231125,-0.345143,-0.051337,43.182845,-2.270577,17.777357,4635731572685799400.000000,-0.724339,0.069526,-0.683662,-0.055733,-9.267593,0.644818,-0.437983,0.068089,-0.138228,-0.156650,39.112518,-18.978708,17.348894,4635727491929997300.000000,-0.574658,0.340791,-0.664632,-0.334507,-10.015041,-0.976485,-0.839288,-0.097513,-0.010549,0.120918,41.518136,16.959000,10.773197,4635729103079604200.000000,0.553297,0.421466,0.598832,-0.397026,0
-10.127391,0.062534,0.470830,0.232911,-0.322082,-0.031584,43.226414,-2.171664,17.558565,4635731572685799400.000000,-0.725315,0.068856,-0.682747,-0.055076,-9.441758,0.630040,-0.632757,0.088206,-0.085889,-0.152970,39.023263,-18.769551,17.389175,4635727435852660700.000000,-0.575239,0.340896,-0.664323,-0.334014,-10.215281,-1.133745,-1.202511,-0.089481,-0.042699,0.184303,41.575480,16.883611,10.840174,4635729103079604200.000000,0.553870,0.421642,0.598553,-0.396460,0
-10.405342,-0.428501,0.348138,0.252679,-0.368026,-0.035128,43.256085,-1.991813,17.453649,4635731529189850100.000000,-0.726427,0.068125,-0.681694,-0.054364,-9.711389,0.582704,-0.592743,0.133826,-0.039131,-0.144105,38.979865,-18.563666,17.383343,4635727384555814900.000000,-0.575743,0.340933,-0.664201,-0.333349,-10.394847,-1.149658,-1.470468,-0.083193,-0.082534,0.249086,41.721208,16.810362,10.679456,4635729103079604200.000000,0.554638,0.421928,0.598057,-0.395831,0
-10.292252,-0.430383,0.311038,0.282759,-0.447140,-0.064098,43.265054,-1.975582,17.356001,4635731465311617000.000000,-0.727775,0.067367,-0.680398,-0.053502,-9.832255,0.627429,-0.469716,0.202463,-0.008074,-0.133699,39.148700,-18.571233,17.389716,4635727384555814900.000000,-0.576244,0.340819,-0.664263,-0.332476,-10.575763,-0.866299,-1.754744,-0.122669,-0.141570,0.319504,41.809576,16.737130,10.644855,4635729103079604200.000000,0.555737,0.422200,0.597365,-0.395043,0
-10.089683,-0.185134,0.684281,0.301906,-0.485189,-0.095982,43.248806,-2.031372,17.139722,4635731465311617000.000000,-0.729240,0.066634,-0.678979,-0.052500,-9.757400,1.031953,-0.432019,0.195262,0.023325,-0.110429,39.354060,-18.735755,17.395550,4635727384555814900.000000,-0.576614,0.340701,-0.664423,-0.331633,-10.799035,-0.695224,-1.887033,-0.170923,-0.211618,0.392824,41.892860,16.593594,10.644855,4635729103079604200.000000,0.557215,0.422426,0.596459,-0.394087,0
-9.998159,-0.079918,1.249845,0.303302,-0.452765,-0.115286,43.363907,-2.004041,16.867717,4635731465311617000.000000,-0.730614,0.065961,-0.677649,-0.051430,-9.571063,1.739523,-0.504805,0.138664,0.035477,-0.091115,39.385304,-18.684159,17.242609,4635727384555814900.000000,-0.576844,0.340683,-0.664561,-0.330975,-10.930554,-1.012842,-1.793891,-0.205810,-0.280547,0.485857,41.918058,16.304349,10.494222,4635729103079604200.000000,0.559075,0.422687,0.595284,-0.392948,0
-10.029544,0.069178,1.511102,0.280948,-0.434711,-0.152339,43.522591,-1.849418,16.883714,4635731465311617000.000000,-0.731934,0.065468,-0.676355,-0.050309,-9.748003,1.480005,-0.591791,0.038093,0.032743,-0.092653,39.338088,-18.389051,17.096200,4635727384555814900.000000,-0.576941,0.340906,-0.664551,-0.330596,-10.799426,-1.287279,-1.619458,-0.272994,-0.344509,0.605892,41.910183,16.057275,10.230801,4635729103079604200.000000,0.561404,0.422981,0.593853,-0.391472,0
-9.997571,0.264788,1.499186,0.232779,-0.427208,-0.188071,43.582462,-1.598004,16.908704,4635731465311617000.000000,-0.733224,0.065220,-0.675061,-0.049208,-10.085988,0.662317,-0.815313,-0.101958,0.043007,-0.101614,39.376851,-18.225653,17.243270,4635727384555814900.000000,-0.576822,0.341505,-0.664361,-0.330569,-10.666510,-2.123921,-1.325872,-0.248481,-0.386447,0.746691,42.048602,15.955861,10.261310,4635729103079604200.000000,0.564018,0.423607,0.592029,-0.389798,0
-9.847605,0.551065,1.513718,0.138177,-0.466675,-0.172101,43.531601,-1.423037,16.666604,4635731465311617000.000000,-0.734593,0.065202,-0.673629,-0.048427,-9.800315,0.438397,-1.229296,-0.171976,0.065859,-0.105236,39.379478,-18.359445,17.434311,4635727384555814900.000000,-0.576545,0.342313,-0.664123,-0.330694,-10.514322,-2.656468,-1.169160,-0.123481,-0.430858,0.894395,42.209451,15.812335,10.198305,4635729103079604200.000000,0.566751,0.424813,0.589629,-0.388156,0
-9.448272,0.749305,1.652049,-0.001264,-0.536668,-0.112972,43.561242,-1.448602,16.373633,4635731465311617000.000000,-0.736106,0.065431,-0.671968,-0.048237,-9.255822,0.032834,-1.492502,-0.187066,0.100131,-0.097943,39.261646,-18.526601,17.379076,4635727384555814900.000000,-0.576141,0.343185,-0.663956,-0.330830,-10.606634,-2.101967,-0.926626,-0.072794,-0.451307,1.038457,42.378169,15.462907,10.100658,4635729103079604200.000000,0.569666,0.426451,0.586831,-0.386328,0
-8.894248,0.725178,1.825878,-0.115565,-0.468279,-0.060858,43.639432,-1.579988,16.164635,4635731465311617000.000000,-0.737381,0.065882,-0.670504,-0.048512,-9.045686,-0.476613,-1.365114,-0.119357,0.134772,-0.086892,39.313141,-18.522879,17.343002,4635727384555814900.000000,-0.575722,0.343911,-0.663981,-0.330754,-10.893670,-2.366963,-0.597833,0.066229,-0.483830,1.139421,42.418559,14.881532,9.932726,4635729103079604200.000000,0.572563,0.428603,0.583538,-0.384648,0
-8.359474,0.658334,1.411730,-0.215685,-0.383718,0.020468,43.690296,-1.559356,16.108831,4635731465311617000.000000,-0.738374,0.066428,-0.669299,-0.049291,-9.013845,-0.425166,-0.833871,0.004032,0.162310,-0.078301,39.512698,-18.392855,17.440126,4635727328542906400.000000,-0.575391,0.344354,-0.664255,-0.330318,-11.160866,-2.152510,-0.577283,0.198721,-0.515755,1.241823,42.611474,14.449701,9.749615,4635729103079604200.000000,0.575447,0.431257,0.579757,-0.383092,0
-7.953444,0.524637,0.886482,-0.313491,-0.421128,0.134165,43.690296,-1.534037,16.066990,4635731465311617000.000000,-0.739418,0.066946,-0.667989,-0.050700,-8.933704,0.163412,-0.531815,0.030377,0.195886,-0.083732,39.499455,-18.355682,17.481001,4635727277181632500.000000,-0.575013,0.344796,-0.664637,-0.329748,-11.316828,-1.234127,-0.445405,0.154345,-0.535311,1.342988,42.983964,14.129339,9.546425,4635729103079604200.000000,0.578601,0.434002,0.575799,-0.381208,0
-7.728497,0.379640,0.861227,-0.364361,-0.385748,0.221246,43.719930,-1.704937,15.858067,4635731465311617000.000000,-0.740326,0.067389,-0.666797,-0.052510,-8.848786,0.989208,-0.663946,-0.068759,0.241905,-0.121900,39.252153,-18.485700,17.531940,4635727277181632500.000000,-0.574417,0.345644,-0.664937,-0.329295,-11.210182,-1.110065,0.036662,0.126752,-0.544495,1.394197,43.256273,13.753917,9.358996,4635729103079604200.000000,0.581886,0.436772,0.571747,-0.379136,0
-7.484623,0.012286,0.578766,-0.378532,-0.309411,0.313712,43.798116,-1.841270,15.551388,4635731465311617000.000000,-0.740994,0.067637,-0.665860,-0.054626,-8.813745,1.569404,-0.858210,-0.221967,0.279944,-0.169644,39.100311,-18.567461,17.527721,4635727277181632500.000000,-0.573558,0.347042,-0.665048,-0.329096,-10.820576,-0.882145,0.284867,0.164312,-0.542310,1.415465,43.369934,13.172509,9.015246,4635728926476652500.000000,0.585107,0.439671,0.567580,-0.377084,0
-7.385756,-0.525079,0.063483,-0.376420,-0.244505,0.423879,43.883560,-1.921778,15.521378,4635731465311617000.000000,-0.741452,0.067586,-0.665151,-0.057058,-8.998377,1.122784,-0.990903,-0.378697,0.310453,-0.211902,39.265844,-18.433763,17.481001,4635727277181632500.000000,-0.572445,0.348972,-0.664953,-0.329185,-10.692330,0.053141,0.889494,0.208169,-0.557359,1.450116,43.455369,12.550041,8.646920,4635728888331239400.000000,0.588314,0.442716,0.563221,-0.375062,0
-7.728278,-0.980307,-0.532902,-0.380945,-0.197214,0.516483,43.934444,-2.069097,15.642622,4635731508748358700.000000,-0.741751,0.067300,-0.664608,-0.059771,-9.422398,0.331842,-1.228608,-0.463570,0.320772,-0.245668,39.417706,-18.311106,17.582856,4635727277181632500.000000,-0.571222,0.351210,-0.664714,-0.329412,-11.634931,-0.388142,1.635468,0.408087,-0.480863,1.468370,43.671289,12.118181,8.581804,4635728888331239400.000000,0.590976,0.446395,0.558678,-0.373308,0
-8.593730,-1.186998,-0.925157,-0.383213,-0.322975,0.587109,43.929507,-2.325440,15.457319,4635731572685799400.000000,-0.742373,0.066793,-0.663690,-0.062742,-9.713356,0.154433,-1.690351,-0.451928,0.302245,-0.252967,39.373138,-18.355672,17.778187,4635727277181632500.000000,-0.570074,0.353414,-0.664432,-0.329614,-10.616599,0.408574,0.445116,0.558598,-0.342373,1.343488,43.985725,11.727506,8.571767,4635728888331239400.000000,0.592816,0.450350,0.554451,-0.371938,0
-9.446289,-1.314271,-0.656504,-0.397131,-0.485858,0.630938,43.956796,-2.542282,15.099749,4635731572685799400.000000,-0.743421,0.066164,-0.662269,-0.065931,-9.842304,0.271700,-2.207790,-0.387578,0.267190,-0.252777,39.332253,-18.396557,17.769796,4635727277181632500.000000,-0.569114,0.355413,-0.664151,-0.329688,-9.970533,1.894902,-0.292897,0.499599,-0.273145,1.286103,44.184806,11.407185,8.499349,4635728888331239400.000000,0.594497,0.454118,0.550575,-0.370430,0
-10.069136,-1.351879,-0.149808,-0.437218,-0.520801,0.618834,44.007690,-2.775032,14.916638,4635731572685799400.000000,-0.744548,0.065680,-0.660717,-0.069200,-9.995150,0.335443,-2.645144,-0.259113,0.207203,-0.254685,39.332253,-18.352006,17.574487,4635727277181632500.000000,-0.568511,0.357030,-0.663900,-0.329489,-10.028485,3.146302,0.241561,0.447491,-0.182174,1.199738,44.345670,11.031768,8.243308,4635728888331239400.000000,0.595915,0.457684,0.547150,-0.368833,0
-10.910946,-1.193191,0.258488,-0.416158,-0.481566,0.547791,44.007690,-3.146440,14.659492,4635731572685799400.000000,-0.745583,0.065328,-0.659264,-0.072170,-10.376637,0.240487,-2.660257,-0.128857,0.144170,-0.243126,39.249506,-18.272914,17.633766,4635727333168771100.000000,-0.568258,0.358218,-0.663693,-0.329050,-8.724100,3.146278,0.689548,0.282008,-0.146932,0.994514,44.383949,10.510624,8.050662,4635728888331239400.000000,0.597239,0.460415,0.544445,-0.367292,0
-11.819359,-1.098666,0.356875,-0.349398,-0.389238,0.467554,44.071843,-3.462746,14.367336,4635731572685799400.000000,-0.746400,0.065017,-0.658090,-0.074681,-10.962556,-0.070423,-2.597984,-0.087725,0.092345,-0.231140,39.173557,-18.282411,17.875810,4635727384555814900.000000,-0.568193,0.359204,-0.663437,-0.328603,-7.401820,-0.501505,1.539507,0.145088,-0.126450,0.657102,44.396153,10.091829,8.020264,4635728888331239400.000000,0.598255,0.462065,0.542641,-0.366235,0
-12.247129,-1.296024,-0.237594,-0.331081,-0.381432,0.404605,44.235460,-3.564562,14.297719,4635731572685799400.000000,-0.747208,0.064870,-0.656920,-0.076997,-11.058492,-0.325311,-2.793799,-0.093576,0.040569,-0.211881,39.300817,-18.278771,18.020202,4635727384555814900.000000,-0.568235,0.360080,-0.663079,-0.328295,-5.773274,-4.673074,2.842813,0.284375,-0.062260,0.253065,44.448492,10.152712,7.859729,4635728888331239400.000000,0.598237,0.463245,0.541559,-0.366376,0
-12.484735,-1.453778,-0.577436,-0.315221,-0.494286,0.339981,44.273162,-3.732276,14.400301,4635731572685799400.000000,-0.748349,0.064777,-0.655384,-0.079057,-10.513630,-0.353498,-2.867706,-0.066628,-0.005132,-0.181508,39.417706,-18.237860,18.016059,4635727384555814900.000000,-0.568402,0.360745,-0.662694,-0.328053,-5.097636,-6.110303,2.877746,0.795268,0.123837,-0.095374,44.449328,10.371632,7.664392,4635728888331239400.000000,0.596278,0.465192,0.540829,-0.368175,0
-12.577355,-1.104501,-0.151363,-0.301218,-0.533927,0.259245,44.144075,-4.083165,14.357291,4635731572685799400.000000,-0.749621,0.064851,-0.653702,-0.080841,-10.136959,-0.449953,-2.927025,-0.036738,-0.051286,-0.160463,39.373174,-18.193330,17.867514,4635727384555814900.000000,-0.568712,0.361218,-0.662272,-0.327847,-4.997178,-6.904476,0.133381,1.477688,0.246441,-0.345373,44.386962,10.412915,7.709887,4635728888331239400.000000,0.592320,0.468447,0.539829,-0.371887,0
-12.166005,-0.908523,0.224665,-0.321067,-0.476690,0.186034,44.221362,-4.235969,14.034467,4635731572685799400.000000,-0.750753,0.065203,-0.652169,-0.082433,-10.190430,-0.657480,-3.028467,-0.034181,-0.104227,-0.141011,39.287723,-18.107878,17.716725,4635727384555814900.000000,-0.569145,0.361559,-0.661757,-0.327760,-6.818644,-4.505587,-0.642281,1.634891,0.201699,-0.539406,44.373913,10.603522,7.797510,4635728888331239400.000000,0.587827,0.471563,0.538827,-0.376501,0
-11.668810,-1.095202,0.172758,-0.367183,-0.471729,0.126464,44.474648,-4.201446,13.715456,4635731572685799400.000000,-0.751873,0.065863,-0.650614,-0.083962,-10.330041,-0.667798,-2.899175,-0.004123,-0.156476,-0.113104,39.246803,-18.066957,17.619582,4635727384555814900.000000,-0.569730,0.361680,-0.661201,-0.327734,-7.997068,-1.778264,-0.663551,1.410883,0.180094,-0.776176,44.434103,10.975910,7.892994,4635728888331239400.000000,0.583424,0.473541,0.538563,-0.381215,0
