Accelerometer-X,Accelerometer-Y,Accelerometer-Z,Gyroscope-X,Gyroscope-Y,Gyroscope-Z,Magnetometer-X,Magnetometer-Y,Magnetometer-Z,Barometer-pressure,Orientation-S,Orientation-X,Orientation-Y,Orientation-Z,Accelerometer-X,Accelerometer-Y,Accelerometer-Z,Gyroscope-X,Gyroscope-Y,Gyroscope-Z,Magnetometer-X,Magnetometer-Y,Magnetometer-Z,Barometer-pressure,Orientation-S,Orientation-X,Orientation-Y,Orientation-Z,Accelerometer-X,Accelerometer-Y,Accelerometer-Z,Gyroscope-X,Gyroscope-Y,Gyroscope-Z,Magnetometer-X,Magnetometer-Y,Magnetometer-Z,Barometer-pressure,Orientation-S,Orientation-X,Orientation-Y,Orientation-Z,jump
-7.721248,4.232397,-1.213475,-0.828068,-0.027854,-0.334558,40.751741,8.907975,17.839817,4635731357937434600.000000,-0.686966,-0.123415,-0.702804,0.137525,-5.828972,-6.272520,3.151272,-0.571130,-1.944326,0.748466,43.147003,-0.136187,16.886902,4635726955059085300.000000,-0.686565,0.295843,-0.649284,-0.139769,-8.600217,-3.460428,-1.311858,-0.237152,-0.190113,0.136050,36.405410,26.590995,-1.095867,4635728995705421800.000000,0.260008,0.605245,0.437906,-0.611811,0
-7.452401,3.657806,-1.549250,-0.923447,0.166035,-0.278162,40.729783,8.826497,17.837632,4635731357937434600.000000,-0.686768,-0.120032,-0.703963,0.135563,-5.402776,-7.937288,1.766093,-1.213796,-1.746005,0.603400,43.417982,-0.414119,16.211793,4635726955059085300.000000,-0.689439,0.296648,-0.644275,-0.146912,-8.883333,-3.527940,-1.528703,-0.216067,-0.208525,0.240442,36.426891,26.313533,-1.113797,4635728995705421800.000000,0.261561,0.604920,0.437597,-0.611692,0
-7.307707,3.300527,-1.572430,-0.998739,0.265977,-0.285206,40.513496,8.777122,18.032935,4635731357937434600.000000,-0.686298,-0.116468,-0.705442,0.133349,-4.083253,-9.420021,0.464795,-2.108450,-1.459920,0.383032,43.601093,-0.734520,15.643492,4635726955059085300.000000,-0.690505,0.300761,-0.639202,-0.155454,-9.331892,-3.281214,-1.465099,-0.206427,-0.230421,0.342996,36.426891,26.297676,-1.208392,4635728995705421800.000000,0.263389,0.604734,0.436980,-0.611532,0
-7.332948,3.128125,-1.424013,-1.080856,0.410452,-0.335313,40.434347,8.804964,18.196435,4635731392921343000.000000,-0.685400,-0.112599,-0.707387,0.130964,-3.573377,-10.561826,-0.218787,-3.105834,-1.135647,0.199812,43.816870,-1.187672,15.076536,4635726955059085300.000000,-0.689470,0.308397,-0.634088,-0.165695,-9.640435,-2.896774,-1.190669,-0.206684,-0.248055,0.438876,36.545689,26.264331,-1.232948,4635728995705421800.000000,0.265495,0.604676,0.436100,-0.611308,0
-7.315935,2.904255,-1.539895,-1.145590,0.563863,-0.395450,40.519796,8.755200,18.298068,4635731465311617000.000000,-0.684029,-0.108449,-0.709813,0.128484,-4.074175,-10.984198,-0.506462,-3.910080,-0.865908,0.155634,43.969747,-1.720783,14.638971,4635726955059085300.000000,-0.686557,0.318576,-0.628988,-0.177546,-9.759709,-2.740672,-1.046913,-0.208820,-0.260078,0.532865,36.768332,25.953525,-1.232948,4635728995705421800.000000,0.267865,0.604751,0.434972,-0.611002,0
-7.527771,2.979166,-1.781441,-1.212255,0.735132,-0.447681,40.525722,8.481289,18.531177,4635731465311617000.000000,-0.682130,-0.104042,-0.712762,0.125875,-4.560634,-10.533120,-0.663156,-4.456721,-0.627093,0.169359,43.879830,-2.261857,14.403077,4635726955059085300.000000,-0.682066,0.330360,-0.623987,-0.190494,-9.814677,-2.749662,-1.098517,-0.225347,-0.285150,0.632455,36.829735,25.855280,-1.306043,4635729156438117400.000000,0.270575,0.604920,0.433604,-0.610614,0
-8.140718,2.842308,-1.899260,-1.272395,0.902546,-0.474807,40.319315,8.457772,19.142724,4635731465311617000.000000,-0.679716,-0.099467,-0.716200,0.123086,-4.916143,-8.959786,-0.851249,-4.844836,-0.389644,0.181630,43.762224,-2.800479,14.175089,4635726955059085300.000000,-0.676154,0.343280,-0.619132,-0.204083,-9.799549,-3.142622,-1.086534,-0.224324,-0.299068,0.734729,36.893694,25.800459,-1.403702,4635729210453786600.000000,0.273565,0.605233,0.431954,-0.610140,0
-8.881393,2.494228,-1.985831,-1.329501,0.971245,-0.473209,40.034009,8.658465,19.850415,4635731465311617000.000000,-0.677089,-0.094765,-0.719825,0.120088,-5.079443,-7.096893,-2.594037,-5.056191,-0.253586,0.312865,43.895497,-3.457124,13.863014,4635726955059085300.000000,-0.669186,0.356428,-0.614404,-0.218304,-9.698980,-3.646151,-1.266103,-0.202190,-0.306813,0.866039,37.527283,25.087716,-1.428266,4635729210453786600.000000,0.276843,0.605780,0.429901,-0.609568,0
-9.574055,2.037192,-2.025304,-1.380971,0.956112,-0.395900,39.766020,8.636579,20.145347,4635731465311617000.000000,-0.674532,-0.090138,-0.723366,0.116717,-4.765546,-6.421878,-4.874965,-4.990228,-0.050552,0.646125,44.060640,-4.316067,13.496797,4635726955059085300.000000,-0.661197,0.368568,-0.610525,-0.232884,-9.750482,-3.735546,-1.111357,-0.212257,-0.340669,1.005432,38.399969,24.114304,-1.364318,4635729130100324400.000000,0.280557,0.606468,0.427476,-0.608892,0
-9.806808,1.786824,-2.199602,-1.432212,0.845130,-0.281470,39.500320,8.392450,20.327027,4635731465311617000.000000,-0.672350,-0.085654,-0.726540,0.112907,-4.506007,-7.041941,-7.160192,-4.384861,0.191701,1.177542,43.982968,-5.240839,13.342844,4635726955059085300.000000,-0.652742,0.377779,-0.608474,-0.246922,-9.851213,-3.951643,-0.717890,-0.263465,-0.365809,1.133900,38.806934,23.573140,-1.488981,4635729103079604200.000000,0.284765,0.607247,0.424815,-0.608023,0
-9.305184,1.693998,-2.228863,-1.435866,0.750454,-0.224884,39.369447,8.152285,20.691809,4635731465311617000.000000,-0.670451,-0.081282,-0.729396,0.108956,-5.467418,-7.755317,-7.166591,-3.389241,0.460503,1.815426,43.833995,-6.147004,13.496222,4635726955059085300.000000,-0.644313,0.382827,-0.608995,-0.259670,-9.994536,-4.412084,-0.391147,-0.230831,-0.329885,1.278843,38.996253,23.182539,-1.675148,4635729103079604200.000000,0.289187,0.608395,0.421736,-0.606932,0
-9.017589,1.678329,-1.893888,-1.379418,0.919094,-0.186340,39.320045,7.968042,21.084708,4635731395429499900.000000,-0.668005,-0.077257,-0.732648,0.105007,-8.791675,-7.088018,-5.101625,-1.777132,0.100429,2.482751,43.783839,-7.294984,13.496984,4635726955059085300.000000,-0.638512,0.381386,-0.611230,-0.270638,-9.979682,-4.111859,-0.472670,-0.241871,-0.290597,1.448098,39.285894,22.627502,-1.721244,4635729103079604200.000000,0.293985,0.609904,0.418287,-0.605496,0
-9.044221,1.800218,-2.031605,-1.268248,0.870213,-0.121290,39.244587,7.886569,21.347525,4635731250563252200.000000,-0.665672,-0.073716,-0.735663,0.101227,-20.827644,-27.327055,18.982644,1.126061,-0.733664,2.889803,43.845166,-8.255578,13.229742,4635726955059085300.000000,-0.638882,0.370180,-0.615063,-0.276575,-10.399618,-2.688807,-0.680177,-0.350905,-0.377886,1.565722,39.551532,22.126782,-1.721244,4635729103079604200.000000,0.299498,0.611239,0.414689,-0.603921,0
-9.267047,1.390147,-2.195673,-1.216392,0.267222,-0.029518,39.012646,7.702123,21.750369,4635731250563252200.000000,-0.665188,-0.070343,-0.736929,0.097534,-51.284838,-105.098487,19.292800,2.001958,-0.164717,-0.439814,44.011941,-8.233730,13.155741,4635726955059085300.000000,-0.642903,0.365786,-0.616207,-0.270493,-10.008380,-2.020925,-0.284953,-0.512388,-0.411767,1.683167,39.859600,21.836431,-1.730376,4635729103079604200.000000,0.305760,0.612458,0.411133,-0.601976,0
-9.143313,0.635501,-0.650899,-1.268558,-0.053396,0.074013,38.832335,7.263242,22.093642,4635731250563252200.000000,-0.665727,-0.067011,-0.737277,0.093485,-80.917140,-125.611643,-31.954375,1.192801,-0.201072,-1.648468,44.087699,-7.828923,13.257240,4635726955059085300.000000,-0.647099,0.366594,-0.614453,-0.263286,-8.913712,-2.525456,-1.230179,-0.576213,-0.446666,1.820656,40.243994,21.376178,-1.797379,4635729103079604200.000000,0.312572,0.613706,0.407317,-0.599798,0
-8.840946,0.045304,1.613416,-1.354807,0.067721,0.167646,38.727326,7.013225,22.206150,4635731285491427300.000000,-0.665935,-0.063773,-0.737946,0.088875,-49.135757,20.423080,-34.318843,3.269248,-0.296553,3.264841,43.879648,-8.272498,13.306202,4635726955059085300.000000,-0.649178,0.349039,-0.622087,-0.264098,-10.816279,-4.466555,-1.407388,-0.436975,-0.513373,1.993885,40.655973,20.601608,-1.891963,4635729103079604200.000000,0.319551,0.615217,0.402593,-0.597757,0
-10.127952,-1.763240,4.710256,-1.603734,-0.071003,0.357614,38.560399,7.257363,22.132023,4635731357937434600.000000,-0.666680,-0.060374,-0.738243,0.083006,15.271158,126.529287,-29.782812,4.167547,1.271106,3.976036,43.308339,-9.288173,13.802254,4635726955059085300.000000,-0.647402,0.328766,-0.635679,-0.262100,-14.299826,-6.396178,-0.301837,-0.226340,-0.452837,2.204755,40.961411,19.801955,-1.907431,4635729103079604200.000000,0.326388,0.617463,0.396850,-0.595584,0
-11.185364,-5.375214,5.988127,-1.308756,0.280881,0.530341,38.481117,7.235464,22.203500,4635731357937434600.000000,-0.666301,-0.058445,-0.739341,0.077473,15.886375,56.889171,-39.525750,-0.497074,2.838609,2.203982,42.691449,-9.992922,14.903952,4635726955059085300.000000,-0.636752,0.327342,-0.645714,-0.265421,-15.240894,-6.428327,-0.754700,0.062125,-0.458948,2.343293,41.275619,19.084622,-2.050451,4635729103079604200.000000,0.332807,0.620256,0.389989,-0.593659,0
-12.362560,-7.326345,4.207509,-0.767673,0.429287,0.732753,38.622143,6.554573,22.427185,4635731357937434600.000000,-0.665379,-0.058687,-0.740605,0.073006,-24.416076,-8.204792,-29.672164,-3.777506,3.579379,-0.205416,42.382655,-10.382088,15.943700,4635726955059085300.000000,-0.622078,0.341809,-0.650575,-0.270070,-15.183130,-5.346318,-1.947654,0.232876,-0.596221,2.467164,41.714791,18.388800,-2.382735,4635729263709216800.000000,0.339278,0.623081,0.382154,-0.592130,0
-14.360004,-8.798635,5.916024,-0.338704,0.224072,1.053944,38.822915,5.675077,22.563849,4635731357937434600.000000,-0.665069,-0.061046,-0.741075,0.069022,-61.195993,8.141846,-26.687484,-1.982691,2.476986,-0.367653,42.270027,-10.799975,16.587617,4635726955059085300.000000,-0.612929,0.350713,-0.654159,-0.270914,-16.220666,-4.098198,-0.907142,0.313362,-0.810509,2.636871,42.145189,17.519572,-2.761130,4635729317827969000.000000,0.346259,0.625685,0.373328,-0.590973,0
-13.116998,-9.137173,5.409554,0.057137,0.279065,1.192861,38.828989,5.007751,22.498848,4635731392844030000.000000,-0.664513,-0.064946,-0.741530,0.065859,-62.941375,8.181360,-9.864146,-0.001279,1.492513,2.185090,42.014799,-11.421420,17.037847,4635727050706130900.000000,-0.606386,0.346437,-0.661098,-0.274274,-18.905689,-1.319317,2.789316,0.354023,-0.928317,2.627269,42.441545,16.527930,-3.130419,4635729317827969000.000000,0.353247,0.627957,0.364206,-0.590119,0
-11.986457,-8.261907,4.347984,0.302251,0.159393,1.216589,38.749659,4.733717,22.481159,4635731465311617000.000000,-0.664250,-0.069562,-0.741560,0.063419,-28.710033,5.009002,11.321182,1.531197,1.112549,2.442252,41.548036,-12.178289,17.435260,4635727169807450100.000000,-0.602723,0.337096,-0.669105,-0.274572,-20.904772,-0.789571,4.219748,0.162393,-0.838276,2.414300,42.752676,15.578623,-3.432734,4635729317827969000.000000,0.360032,0.629767,0.356199,-0.588977,0
-12.367025,-7.038467,4.246641,0.570259,0.036821,1.116293,38.858913,4.571060,22.519301,4635731465311617000.000000,-0.664244,-0.074576,-0.741188,0.062119,-15.696406,23.982233,12.710635,1.572143,0.371714,1.348011,41.165934,-12.636095,17.825870,4635727169807450100.000000,-0.602361,0.329815,-0.673680,-0.273016,-20.419537,-5.674451,1.540321,0.503221,-0.777947,2.407964,43.082247,14.760484,-3.640452,4635729317827969000.000000,0.365776,0.632153,0.347420,-0.588124,0
-12.944119,-5.358615,3.465031,0.682500,-0.263767,0.943428,38.969998,4.376341,22.497335,4635731465311617000.000000,-0.665071,-0.079287,-0.739989,0.061736,-22.215160,36.928554,6.952409,0.209861,0.346621,-0.213130,41.105094,-12.536709,18.211070,4635727169807450100.000000,-0.601951,0.330293,-0.674470,-0.271390,-20.811534,-6.639726,0.543394,0.939605,-0.794895,2.508569,43.475733,13.869698,-3.969606,4635729398117004300.000000,0.370596,0.635229,0.337238,-0.587719,0
-12.860200,-2.946017,2.406735,0.734462,-0.469662,0.703328,39.002040,4.183785,22.539752,4635731465311617000.000000,-0.666438,-0.083347,-0.738268,0.062244,-25.983049,29.967551,-4.160668,-2.306950,1.184693,-1.025487,41.030248,-12.353892,18.502498,4635727169807450100.000000,-0.596599,0.340291,-0.673351,-0.273625,-21.866992,-4.385775,1.519760,0.985272,-0.766511,2.384845,43.699079,13.051542,-4.411891,4635729425202151400.000000,0.374904,0.638188,0.327270,-0.587416,0
-12.771680,-0.266943,1.313203,0.650583,-0.538344,0.459135,39.130815,4.149902,22.378631,4635731465311617000.000000,-0.667971,-0.086402,-0.736448,0.063196,-22.852413,9.153239,-9.527228,-3.351498,1.264193,-1.399871,40.786119,-12.353892,18.560609,4635727169807450100.000000,-0.589852,0.353961,-0.670577,-0.277692,-21.359340,-4.492859,1.508714,1.003408,-0.746925,2.214116,43.921657,12.160773,-4.948771,4635729425202151400.000000,0.378674,0.640914,0.317702,-0.587282,0
-12.299901,2.883431,1.126292,0.617725,-0.541859,0.207151,39.295631,4.199347,22.085688,4635731465311617000.000000,-0.669451,-0.088591,-0.734707,0.064748,-13.969235,-7.235449,-8.076524,-2.195142,1.056820,-1.427995,40.683263,-12.245193,18.462944,4635727169807450100.000000,-0.585306,0.364558,-0.668458,-0.278708,-19.351209,-4.715254,1.063086,1.088479,-0.688598,2.086636,44.174931,11.287770,-5.364286,4635729425202151400.000000,0.381787,0.643679,0.308324,-0.587241,0
-10.156914,5.415788,0.351102,0.508450,-0.418096,-0.018282,39.188586,4.199347,21.856157,4635731465311617000.000000,-0.670527,-0.089817,-0.733416,0.066549,-7.937346,-11.061753,-5.492936,-0.827658,0.809470,-1.018409,40.756499,-11.995638,18.533738,4635727169807450100.000000,-0.582998,0.370360,-0.667886,-0.277262,-17.348154,-3.896708,0.012136,1.267934,-0.585079,2.046073,44.303515,10.433252,-5.730508,4635729264649851900.000000,0.384147,0.646862,0.298747,-0.587155,0
-7.358801,6.801123,-0.013455,0.290089,-0.120706,-0.249494,38.989821,4.254858,21.849692,4635731465311617000.000000,-0.670707,-0.089808,-0.733098,0.068217,-6.658462,-9.194866,-3.372516,0.067499,0.533097,-0.460187,40.759117,-11.858821,18.906815,4635727122028322800.000000,-0.582182,0.372106,-0.668522,-0.275101,-15.574807,-1.791368,-0.542449,1.301866,-0.485440,1.928914,44.279455,9.569685,-6.096697,4635729210453786600.000000,0.385965,0.650132,0.289531,-0.586969,0
-5.016997,7.321008,-0.231414,-0.053200,0.229293,-0.426717,39.146219,4.449467,22.001051,4635731465311617000.000000,-0.669895,-0.088398,-0.733919,0.069200,-4.287831,-9.790838,-4.579807,0.628668,0.291507,-0.229610,40.668238,-11.751537,19.215850,4635727062433267700.000000,-0.582639,0.371567,-0.669566,-0.272307,-14.407256,2.313480,-1.370750,1.116033,-0.391185,1.809988,44.391782,8.821675,-6.326014,4635729210453786600.000000,0.387847,0.653131,0.281216,-0.586441,0
-4.045627,6.024290,-0.863460,-0.407081,0.467226,-0.710766,39.341196,4.642079,22.058777,4635731465311617000.000000,-0.668398,-0.085199,-0.735603,0.069806,-3.854182,-5.684397,-5.375342,0.796260,0.156640,-0.172082,40.652043,-11.533213,19.306727,4635727157965751300.000000,-0.583660,0.370305,-0.670555,-0.269390,-14.206206,7.295896,-2.417346,0.843774,-0.416939,1.698915,44.681289,8.241399,-6.445254,4635729210453786600.000000,0.390201,0.655448,0.273807,-0.585799,0
-4.965060,3.746951,-1.296153,-0.675837,0.817860,-0.964739,39.232005,4.755225,22.086465,4635731465311617000.000000,-0.665830,-0.080573,-0.738413,0.070169,-5.548273,-0.893016,-4.738575,0.269169,0.131504,-0.172577,40.770079,-11.476351,19.404386,4635727277181632500.000000,-0.583936,0.370294,-0.670885,-0.267982,-13.364101,9.658270,-3.050533,0.551960,-0.479167,1.535683,44.828405,7.759057,-6.679743,4635729210453786600.000000,0.393001,0.656916,0.267437,-0.585226,0
-6.553899,1.057166,-2.485512,-0.862736,0.774624,-1.015100,39.073315,5.005220,22.262876,4635731465311617000.000000,-0.663418,-0.075257,-0.741146,0.070110,-6.768604,-0.142768,-3.272340,-0.514057,0.119499,-0.244065,40.858177,-11.447761,19.371712,4635727277181632500.000000,-0.583114,0.372374,-0.670198,-0.268607,-13.347796,8.562722,-3.703014,0.109494,-0.555215,1.267370,44.904733,7.349923,-7.024361,4635729290691279900.000000,0.396427,0.657146,0.262745,-0.584781,0
-9.110696,-0.875928,-2.278573,-0.946829,0.559908,-0.915068,38.886952,5.313483,22.636977,4635731465311617000.000000,-0.661700,-0.069953,-0.743249,0.069579,-7.439976,-0.691819,-1.928335,-1.032066,0.092211,-0.321162,40.782159,-11.282296,19.176404,4635727181660611600.000000,-0.581644,0.375894,-0.668737,-0.270528,-13.422107,3.717792,-1.464565,-0.362967,-0.539015,0.840049,44.923244,6.959286,-7.253750,4635729317827969000.000000,0.400078,0.656151,0.260393,-0.584465,0
-12.031377,-2.076101,-0.889801,-0.965952,0.579348,-0.665381,38.670482,5.347534,22.995982,4635731500089358300.000000,-0.659977,-0.065372,-0.745314,0.068293,-8.735684,-1.254954,-1.061915,-1.272204,0.081415,-0.296804,40.725279,-11.270196,19.154830,4635727062433267700.000000,-0.579785,0.379906,-0.667000,-0.273187,-11.755891,-0.991839,-0.309511,-0.682586,-0.419652,0.598093,44.941486,6.504836,-7.300027,4635729317827969000.000000,0.403876,0.654638,0.259675,-0.583868,0
-14.594603,-2.247905,-0.873245,-1.005067,0.731550,-0.392070,38.511799,5.242672,23.261267,4635731572685799400.000000,-0.657851,-0.061574,-0.747712,0.066091,-10.962957,-2.471744,-1.035060,-1.243849,0.041039,-0.200657,40.886739,-11.506249,19.181846,4635727062433267700.000000,-0.577958,0.383527,-0.665332,-0.276054,-10.145302,-2.087466,-0.997945,-1.003895,-0.292485,0.457545,44.947659,6.329747,-7.300027,4635729157378752500.000000,0.408064,0.652729,0.260330,-0.582802,0
-16.604457,-2.049011,-2.491706,-1.124654,0.605484,-0.209092,38.353123,5.075741,23.464815,4635731572685799400.000000,-0.656179,-0.057982,-0.749728,0.063046,-12.668768,-3.277013,-1.626470,-0.921826,-0.026358,-0.093976,41.072511,-11.796482,18.955317,4635727062433267700.000000,-0.576696,0.385992,-0.664028,-0.278387,-10.100443,-0.381884,-1.871540,-1.395170,-0.137996,0.284393,45.002384,6.429798,-7.300027,4635729103079604200.000000,0.412716,0.650322,0.262660,-0.581168,0
-17.120179,-1.619430,-3.820917,-1.260266,-0.080240,-0.157587,38.273462,4.940746,23.569244,4635731572685799400.000000,-0.656678,-0.053998,-0.749871,0.059600,-13.008978,-2.849581,-1.999291,-0.497092,-0.057920,-0.016011,41.018191,-12.014827,18.755980,4635727062433267700.000000,-0.576110,0.387180,-0.663259,-0.279779,-11.345347,2.356679,-3.151379,-1.866476,-0.001973,0.059979,44.902347,6.469924,-7.227070,4635729103079604200.000000,0.417933,0.647157,0.266960,-0.579009,0
-15.040247,-0.729728,-3.070046,-1.404352,-0.760873,-0.191905,38.382622,4.827634,23.357333,4635731537925114900.000000,-0.659303,-0.049341,-0.748168,0.055950,-12.616932,-1.411641,-1.547464,-0.168847,-0.078573,0.022313,40.882595,-12.071751,18.783157,4635727062433267700.000000,-0.576064,0.387450,-0.662884,-0.280388,-12.232876,3.334694,-3.880504,-2.302223,0.128055,-0.172355,44.752774,6.460805,-7.056459,4635729103079604200.000000,0.423589,0.643239,0.273144,-0.576375,0
-11.498702,0.140438,-1.169670,-1.516184,-0.712001,-0.248692,38.474142,4.609345,23.007717,4635731465311617000.000000,-0.661754,-0.044208,-0.746601,0.052094,-12.039140,0.385394,-0.455589,-0.070505,-0.082125,-0.010691,40.991135,-11.948315,18.884853,4635727062433267700.000000,-0.576225,0.387572,-0.662562,-0.280652,-12.512153,2.004582,-3.356558,-2.554426,0.324070,-0.398287,44.770434,6.640102,-6.870260,4635729103079604200.000000,0.429112,0.639021,0.280855,-0.573268,0
-8.443861,0.486491,-0.539288,-1.657992,-0.153945,-0.255475,38.445062,4.291966,23.080268,4635731465311617000.000000,-0.662462,-0.038782,-0.746568,0.047710,-11.202267,1.140703,0.375731,-0.199874,-0.035957,-0.093290,41.164725,-11.923929,18.760051,4635727062433267700.000000,-0.576146,0.388286,-0.662065,-0.280999,-13.306021,0.386150,-2.298428,-2.687120,0.584238,-0.630556,44.734253,6.984529,-6.395383,4635729103079604200.000000,0.434074,0.634833,0.289931,-0.569655,0
-7.485321,0.175549,-0.801758,-1.791916,0.342920,-0.247308,38.401970,3.998273,23.451513,4635731465311617000.000000,-0.661611,-0.033109,-0.747892,0.042805,-9.877062,0.292890,0.497788,-0.412672,0.036914,-0.155951,41.141653,-12.088051,18.517264,4635727062433267700.000000,-0.575594,0.389768,-0.661391,-0.281664,-14.556268,0.437656,-1.467152,-2.865220,0.814864,-0.814482,44.670130,7.372064,-5.757827,4635729103079604200.000000,0.438727,0.630552,0.300288,-0.565465,0
-8.107461,-0.071467,-1.386184,-1.875504,0.511712,-0.269170,38.322264,3.726515,23.693484,4635731465311617000.000000,-0.660201,-0.027164,-0.749652,0.037674,-8.477363,-1.534064,0.322818,-0.570747,0.104678,-0.136367,40.907008,-12.112457,18.452168,4635727157876985900.000000,-0.574573,0.391654,-0.660723,-0.282699,-15.358041,1.725684,-1.145010,-3.072414,1.028237,-0.947605,44.773213,7.881233,-5.253631,4635729103079604200.000000,0.443265,0.626113,0.311818,-0.560596,0
-8.797920,-0.360788,-1.947809,-1.935138,0.442686,-0.300997,38.356383,3.369258,23.898132,4635731465311617000.000000,-0.658962,-0.020943,-0.751184,0.032451,-7.628298,-3.346084,-0.113897,-0.607897,0.131502,-0.021136,40.718471,-11.948346,18.544397,4635727277181632500.000000,-0.573278,0.393341,-0.660259,-0.284066,-15.697945,2.731819,-1.828005,-3.190813,1.228015,-1.045431,44.868079,8.375817,-4.719947,4635729103079604200.000000,0.447532,0.621663,0.324184,-0.555117,0
-9.243547,-1.187388,-1.813138,-1.928543,0.375969,-0.333444,38.148910,3.143746,24.233827,4635731500037816300.000000,-0.657882,-0.014628,-0.752482,0.027340,-7.533304,-3.839959,-0.683578,-0.557340,0.119752,0.116183,40.749662,-11.929334,18.597300,4635727277181632500.000000,-0.571932,0.394514,-0.660047,-0.285640,-16.015016,2.969333,-2.540193,-3.130827,1.450602,-1.127974,44.731644,8.724262,-3.866700,4635729103079604200.000000,0.451052,0.617588,0.336966,-0.549173,0
-9.085891,-0.814378,-1.972193,-1.914530,0.290260,-0.374415,37.739584,3.287010,24.397557,4635731572685799400.000000,-0.657020,-0.008212,-0.753495,0.022390,-8.185554,-2.695400,-1.438942,-0.493377,0.112275,0.196294,40.732062,-12.170724,18.647470,4635727277181632500.000000,-0.570613,0.395304,-0.660023,-0.287238,-16.457103,2.987723,-3.089840,-2.931468,1.699141,-1.166606,44.569700,9.202657,-2.987453,4635729022893652000.000000,0.453521,0.614262,0.349782,-0.542819,0
-9.308365,-0.709672,-1.853883,-1.883981,0.295161,-0.377972,37.708571,3.159340,24.530728,4635731572685799400.000000,-0.656098,-0.001869,-0.754469,0.017545,-9.548469,-1.638601,-2.289402,-0.439138,0.105868,0.237119,40.580163,-12.429806,18.745121,4635727277181632500.000000,-0.569351,0.395843,-0.660111,-0.288793,-17.133686,3.291618,-3.213639,-2.679504,1.948552,-1.179207,44.541723,9.748851,-2.069205,4635728995705421800.000000,0.454856,0.611823,0.362456,-0.536101,0
-9.854837,-1.360585,-1.420005,-1.794799,0.439262,-0.345593,38.044686,2.613237,24.742192,4635731503267501100.000000,-0.654683,0.004119,-0.755783,0.012889,-10.970188,-1.308955,-2.686969,-0.400918,0.095541,0.256594,40.562460,-12.562758,18.756015,4635727277181632500.000000,-0.568153,0.396224,-0.660251,-0.290304,-17.778051,3.995241,-3.164973,-2.418357,2.210711,-1.190942,44.508354,10.179673,-0.837586,4635728995705421800.000000,0.457288,0.608691,0.377629,-0.527047,0
-10.196386,-1.786968,-1.700511,-1.702305,0.616201,-0.310356,38.030139,2.227546,24.926406,4635731357937434600.000000,-0.652674,0.009734,-0.757529,0.008432,-11.348930,-0.915687,-2.647697,-0.357130,0.093639,0.240459,40.694035,-12.680741,18.663784,4635727324877723600.000000,-0.567051,0.396543,-0.660410,-0.291658,-17.996480,5.165526,-3.577910,-2.237214,2.450631,-1.210140,44.341032,10.497391,0.347182,4635728995705421800.000000,0.456527,0.607772,0.390300,-0.519483,0
-10.372616,-1.875895,-2.400814,-1.632051,0.639750,-0.315891,37.627262,1.981644,25.103372,4635731357937434600.000000,-0.650557,0.015175,-0.759294,0.004212,-10.775281,-0.539887,-2.284317,-0.314993,0.101946,0.216601,40.710361,-12.844849,18.616289,4635727384555814900.000000,-0.566023,0.396838,-0.660599,-0.292825,-17.708257,6.304460,-4.215404,-2.105743,2.684520,-1.245856,44.060613,10.972619,1.409459,4635728995705421800.000000,0.454780,0.607483,0.403025,-0.511576,0
-10.573088,-2.294508,-2.756289,-1.564198,0.570456,-0.328095,37.307299,1.574869,25.357616,4635731357937434600.000000,-0.648630,0.020470,-0.760829,0.000236,-10.393922,-0.641436,-1.770208,-0.293033,0.115473,0.206391,40.668282,-13.015753,18.659664,4635727384555814900.000000,-0.565006,0.397124,-0.660828,-0.293884,-17.101837,6.725605,-5.230007,-1.956324,2.925087,-1.274483,43.892138,11.573522,2.665779,4635729075865603100.000000,0.452085,0.607798,0.415866,-0.503246,0
-10.335874,-2.643573,-2.992898,-1.492789,0.605126,-0.370797,37.152933,1.215083,25.444173,4635731357937434600.000000,-0.646566,0.025707,-0.762417,-0.003395,-10.292285,-0.927723,-1.412082,-0.261833,0.130665,0.206388,40.637120,-13.148699,18.713949,4635727289189400600.000000,-0.563997,0.397355,-0.661129,-0.294830,-16.548904,6.930037,-6.173914,-1.809402,3.163570,-1.298253,43.879428,11.968264,3.923478,4635729103079604200.000000,0.448442,0.608696,0.428804,-0.494486,0
-9.904686,-2.659510,-3.255268,-1.450988,0.692342,-0.385224,37.013594,1.049837,25.515550,4635731357937434600.000000,-0.644200,0.030877,-0.764203,-0.006844,-9.842182,-0.961698,-1.144903,-0.218273,0.143008,0.213151,40.557094,-13.266667,18.676007,4635727169807450100.000000,-0.563017,0.397480,-0.661522,-0.295651,-16.364283,7.429140,-6.779398,-1.692595,3.375163,-1.305006,43.794493,12.212729,5.156316,4635729103079604200.000000,0.443992,0.610072,0.441800,-0.485279,0
-9.339027,-2.301368,-3.760642,-1.457973,0.643170,-0.388395,37.019234,1.049837,25.770022,4635731392629141500.000000,-0.641959,0.036074,-0.765820,-0.010312,-9.258819,-0.884400,-1.043003,-0.199150,0.151912,0.223119,40.478430,-13.392842,18.628498,4635727169807450100.000000,-0.562031,0.397543,-0.661975,-0.296427,-16.263705,7.890604,-7.191861,-1.571959,3.567740,-1.299696,43.317055,12.660255,6.617025,4635729103079604200.000000,0.438768,0.611897,0.454769,-0.475658,0
-8.623300,-2.045595,-4.173238,-1.495769,0.450689,-0.378551,37.111257,0.998563,26.124788,4635731465311617000.000000,-0.640297,0.041330,-0.766887,-0.013956,-9.015852,-0.900550,-1.354729,-0.207330,0.157252,0.223014,40.430920,-13.440351,18.671850,4635727169807450100.000000,-0.561016,0.397632,-0.662429,-0.297216,-16.235846,8.442336,-7.725194,-1.417485,3.738464,-1.277867,42.664218,13.012046,8.155158,4635728942785012700.000000,0.432739,0.614200,0.467554,-0.465713,0
-8.178827,-2.266502,-3.653556,-1.507523,0.283336,-0.363805,37.010428,0.757107,26.370791,4635731465311617000.000000,-0.639139,0.046559,-0.767476,-0.017703,-9.030733,-0.918374,-1.979832,-0.218256,0.155482,0.209009,40.430920,-13.440351,18.726156,4635727169807450100.000000,-0.560004,0.397783,-0.662841,-0.298004,-16.281400,8.976669,-8.374873,-1.182054,3.902944,-1.220075,42.229756,13.141002,9.684042,4635728888331239400.000000,0.426130,0.616788,0.480377,-0.455219,0
-7.792513,-1.934997,-2.755179,-1.492281,0.268297,-0.371659,36.824137,0.369650,26.425848,4635731465311617000.000000,-0.638005,0.051770,-0.767992,-0.021383,-9.225832,-0.943868,-2.515878,-0.211032,0.134372,0.200458,40.436337,-13.516195,18.726156,4635727169807450100.000000,-0.559072,0.397913,-0.663197,-0.298786,-16.187557,9.370927,-8.955155,-0.841191,4.083377,-1.154904,41.811978,13.432896,11.219031,4635728888331239400.000000,0.417983,0.620538,0.492179,-0.444952,0
-7.582828,-1.826022,-2.402828,-1.503808,0.519677,-0.301053,36.607591,0.146489,26.431058,4635731465311617000.000000,-0.636030,0.056805,-0.769157,-0.025232,-9.620492,-1.081042,-2.707296,-0.171306,0.092136,0.207207,40.443127,-13.687089,18.726156,4635727265096561700.000000,-0.558314,0.397880,-0.663515,-0.299543,-16.059289,9.843379,-9.340499,-0.492609,4.256480,-1.021462,41.372512,13.926665,12.748054,4635728888331239400.000000,0.408609,0.625373,0.503017,-0.434651,0
-7.789952,-1.840918,-2.641003,-1.486963,0.873397,-0.225229,36.448907,0.099200,26.630301,4635731465311617000.000000,-0.632886,0.061588,-0.771241,-0.029142,-9.997604,-0.938854,-2.696547,-0.126651,0.038852,0.217902,40.372720,-13.782158,18.682829,4635727384555814900.000000,-0.557763,0.397646,-0.663781,-0.300289,-15.636615,10.975484,-9.542537,-0.226555,4.420450,-0.864458,40.996851,14.163132,14.346718,4635728888331239400.000000,0.398474,0.630913,0.513266,-0.423941,0
-8.096767,-1.875317,-3.615108,-1.459075,0.944538,-0.174925,36.266565,-0.185213,26.841768,4635731465311617000.000000,-0.629481,0.066141,-0.773489,-0.033075,-10.013081,-0.622837,-2.562352,-0.126259,-0.006619,0.207477,40.246520,-13.820069,18.671825,4635727384555814900.000000,-0.557351,0.397384,-0.663923,-0.301085,-14.847630,11.962927,-9.728538,-0.033270,4.574820,-0.724992,40.469827,14.188102,15.842596,4635728888331239400.000000,0.387545,0.637176,0.522802,-0.412909,0
-8.552750,-2.279304,-4.048144,-1.392507,0.891897,-0.150440,36.034634,-0.680134,27.156058,4635731465311617000.000000,-0.626230,0.070429,-0.775575,-0.036869,-9.661765,-0.249955,-2.507834,-0.157457,-0.050746,0.185401,40.236881,-13.905512,18.769473,4635727336929857500.000000,-0.557037,0.397199,-0.663887,-0.301988,-13.367624,11.645641,-9.787238,0.169538,4.741633,-0.584305,39.647093,14.394477,17.358987,4635728888331239400.000000,0.375806,0.644112,0.531688,-0.401494,0
-8.921282,-2.604950,-4.235249,-1.298328,0.865680,-0.173700,35.798765,-0.954564,27.597832,4635731499964662800.000000,-0.623066,0.074540,-0.777566,-0.040304,-9.555529,0.139374,-2.608244,-0.220186,-0.096458,0.157055,40.251949,-14.023439,18.737198,4635727277181632500.000000,-0.556780,0.397181,-0.663618,-0.303074,-11.929028,10.688700,-9.635527,0.392965,4.908012,-0.489792,38.625440,14.857352,19.124643,4635728888331239400.000000,0.363103,0.651614,0.539998,-0.389817,0
-9.196188,-3.068145,-4.797269,-1.131509,0.831520,-0.210432,35.582187,-1.089626,27.768676,4635731572685799400.000000,-0.620046,0.078329,-0.779454,-0.043112,-9.665506,0.199653,-2.481159,-0.298314,-0.120925,0.113388,40.173286,-14.187560,18.633912,4635727277181632500.000000,-0.556517,0.397434,-0.663120,-0.304314,-10.874549,9.815013,-8.945384,0.561511,5.060550,-0.380745,37.791081,15.200132,20.667403,4635728888331239400.000000,0.349544,0.659678,0.547613,-0.377840,0
-9.630125,-3.533827,-5.472509,-0.921407,0.687270,-0.243886,35.395927,-1.171131,27.746259,4635731572685799400.000000,-0.617551,0.081655,-0.780974,-0.045196,-9.833454,-0.196199,-1.978197,-0.324140,-0.137300,0.079767,40.201538,-14.320563,18.640705,4635727277181632500.000000,-0.556297,0.397819,-0.662494,-0.305573,-9.667400,9.051753,-7.681091,0.702016,5.200258,-0.269080,36.970481,15.316992,21.907543,4635728808235485200.000000,0.335295,0.668116,0.554650,-0.365461,0
-10.190472,-3.382624,-5.683119,-0.710375,0.384438,-0.269105,35.179360,-1.271944,27.915203,4635731572685799400.000000,-0.616108,0.084461,-0.781731,-0.046630,-9.988415,-0.526193,-1.319032,-0.278034,-0.146931,0.071213,40.372431,-14.400597,18.516187,4635727277181632500.000000,-0.556190,0.398108,-0.661889,-0.306701,-8.491897,8.024913,-6.131685,0.868476,5.328205,-0.182446,36.018986,15.541914,23.215923,4635728780957057000.000000,0.320255,0.676852,0.561101,-0.352810,0
-10.730712,-3.111294,-5.186933,-0.555295,0.006982,-0.267243,35.071869,-1.407004,28.113649,4635731572685799400.000000,-0.615942,0.086789,-0.781542,-0.047696,-9.852995,-0.519625,-0.908879,-0.234751,-0.143968,0.062326,40.467541,-14.441359,18.186740,4635727324787536900.000000,-0.556157,0.398324,-0.661331,-0.307683,-7.493212,7.120378,-4.232110,1.028782,5.414935,-0.107389,34.966483,15.768048,24.716578,4635728780957057000.000000,0.304508,0.685755,0.566932,-0.340006,0
-10.848037,-2.441847,-4.031544,-0.422567,-0.383821,-0.253875,35.123066,-1.441259,28.082143,4635731572685799400.000000,-0.617090,0.088656,-0.780376,-0.048505,-9.776627,-0.381316,-0.865343,-0.259386,-0.128683,0.042515,40.359297,-14.441359,18.012595,4635727384555814900.000000,-0.556066,0.398672,-0.660742,-0.308660,-6.340733,6.144600,-1.984271,1.145424,5.448008,-0.062367,33.792081,15.848109,26.348861,4635728780957057000.000000,0.288482,0.694192,0.572700,-0.326941,0
-10.427163,-1.908291,-2.800325,-0.268571,-0.604022,-0.256940,35.336845,-1.336536,28.012054,4635731572685799400.000000,-0.619007,0.090091,-0.778668,-0.048886,-9.813488,-0.320039,-1.100839,-0.292068,-0.097122,0.017948,40.185507,-14.370998,18.148142,4635727384555814900.000000,-0.555864,0.399204,-0.660143,-0.309618,-5.256655,4.691403,0.356238,1.193265,5.419439,-0.042256,32.620069,16.066799,27.790434,4635728780957057000.000000,0.272081,0.702615,0.577655,-0.314037,0
-9.897113,-1.900817,-2.202863,-0.137908,-0.558070,-0.266623,35.583784,-1.193186,27.940801,4635731572685799400.000000,-0.620822,0.091230,-0.777094,-0.048800,-9.684750,-0.451422,-1.498490,-0.279073,-0.068857,0.000011,40.208292,-14.244781,18.206776,4635727384555814900.000000,-0.555629,0.399791,-0.659594,-0.310450,-4.055313,3.201650,2.708881,1.178298,5.321221,-0.058364,31.460505,16.465863,28.939049,4635728620836305900.000000,0.255736,0.710592,0.582135,-0.301292,0
-9.567066,-1.974013,-1.993791,-0.039290,-0.466615,-0.253364,35.633411,-1.139225,27.682502,4635731572685799400.000000,-0.622372,0.092089,-0.775778,-0.048394,-9.480005,-0.817237,-1.583069,-0.206522,-0.053067,-0.000606,40.339926,-14.343303,18.157819,4635727289369775100.000000,-0.555471,0.400232,-0.659175,-0.311054,-2.688642,1.566827,4.955815,1.170690,5.178502,-0.140824,30.118678,16.787018,29.949644,4635728566208692200.000000,0.239530,0.717826,0.586427,-0.288886,0
-9.423779,-2.283921,-1.592161,0.031415,-0.454641,-0.202749,35.684577,-1.119945,27.386341,4635731572685799400.000000,-0.623897,0.092604,-0.774522,-0.047885,-9.221030,-1.198822,-1.355439,-0.084676,-0.037410,0.019069,40.361838,-14.672881,18.164616,4635727169807450100.000000,-0.555448,0.400358,-0.658982,-0.311343,-1.721847,-0.557497,7.064916,1.208914,4.983845,-0.254228,28.778741,16.949433,30.865489,4635728566208692200.000000,0.223437,0.724247,0.590543,-0.277132,0
-8.928509,-2.434413,-1.194799,0.081861,-0.513702,-0.157474,35.870813,-1.010885,27.347716,4635731607300184100.000000,-0.625621,0.092829,-0.773135,-0.047354,-9.111993,-1.055943,-0.939279,0.044947,-0.015816,0.045785,40.283182,-14.786079,18.078055,4635727169807450100.000000,-0.555547,0.400138,-0.659051,-0.311301,-1.277083,-2.418578,9.558895,1.262576,4.726700,-0.351022,27.387494,17.180728,31.756654,4635728566208692200.000000,0.207763,0.729517,0.594821,-0.266133,0
-8.083027,-2.191123,-0.903811,0.117111,-0.460930,-0.108927,36.059869,-0.903348,27.374134,4635731680059981800.000000,-0.627177,0.092817,-0.771909,-0.046816,-9.320612,-0.654080,-0.614536,0.138662,0.004490,0.052473,40.268057,-14.621982,17.926023,4635727169807450100.000000,-0.555738,0.399710,-0.659300,-0.310983,-1.287343,-3.894128,12.268588,1.305107,4.430150,-0.392965,26.153426,17.522112,32.502194,4635728486151595000.000000,0.192452,0.734341,0.598401,-0.256167,0
-7.242709,-1.366396,-0.728818,0.121715,-0.175302,-0.061061,36.058344,-0.930892,27.276482,4635731680059981800.000000,-0.627805,0.092694,-0.771445,-0.046277,-9.524403,-0.443790,-0.584565,0.176704,0.027489,0.034099,40.346706,-14.526810,17.914907,4635727169807450100.000000,-0.555953,0.399274,-0.659621,-0.310479,-1.081783,-4.657705,14.393060,1.294982,4.093903,-0.375598,24.972519,17.942904,33.125149,4635728458834509800.000000,0.177959,0.738585,0.601465,-0.247107,0
-6.995029,-0.320627,-0.944309,0.053294,0.199701,-0.032302,35.923262,-0.961259,27.241777,4635731680059981800.000000,-0.627195,0.092730,-0.771960,-0.045888,-9.461042,-0.179550,-0.733377,0.173662,0.053976,0.008815,40.426749,-14.451090,17.969297,4635727169807450100.000000,-0.556122,0.398949,-0.659956,-0.309881,-0.427760,-5.343459,15.681551,1.210957,3.708581,-0.383366,23.733948,18.436914,33.796032,4635728458834509800.000000,0.164629,0.742130,0.604184,-0.238959,0
-7.904010,0.259464,-0.923829,-0.023582,0.577532,0.014289,35.892885,-0.875814,27.398429,4635731680059981800.000000,-0.625330,0.092889,-0.773462,-0.045721,-9.327846,-0.078348,-0.973659,0.143428,0.066928,-0.023203,40.505401,-14.355906,18.012566,4635727169807450100.000000,-0.556247,0.398798,-0.660228,-0.309270,-0.914431,-5.111359,17.165360,1.030105,3.240069,-0.411101,22.585710,18.958755,34.282600,4635728458834509800.000000,0.152971,0.744837,0.606712,-0.231772,0
-9.316404,1.211513,-1.194825,-0.089830,0.841498,0.033801,35.899668,-0.869030,27.624132,4635731680059981800.000000,-0.622580,0.093207,-0.775639,-0.045716,-9.525133,-0.164268,-1.224263,0.105912,0.065293,-0.060719,40.552994,-14.393758,18.196732,4635727169807450100.000000,-0.556363,0.398836,-0.660386,-0.308677,-1.156595,-6.051213,18.433981,0.696305,2.719019,-0.339892,21.775174,19.192469,34.542940,4635728458834509800.000000,0.143683,0.746943,0.608831,-0.225291,0
-10.806615,1.620315,-2.077249,-0.158452,0.798823,0.011848,35.740979,-1.059183,27.639605,4635731680059981800.000000,-0.619938,0.093765,-0.777675,-0.045891,-9.941714,-0.234212,-1.655331,0.077303,0.053072,-0.085071,40.515149,-14.441359,18.403185,4635727169807450100.000000,-0.556495,0.398991,-0.660438,-0.308126,-1.432667,-6.657663,19.244787,0.555715,2.160301,-0.351182,21.249143,19.281252,34.814152,4635728458834509800.000000,0.136245,0.748267,0.610789,-0.220161,0
-11.821539,1.732411,-2.902271,-0.184953,0.409089,-0.072817,35.605891,-1.205428,27.484036,4635731680059981800.000000,-0.618561,0.094590,-0.778660,-0.046085,-10.137552,-0.428487,-2.059934,0.059236,0.044984,-0.095889,40.429692,-14.365659,18.365673,4635727169807450100.000000,-0.556634,0.399207,-0.660429,-0.307613,-1.880778,-9.186060,19.922412,0.262629,1.711468,-0.055335,20.594187,19.572868,35.189019,4635728458834509800.000000,0.131125,0.749709,0.611801,-0.215504,0
-12.299888,1.267314,-3.132144,-0.180373,-0.114391,-0.165978,35.626577,-1.119979,27.449275,4635731610908533800.000000,-0.618900,0.095605,-0.778258,-0.046230,-10.122726,-0.459869,-2.241979,0.049272,0.034333,-0.099216,40.419936,-14.308300,18.255475,4635727264916187100.000000,-0.556790,0.399442,-0.660377,-0.307137,-1.483446,-4.663736,19.838651,0.388205,1.110032,-0.425038,20.065066,19.775300,35.582729,4635728458834509800.000000,0.126809,0.749704,0.613508,-0.213239,0
-12.024064,0.553464,-2.564580,-0.161472,-0.468885,-0.205084,35.870736,-1.089564,27.515488,4635731499891927000.000000,-0.620403,0.096630,-0.776926,-0.046353,-9.917158,-0.493517,-2.169279,0.021917,0.022431,-0.102771,40.429707,-14.355906,18.262276,4635727384555814900.000000,-0.556938,0.399735,-0.660256,-0.306748,-1.033273,-9.418578,20.497560,-0.239306,0.775991,0.115400,19.901411,19.457820,35.900574,4635728458834509800.000000,0.125785,0.750438,0.613896,-0.210126,0
-10.840262,0.313046,-2.026473,-0.133494,-0.572750,-0.189264,35.985159,-1.092470,27.543001,4635731572685799400.000000,-0.622246,0.097511,-0.775334,-0.046469,-9.395412,-0.756115,-1.891308,-0.026500,0.021485,-0.100544,40.382092,-14.285644,18.256871,4635727384555814900.000000,-0.557004,0.400133,-0.660075,-0.306498,-6.580309,7.952644,22.217254,0.748654,-0.305336,-1.812653,19.622038,19.982437,35.547643,4635728458834509800.000000,0.122745,0.745779,0.618857,-0.213924,0
-9.277944,0.148799,-1.789682,0.089163,-0.337804,-0.102643,35.798951,-0.897983,27.628452,4635731572685799400.000000,-0.623402,0.097580,-0.774424,-0.045994,-9.026676,-1.049652,-1.667194,-0.075758,0.027389,-0.082646,40.382092,-14.197210,18.250069,4635727384555814900.000000,-0.556950,0.400604,-0.659874,-0.306415,-46.248816,17.189843,39.809793,5.027174,-0.669373,-1.651368,19.231670,21.713226,34.528230,4635728458834509800.000000,0.107465,0.743188,0.619145,-0.229745,0
-7.690980,-1.359845,-3.187932,0.177131,0.059810,0.032997,35.684501,-0.732444,27.654950,4635731572685799400.000000,-0.623284,0.097059,-0.774618,-0.045425,-8.865949,-1.359466,-1.772104,-0.122403,0.052867,-0.068361,40.419920,-14.305294,18.298706,4635727384555814900.000000,-0.556729,0.401177,-0.659696,-0.306450,-39.691945,27.023263,35.113591,-1.161467,-1.690350,3.297362,19.765711,22.193297,34.002162,4635728458834509800.000000,0.118634,0.749462,0.609187,-0.230486,0
-6.800657,-3.755108,-4.789389,-0.085819,-0.009175,0.076404,35.819607,-0.759944,27.529804,4635731572685799400.000000,-0.623274,0.097068,-0.774600,-0.045845,-7.882343,-1.818310,-1.152258,-0.066554,0.076539,-0.042357,40.467541,-14.479183,18.316706,4635727384555814900.000000,-0.556503,0.401578,-0.659688,-0.306352,8.998717,31.037218,14.689070,-5.245342,-3.216735,-0.727958,21.047734,20.625460,34.415549,4635728458834509800.000000,0.142507,0.741686,0.614681,-0.227510,0
-6.113369,-3.156316,-3.649389,-0.190686,-0.389973,0.041407,35.873632,-0.845389,27.311360,4635731572685799400.000000,-0.624456,0.097390,-0.773558,-0.046667,-7.428052,-1.499561,0.015798,0.052740,0.064511,-0.005831,40.391903,-14.451172,18.300094,4635727384555814900.000000,-0.556463,0.401588,-0.659865,-0.306030,3.968950,-9.720232,8.326470,-4.142698,-3.360525,0.099135,22.048419,18.820119,34.874605,4635728458834509800.000000,0.164043,0.736113,0.616130,-0.227180,0
-5.447700,-1.080017,-1.398139,-0.360805,-0.464435,-0.027375,35.892848,-0.930844,27.144067,4635731572685799400.000000,-0.625821,0.098362,-0.772256,-0.047888,-9.029759,-0.344793,-0.374461,0.016334,0.037005,-0.032496,40.218069,-14.282948,18.392625,4635727384555814900.000000,-0.556472,0.401720,-0.659887,-0.305793,-4.274034,-10.183907,-2.258777,-0.917341,-2.748923,1.138778,22.739212,18.047858,34.683189,4635728458834509800.000000,0.175201,0.735346,0.612032,-0.232354,0
-6.491755,1.339519,0.548621,-0.547558,0.478999,-0.092878,35.899731,-1.012371,27.339943,4635731572685799400.000000,-0.624082,0.100219,-0.773345,-0.049152,-10.103344,0.379871,-1.692289,-0.098986,0.021621,-0.100186,40.242903,-14.156202,18.398520,4635727384555814900.000000,-0.556416,0.402287,-0.659613,-0.305741,-1.457000,-8.467442,-4.728492,0.430484,-2.351926,1.183171,23.646829,18.005431,34.128852,4635728458834509800.000000,0.181137,0.736224,0.606369,-0.239750,0
-9.153515,3.505111,0.079947,-0.846455,1.575153,-0.161847,35.666426,-1.140595,27.742754,4635731572685799400.000000,-0.618679,0.103296,-0.777169,-0.050740,-9.953450,0.043554,-2.874997,-0.171070,0.002652,-0.140182,40.492909,-14.187916,18.394594,4635727384555814900.000000,-0.556342,0.403106,-0.659135,-0.305825,0.194946,0.947977,-5.703851,0.202587,-2.270130,0.770580,24.720492,17.939401,33.664030,4635728458834509800.000000,0.187110,0.735954,0.602113,-0.246620,0
-12.356528,3.509481,-2.483391,-1.029508,1.607317,-0.213936,35.271862,-1.384743,28.082759,4635731607231603700.000000,-0.613068,0.107014,-0.780968,-0.052768,-9.897750,-0.768023,-3.526437,-0.151344,-0.039387,-0.138178,40.667247,-14.311463,18.451245,4635727384555814900.000000,-0.556414,0.403820,-0.658589,-0.305930,-1.124839,8.535330,-6.901177,-0.725016,-2.241425,0.713989,25.528088,17.799159,33.330857,4635728458834509800.000000,0.195778,0.734774,0.598941,-0.251092,0
-14.602853,1.392811,-5.295485,-1.139152,0.573786,-0.235731,34.971140,-1.628872,28.227443,4635731680059981800.000000,-0.610748,0.110851,-0.782057,-0.055555,-10.084251,-1.064013,-3.682255,-0.056500,-0.104838,-0.125615,40.670687,-14.238754,18.451736,4635727384555814900.000000,-0.556809,0.404197,-0.658031,-0.305914,-1.790347,8.530509,-11.108324,-1.989915,-2.288114,0.716384,26.190639,17.307199,33.034771,4635728458834509800.000000,0.208385,0.732484,0.596883,-0.252534,0
-14.862892,-0.698512,-6.585839,-1.193049,-0.892373,-0.319881,34.964193,-1.794488,28.141533,4635731680059981800.000000,-0.613178,0.114757,-0.779336,-0.058979,-10.229310,-0.761370,-3.485528,0.010077,-0.171275,-0.123862,40.620381,-13.988764,18.304822,4635727384555814900.000000,-0.557495,0.404330,-0.657407,-0.305830,1.411035,-0.633508,-11.618354,-3.280142,-2.504460,0.568713,26.901206,16.524167,32.814543,4635728698706423800.000000,0.225262,0.728305,0.596304,-0.251497,0
-13.602919,-1.402537,-4.718930,-1.234550,-1.957277,-0.446336,35.228834,-1.853350,27.758312,4635731680059981800.000000,-0.619035,0.118910,-0.773771,-0.062719,-10.300573,-0.330180,-3.062743,0.000015,-0.228056,-0.138296,40.578893,-13.855403,18.011861,4635727333046097900.000000,-0.558338,0.404453,-0.656614,-0.305835,3.026882,-5.131421,-8.474211,-3.907514,-2.411434,0.133113,27.579087,15.445541,32.837392,4635728780957057000.000000,0.243280,0.722308,0.597589,-0.248945,0
-11.403600,-0.939151,-0.946693,-1.214257,-2.031805,-0.535825,35.740630,-2.005061,27.149302,4635731680059981800.000000,-0.625104,0.123270,-0.767898,-0.066194,-10.551481,-0.035718,-2.783288,-0.075938,-0.273734,-0.172729,40.499793,-13.855403,17.859430,4635727277181632500.000000,-0.559221,0.404788,-0.655557,-0.306045,0.080471,-3.170459,-5.550086,-4.195422,-2.357925,-0.075561,28.311007,14.167668,33.007770,4635728780957057000.000000,0.261721,0.715274,0.599625,-0.245631,0
-9.256773,-0.037974,1.560319,-1.186712,-1.186669,-0.600524,36.251171,-2.090513,26.559843,4635731680059981800.000000,-0.628452,0.127989,-0.764140,-0.068973,-10.754723,0.144508,-2.818425,-0.188130,-0.312188,-0.203626,40.414342,-13.814410,17.953129,4635727277181632500.000000,-0.560057,0.405420,-0.654215,-0.306553,-1.679556,-3.264653,-2.801602,-4.581589,-2.407778,0.044857,28.940554,12.967542,33.057648,4635728780957057000.000000,0.281447,0.707757,0.601381,-0.241265,0
-8.365994,0.469122,1.560104,-1.187399,-0.096657,-0.658319,36.524551,-2.148503,26.326128,4635731680059981800.000000,-0.628318,0.133202,-0.763171,-0.071018,-10.420965,-0.144294,-2.716003,-0.315145,-0.340392,-0.213630,40.527979,-13.851927,18.007906,4635727277181632500.000000,-0.560766,0.406338,-0.652624,-0.307429,-1.616641,-1.271401,0.021073,-4.453004,-2.330856,-0.053646,29.526491,11.862405,32.921321,4635728780957057000.000000,0.300375,0.699899,0.603114,-0.237002,0
-8.535067,0.061660,-0.415958,-1.190221,0.337213,-0.665959,36.473570,-2.226936,26.459075,4635731680059981800.000000,-0.626783,0.138571,-0.763308,-0.072808,-9.602179,-1.104106,-2.282496,-0.406477,-0.342624,-0.194160,40.816590,-13.934999,17.775573,4635727277181632500.000000,-0.561298,0.407412,-0.650942,-0.308602,-2.858659,1.486798,2.889288,-4.148218,-2.210392,-0.119786,29.985171,10.657906,32.674612,4635728780957057000.000000,0.317922,0.692084,0.604641,-0.233139,0
-8.890467,-1.059161,-2.286930,-1.192435,0.179118,-0.615726,36.314880,-2.447548,26.572484,4635731645569858600.000000,-0.625714,0.143734,-0.763036,-0.074825,-8.825698,-2.325273,-1.579480,-0.416719,-0.325665,-0.140766,41.025595,-13.887664,17.484986,4635727277181632500.000000,-0.561695,0.408385,-0.649372,-0.309896,-5.301394,4.841395,3.371161,-4.094043,-2.133178,0.014172,30.527428,9.594531,32.460581,4635728780957057000.000000,0.335129,0.684491,0.605602,-0.228927,0
-8.692292,-2.131754,-3.150670,-1.196817,-0.005856,-0.542564,36.230682,-2.540031,26.451750,4635731572685799400.000000,-0.625188,0.148614,-0.762300,-0.077154,-8.362730,-2.954192,-0.796302,-0.341614,-0.309470,-0.063750,41.073561,-13.843195,17.289691,4635727277181632500.000000,-0.562074,0.408994,-0.648066,-0.311138,-6.690419,6.534295,1.829861,-4.150985,-2.182269,0.052411,31.104296,8.648047,32.337959,4635728780957057000.000000,0.352532,0.676608,0.606210,-0.224572,0
-8.175930,-2.882914,-3.485257,-1.222523,-0.029167,-0.448270,36.280403,-2.513835,26.381894,4635731572685799400.000000,-0.624671,0.153249,-0.761531,-0.079822,-8.325791,-2.550323,-0.286282,-0.239863,-0.292599,0.011034,41.075909,-13.960258,17.100227,4635727277181632500.000000,-0.562482,0.409184,-0.647056,-0.312251,-6.543061,4.264232,0.603642,-4.075679,-2.181599,0.025281,31.741654,7.547629,32.176691,4635728780957057000.000000,0.369563,0.668510,0.606596,-0.220362,0
-8.302103,-3.572257,-3.302625,-1.246686,0.049413,-0.342109,36.284322,-2.669361,26.522318,4635731572685799400.000000,-0.623835,0.157633,-0.761004,-0.082791,-8.793865,-1.585090,0.023255,-0.212972,-0.251730,0.045799,41.126743,-14.169289,16.963940,4635727277181632500.000000,-0.562779,0.409270,-0.646236,-0.313302,-5.136850,1.803612,-1.208773,-3.771315,-2.161755,0.009935,32.337194,6.388030,31.993595,4635728860875709400.000000,0.385552,0.660624,0.606561,-0.216813,0
-8.883689,-3.711193,-3.200905,-1.237298,0.057611,-0.274948,36.292610,-2.998960,26.511464,4635731572685799400.000000,-0.622939,0.161778,-0.760524,-0.085895,-9.295509,-0.749854,0.236788,-0.252184,-0.191361,0.046062,41.091628,-14.258247,16.872641,4635727277181632500.000000,-0.562845,0.409526,-0.645504,-0.314355,-4.245570,-0.750555,-1.445834,-3.261058,-2.198203,-0.024323,32.974524,5.400988,31.728720,4635728888331239400.000000,0.400494,0.652077,0.607170,-0.213879,0
-9.560227,-3.326279,-3.209336,-1.237904,-0.060294,-0.241071,36.316123,-3.171811,26.480874,4635731572685799400.000000,-0.622386,0.165771,-0.759740,-0.089166,-9.630459,-0.504849,0.169071,-0.273578,-0.135130,0.038629,41.012529,-14.217280,16.815950,4635727277181632500.000000,-0.562732,0.409925,-0.644863,-0.315352,-4.725472,-2.576174,-0.243457,-2.745868,-2.214519,0.074460,33.442925,4.591339,31.308543,4635728888331239400.000000,0.413703,0.645484,0.605766,-0.212716,0
-10.355486,-2.748334,-2.981322,-1.234370,-0.188362,-0.214553,36.420711,-3.064058,26.507548,4635731572685799400.000000,-0.622214,0.169618,-0.758623,-0.092581,-9.955195,-0.578592,-0.143775,-0.253344,-0.090474,0.039301,41.085080,-14.172795,16.862260,4635727277181632500.000000,-0.562531,0.410333,-0.644353,-0.316219,-4.825900,-1.749074,0.434070,-2.369228,-2.208184,0.209928,33.836648,3.876848,30.690268,4635728728519701500.000000,0.425921,0.639756,0.603550,-0.212205,0
-10.894568,-2.092008,-2.867377,-1.208433,-0.318760,-0.198149,36.560264,-3.224686,26.323703,4635731572685799400.000000,-0.622448,0.173293,-0.757168,-0.096045,-10.183793,-0.680582,-0.611964,-0.196595,-0.060303,0.052542,41.212193,-14.213752,16.872653,4635727277181632500.000000,-0.562329,0.410612,-0.644011,-0.316912,-3.795131,0.767829,0.473537,-2.266213,-2.248648,0.255461,34.517965,3.244636,29.946207,4635728673582874600.000000,0.437928,0.634176,0.600934,-0.211938,0
-10.984555,-1.925601,-3.008595,-1.181992,-0.464063,-0.187994,36.586492,-3.642927,26.020158,4635731572685799400.000000,-0.623138,0.176804,-0.755333,-0.099554,-10.178661,-0.774412,-0.972549,-0.107269,-0.045507,0.069588,41.054217,-14.258247,16.815951,4635727277181632500.000000,-0.562217,0.410656,-0.643851,-0.317380,-2.528113,2.461306,0.660609,-2.312662,-2.316661,0.258765,35.199315,2.634266,29.531423,4635728673582874600.000000,0.450151,0.628342,0.598114,-0.211682,0
-10.724023,-2.225026,-3.157345,-1.154803,-0.565648,-0.183195,36.532841,-3.757785,25.837517,4635731572685799400.000000,-0.624148,0.180183,-0.753228,-0.103061,-9.919507,-0.811032,-1.144455,-0.030972,-0.036583,0.084674,40.923546,-14.258247,16.768642,4635727277181632500.000000,-0.562191,0.410493,-0.643838,-0.317663,-1.773554,2.523004,0.269209,-2.242479,-2.394579,0.197295,35.719086,2.023951,29.093143,4635728673582874600.000000,0.462246,0.622297,0.595134,-0.211873,0
-10.298871,-2.709651,-3.021170,-1.102946,-0.678188,-0.161045,36.602887,-3.677431,25.633915,4635731607137270800.000000,-0.625522,0.183304,-0.750846,-0.106545,-9.800003,-0.718962,-1.437173,-0.010926,-0.034003,0.088233,41.049939,-14.299194,16.770939,4635727277181632500.000000,-0.562188,0.410277,-0.643863,-0.317896,0.047627,2.629092,-1.488684,-1.973714,-2.441309,0.000608,36.358648,1.649749,28.323298,4635728673582874600.000000,0.473503,0.616130,0.592224,-0.213188,0
-9.922786,-3.263978,-2.474662,-1.000999,-0.824285,-0.127775,36.925313,-3.868587,25.383805,4635731680059981800.000000,-0.627397,0.185986,-0.748133,-0.109904,-9.822640,-0.510430,-1.801089,-0.048865,-0.042036,0.079311,40.981031,-14.343699,16.815953,4635727277181632500.000000,-0.562154,0.410163,-0.643804,-0.318223,0.631660,4.369048,-3.582691,-1.619096,-2.398673,-0.225121,36.872818,1.293192,27.456572,4635728673582874600.000000,0.483469,0.610046,0.589563,-0.215676,0
-9.394923,-3.489924,-1.919813,-0.847581,-0.897029,-0.106635,37.362683,-4.232718,25.045014,4635731680059981800.000000,-0.629591,0.188163,-0.745295,-0.112894,-9.614404,-0.719115,-2.110551,-0.098108,-0.049512,0.074681,40.768417,-14.384630,16.721885,4635727277181632500.000000,-0.562061,0.410168,-0.643654,-0.318684,-0.473168,7.232557,-4.994808,-1.264674,-2.268857,-0.266098,37.097412,0.960204,26.807882,4635728673582874600.000000,0.492116,0.604610,0.586870,-0.218752,0
-8.922475,-3.517584,-1.776977,-0.704340,-0.768075,-0.085555,37.582679,-4.406873,24.822955,4635731680059981800.000000,-0.631472,0.189956,-0.742863,-0.115391,-9.284293,-1.172630,-2.300839,-0.122011,-0.059547,0.090721,40.887621,-14.464234,16.532927,4635727277181632500.000000,-0.561933,0.410172,-0.643476,-0.319264,-5.976319,9.700287,-5.588612,-1.049415,-2.150832,-0.313072,37.598064,0.897095,26.225071,4635728833336278000.000000,0.499836,0.599541,0.584273,-0.222125,0
-8.851053,-3.425904,-1.866810,-0.580289,-0.547560,-0.042384,37.523488,-4.434280,24.725292,4635731680059981800.000000,-0.632738,0.191393,-0.741093,-0.117441,-9.352853,-1.300344,-2.272111,-0.117988,-0.072366,0.127238,41.106641,-14.584268,16.437014,4635727277181632500.000000,-0.561797,0.410051,-0.643335,-0.319940,-8.520478,8.589529,-5.243671,-1.035596,-2.105997,-0.604470,38.266046,0.921510,25.493816,4635728888331239400.000000,0.507093,0.593774,0.582419,-0.226002,0
-9.139153,-3.383780,-1.987012,-0.446705,-0.487182,0.005700,37.466571,-4.574516,24.541538,4635731680059981800.000000,-0.633895,0.192357,-0.739579,-0.119155,-9.806013,-1.346605,-2.046862,-0.095515,-0.076997,0.167491,41.069303,-14.673299,16.531073,4635727277181632500.000000,-0.561658,0.409765,-0.643282,-0.320657,-5.075563,6.219274,-4.100754,-0.981361,-2.003843,-0.694596,38.604555,0.927763,24.794333,4635728888331239400.000000,0.513835,0.587941,0.580891,-0.229923,0
-9.351338,-3.165456,-2.277176,-0.332874,-0.603457,0.029704,37.625260,-4.748680,24.261426,4635731680059981800.000000,-0.635485,0.192888,-0.737828,-0.120675,-9.805982,-1.444772,-1.621176,-0.075176,-0.065563,0.202226,40.980251,-14.673299,16.673250,4635727277181632500.000000,-0.561477,0.409352,-0.643342,-0.321381,-3.179080,5.131052,-3.160617,-0.844792,-1.950076,-0.780620,38.942319,1.000401,24.186505,4635728728603606000.000000,0.519984,0.582189,0.579501,-0.234202,0
-9.228609,-2.786361,-2.603159,-0.253746,-0.654130,0.048466,37.783963,-4.693886,24.159849,4635731680059981800.000000,-0.637280,0.193126,-0.735991,-0.122041,-9.336740,-1.407451,-1.180652,-0.051344,-0.048893,0.237432,41.021178,-14.673299,16.677370,4635727277181632500.000000,-0.561243,0.408812,-0.643532,-0.322095,-3.320509,4.441788,-2.817995,-0.644899,-1.931044,-0.867927,39.375228,1.207017,23.736746,4635728753446690800.000000,0.525474,0.576626,0.578116,-0.239083,0
-8.974322,-2.361822,-2.759024,-0.195759,-0.451367,0.079877,37.970029,-4.632550,24.053907,4635731645647162400.000000,-0.638479,0.193215,-0.734743,-0.123148,-9.129069,-1.078746,-0.853326,-0.036828,-0.031429,0.265050,41.024787,-14.714215,16.632329,4635727277181632500.000000,-0.560950,0.408187,-0.643829,-0.322804,-4.096151,3.334361,-2.934496,-0.340976,-1.927733,-0.950387,39.826860,1.396671,23.197757,4635728780957057000.000000,0.530103,0.571485,0.576582,-0.244846,0
-9.019522,-2.348814,-3.103315,-0.190443,-0.204706,0.130940,38.190695,-4.830829,23.897574,4635731572685799400.000000,-0.638900,0.193260,-0.734192,-0.124176,-9.425372,-0.689351,-0.650643,-0.045565,-0.007513,0.280649,40.904293,-14.799651,16.591947,4635727328575394800.000000,-0.560556,0.407573,-0.644195,-0.323532,-5.038605,2.661176,-3.027127,0.017174,-1.930390,-0.968837,40.160501,1.558491,22.611820,4635728780957057000.000000,0.533826,0.567041,0.574671,-0.251493,0
-9.498602,-2.424740,-3.448432,-0.207385,-0.247791,0.188787,38.279444,-5.032422,23.648091,4635731572685799400.000000,-0.639408,0.193151,-0.733563,-0.125444,-9.797851,-0.625291,-0.456368,-0.048852,0.023280,0.291422,40.786500,-14.885103,16.541031,4635727384555814900.000000,-0.560059,0.406978,-0.644647,-0.324242,-6.284416,3.029367,-3.030565,0.323179,-1.978872,-0.947883,40.507948,1.844283,21.953239,4635728780957057000.000000,0.536923,0.563230,0.572231,-0.258917,0
-9.738432,-2.194845,-3.588027,-0.202098,-0.527620,0.242707,38.221378,-5.141329,23.465002,4635731572685799400.000000,-0.640744,0.192716,-0.732231,-0.127064,-9.737143,-0.684660,-0.371019,-0.032502,0.051882,0.299455,40.748314,-15.046500,16.541031,4635727384555814900.000000,-0.559501,0.406362,-0.645200,-0.324877,-7.509107,3.443424,-3.263443,0.463794,-2.062812,-0.969631,40.874138,2.173854,21.124450,4635728780957057000.000000,0.539821,0.559544,0.569446,-0.266899,0
-9.359557,-2.127521,-3.481408,-0.214489,-0.675579,0.309528,38.272208,-5.253093,23.277996,4635731572685799400.000000,-0.642482,0.192031,-0.730545,-0.129019,-9.552031,-0.600785,-0.554722,-0.024430,0.072221,0.307954,40.672374,-15.255582,16.494300,4635727384555814900.000000,-0.558890,0.405732,-0.645825,-0.325474,-8.657287,2.102196,-3.290341,0.394107,-2.196542,-1.017632,41.231399,2.494480,20.245230,4635728780957057000.000000,0.543096,0.555385,0.566490,-0.275107,0
-9.115021,-2.109887,-2.918851,-0.225379,-0.663487,0.386606,38.403533,-5.284848,23.113961,4635731572685799400.000000,-0.644126,0.191146,-0.728939,-0.131201,-9.686925,-0.525441,-0.837081,-0.045664,0.089404,0.312456,40.630511,-15.426497,16.495952,4635727384555814900.000000,-0.558190,0.405161,-0.646468,-0.326110,-9.756385,-0.005338,-1.845605,0.392302,-2.175755,-0.940163,41.594540,2.884573,19.447934,4635728780957057000.000000,0.546362,0.551374,0.563341,-0.283058,0
-9.114540,-1.986380,-2.261209,-0.207596,-0.652039,0.461149,38.453320,-5.416713,22.930322,4635731607064092700.000000,-0.645701,0.189991,-0.727424,-0.133520,-9.704288,-0.571126,-1.110423,-0.060046,0.109980,0.318544,40.756848,-15.591549,16.599970,4635727384555814900.000000,-0.557400,0.404635,-0.647148,-0.326764,-10.833665,-0.725009,-0.682985,0.693529,-2.130094,-0.959056,41.951648,3.344995,18.733424,4635728780957057000.000000,0.548755,0.548004,0.559924,-0.291623,0
-9.029505,-1.945367,-1.959080,-0.139737,-0.660595,0.493526,38.453320,-5.727804,22.564087,4635731680059981800.000000,-0.647331,0.188549,-0.725941,-0.135725,-9.430426,-0.728237,-1.415589,-0.035566,0.121861,0.336517,40.805086,-15.674306,16.650898,4635727384555814900.000000,-0.556595,0.404019,-0.647919,-0.327372,-11.326686,-0.281807,-0.061182,0.998642,-2.117369,-1.058926,42.133109,3.939125,18.046706,4635728780957057000.000000,0.550246,0.545056,0.556330,-0.301066,0
-8.762928,-1.920952,-2.071350,-0.050870,-0.646969,0.490664,38.531500,-6.018250,22.279953,4635731680059981800.000000,-0.648983,0.186882,-0.724535,-0.137641,-9.289308,-0.806740,-1.644844,-0.000133,0.114011,0.359971,40.684590,-15.639262,16.557446,4635727281807497200.000000,-0.555837,0.403247,-0.648757,-0.327951,-11.783171,1.434124,0.236726,1.129613,-2.103286,-1.058765,42.246113,4.746531,17.217714,4635728780957057000.000000,0.551346,0.542366,0.552536,-0.310744,0
-8.764446,-2.029379,-1.981004,0.035981,-0.522875,0.481349,38.724817,-6.018250,22.174011,4635731611329166300.000000,-0.650328,0.185078,-0.723499,-0.139173,-9.471403,-0.693673,-1.703724,0.014489,0.107372,0.376872,40.566783,-15.717862,16.455580,4635727169807450100.000000,-0.555097,0.402384,-0.649627,-0.328540,-12.486565,3.563750,0.065938,1.057422,-2.125134,-1.098983,42.664746,5.095555,16.347914,4635728780957057000.000000,0.552546,0.539328,0.548806,-0.320360,0
-9.051555,-2.377039,-1.841859,0.140360,-0.477038,0.457465,38.782921,-6.096390,22.052909,4635731465311617000.000000,-0.651624,0.183088,-0.722623,-0.140288,-9.731967,-0.656556,-1.591193,0.005665,0.110902,0.390015,40.487704,-15.926959,16.549008,4635727169807450100.000000,-0.554314,0.401511,-0.650514,-0.329177,-12.175005,4.549740,-0.384492,0.923725,-2.178652,-1.118598,42.889957,5.438961,15.544852,4635728780957057000.000000,0.554082,0.535804,0.545108,-0.329796,0
-9.093527,-2.621673,-2.068936,0.234655,-0.456816,0.437769,38.782921,-6.317096,21.905448,4635731465311617000.000000,-0.652938,0.180913,-0.721836,-0.141050,-9.534501,-0.807815,-1.489303,0.001440,0.110762,0.409705,40.326355,-16.016113,16.650898,4635727169807450100.000000,-0.553495,0.400593,-0.651425,-0.329869,-11.582210,4.808807,-1.302648,1.009460,-2.185236,-1.026465,42.094973,6.867803,14.781762,4635728780957057000.000000,0.555419,0.532756,0.540865,-0.339332,0
-8.998324,-2.864838,-2.599698,0.296262,-0.294807,0.426276,38.806359,-6.405956,21.901549,4635731465311617000.000000,-0.653813,0.178699,-0.721513,-0.141473,-9.147067,-0.786592,-1.582708,0.008406,0.102682,0.430045,40.239844,-16.056978,16.650898,4635727169807450100.000000,-0.552681,0.399591,-0.652360,-0.330603,-11.674382,4.810025,-2.882081,1.103487,-2.167927,-0.976969,41.356423,8.422959,14.079442,4635728940665524200.000000,0.556511,0.530000,0.536354,-0.348886,0
-9.349849,-3.107019,-2.863894,0.337914,-0.301457,0.421918,38.883502,-6.347850,22.003119,4635731465311617000.000000,-0.654739,0.176380,-0.721187,-0.141762,-9.367297,-0.589146,-1.667108,0.011239,0.100359,0.446717,40.325297,-16.224158,16.744303,4635727169807450100.000000,-0.551852,0.398533,-0.653318,-0.331369,-12.518304,5.133406,-3.968101,1.027822,-2.172531,-0.994777,41.708371,8.992181,13.395848,4635728995705421800.000000,0.557687,0.526959,0.531915,-0.358280,0
-9.795227,-3.139763,-2.380968,0.426478,-0.573860,0.422602,38.937711,-6.375185,21.784406,4635731465311617000.000000,-0.656542,0.173654,-0.720165,-0.141986,-9.985101,-0.530224,-1.519568,0.007617,0.102496,0.463668,40.258966,-16.439649,16.892919,4635727169807450100.000000,-0.550987,0.397439,-0.654303,-0.332180,-12.772072,5.866580,-4.441361,0.994719,-2.148012,-1.026030,42.092427,9.121449,12.566903,4635728995705421800.000000,0.558770,0.523749,0.527588,-0.367578,0
-9.492142,-2.972284,-2.113366,0.527650,-0.823055,0.442843,38.902080,-6.464534,21.308356,4635731465311617000.000000,-0.659144,0.170442,-0.718523,-0.142141,-10.226633,-0.543496,-1.373600,0.010402,0.100035,0.486005,40.056223,-16.563846,16.897179,4635727169807450100.000000,-0.550100,0.396273,-0.655320,-0.333037,-12.315066,5.852348,-4.837584,1.011920,-2.104278,-1.090361,42.318691,9.270431,11.633635,4635728995705421800.000000,0.559555,0.520445,0.523414,-0.376926,0
-8.775752,-2.841906,-1.780967,0.618009,-0.758330,0.497150,38.898614,-6.530961,21.011855,4635731465311617000.000000,-0.661571,0.166854,-0.717136,-0.142126,-10.051518,-0.472934,-1.559806,0.023728,0.085410,0.509037,40.007887,-16.642918,16.805367,4635727169807450100.000000,-0.549241,0.394991,-0.656358,-0.333933,-11.895346,5.175032,-4.508312,1.080688,-2.021022,-1.158253,43.125274,9.041944,10.726900,4635728836029330400.000000,0.559837,0.517225,0.519412,-0.386358,0
-8.349426,-2.844763,-1.197811,0.733581,-0.409064,0.528690,39.065615,-6.554385,21.132444,4635731465311617000.000000,-0.663004,0.163057,-0.716788,-0.141607,-9.936827,-0.414515,-2.009332,0.025360,0.062469,0.523762,39.982464,-16.850917,16.667396,4635727169807450100.000000,-0.548424,0.393633,-0.657366,-0.334894,-11.559456,3.915377,-4.022161,1.269929,-1.943149,-1.255983,43.839005,8.848170,9.926459,4635728780957057000.000000,0.559837,0.513625,0.516108,-0.395480,0
-8.034014,-3.031340,-1.369038,0.838996,-0.210950,0.530186,39.200886,-6.631534,21.234064,4635731465311617000.000000,-0.663906,0.159079,-0.717038,-0.140641,-9.755921,-0.473944,-2.241399,0.023822,0.040501,0.531239,39.830139,-17.146040,16.612132,4635727169807450100.000000,-0.547652,0.392224,-0.658332,-0.335912,-11.311570,1.464601,-3.452510,1.656529,-1.854114,-1.348248,43.904710,9.394686,9.075743,4635728780957057000.000000,0.558195,0.511355,0.511961,-0.405993,0
-7.853195,-3.024029,-1.954605,0.911112,-0.087388,0.507556,39.208262,-6.716982,21.140312,4635731465311617000.000000,-0.664488,0.155039,-0.717643,-0.139312,-9.365846,-0.460735,-2.291228,0.043646,0.007954,0.533100,39.747307,-17.355164,16.803143,4635727169807450100.000000,-0.546997,0.390718,-0.659251,-0.336930,-11.826996,-1.079569,-3.132636,2.212249,-1.720148,-1.338669,43.828029,10.293850,7.988174,4635728780957057000.000000,0.555017,0.510554,0.507081,-0.417325,0
-8.190075,-2.904956,-2.188934,0.974143,0.022786,0.454312,39.072994,-6.775109,21.082186,4635731499638368300.000000,-0.664799,0.151044,-0.718541,-0.137574,-9.283920,-0.314783,-2.450462,0.073601,-0.038487,0.523722,39.712297,-17.526068,17.002762,4635727169807450100.000000,-0.546528,0.389103,-0.660088,-0.337920,-13.748608,-0.983009,-2.985512,2.736515,-1.548131,-1.191124,43.948499,11.006907,6.973712,4635728780957057000.000000,0.550519,0.511489,0.501278,-0.428985,0
-8.451426,-2.605172,-2.287780,1.006310,-0.158501,0.427311,39.042180,-6.775109,21.050965,4635731572685799400.000000,-0.665677,0.146933,-0.718923,-0.135776,-9.616643,-0.109423,-2.544435,0.097845,-0.089056,0.507237,39.557377,-17.696961,17.012903,4635727169807450100.000000,-0.546259,0.387405,-0.660814,-0.338885,-15.768357,2.216690,-2.981414,3.058508,-1.391450,-0.953427,43.913814,11.460150,6.227195,4635728780957057000.000000,0.545325,0.513840,0.494651,-0.440351,0
-8.299723,-2.270171,-1.976195,1.042250,-0.241951,0.405257,39.123727,-6.747791,21.015747,4635731572685799400.000000,-0.666825,0.142739,-0.719064,-0.133858,-9.832793,0.146917,-2.470220,0.111966,-0.147101,0.479892,39.470747,-17.821187,16.921623,4635727169807450100.000000,-0.546209,0.385667,-0.661381,-0.339842,-16.949960,6.138952,-2.818389,3.103167,-1.257262,-0.757405,43.803941,11.796360,5.555749,4635729020422618100.000000,0.540013,0.516840,0.487725,-0.450985,0
-7.892898,-2.118679,-1.780891,1.062841,-0.109057,0.407769,39.173557,-6.662345,21.109497,4635731504048770000.000000,-0.667571,0.138551,-0.719570,-0.131804,-9.839167,0.619109,-2.356569,0.118980,-0.205480,0.435871,39.556198,-17.900265,16.823964,4635727169807450100.000000,-0.546390,0.383950,-0.661751,-0.340772,-17.523772,9.119519,-3.012952,3.020063,-1.168518,-0.602089,43.812045,12.177254,4.811787,4635729103079604200.000000,0.534889,0.520039,0.480725,-0.460821,0
-7.786798,-2.212423,-1.581705,1.085995,0.016468,0.426651,39.122862,-6.526211,21.194935,4635731357937434600.000000,-0.667929,0.134307,-0.720432,-0.129657,-9.827502,1.268770,-2.396316,0.107479,-0.259953,0.377968,39.682474,-17.985712,16.685481,4635727169807450100.000000,-0.546784,0.382340,-0.661885,-0.341688,-17.648771,10.011219,-3.663194,2.903517,-1.144564,-0.500473,43.788287,12.625414,3.970230,4635729103079604200.000000,0.530071,0.523141,0.473695,-0.470065,0
-7.814766,-2.332979,-1.432673,1.120371,0.057236,0.439009,38.964159,-6.360057,21.256990,4635731357937434600.000000,-0.668161,0.129950,-0.721414,-0.127416,-9.820584,1.703058,-2.546999,0.066856,-0.315446,0.303630,39.695904,-18.106150,16.496550,4635727169807450100.000000,-0.547370,0.380948,-0.661715,-0.342634,-17.343405,7.560881,-4.202333,2.789680,-1.036531,-0.448361,43.812042,13.043955,3.248630,4635729023270637600.000000,0.525184,0.526345,0.466800,-0.478791,0
-7.765782,-2.579002,-1.478462,1.182918,0.109075,0.430477,38.879565,-6.387358,21.265297,4635731357937434600.000000,-0.668260,0.125467,-0.722550,-0.124932,-9.943585,1.895799,-2.829775,0.030337,-0.380728,0.221292,39.537216,-18.270668,16.347892,4635727169807450100.000000,-0.548194,0.379772,-0.661210,-0.343595,-15.739842,4.974899,-5.736776,2.641288,-1.006137,-0.473665,43.806432,13.319757,2.504680,4635728995705421800.000000,0.520434,0.529158,0.460251,-0.487144,0
-7.920554,-2.948551,-1.611377,1.242059,0.147799,0.407189,38.983984,-6.441611,21.296482,4635731357937434600.000000,-0.668266,0.120907,-0.723791,-0.122182,-10.146904,1.749117,-3.423909,0.048864,-0.465187,0.146798,39.454327,-18.400748,16.296883,4635727169807450100.000000,-0.549384,0.378637,-0.660419,-0.344468,-15.013991,2.105554,-6.026207,2.652259,-0.683691,-0.486801,43.664092,13.560740,1.880847,4635728995705421800.000000,0.514941,0.532552,0.454344,-0.494767,0
-8.016366,-3.351396,-1.552904,1.289766,0.126060,0.388097,39.100311,-6.355337,21.417530,4635731357937434600.000000,-0.668352,0.116256,-0.724964,-0.119242,-10.410549,1.473451,-3.828387,0.145923,-0.568415,0.079457,39.495141,-18.445387,16.209425,4635727169807450100.000000,-0.551105,0.377316,-0.659421,-0.345081,-12.665053,2.044076,-9.168329,2.582268,-0.680197,-0.502156,43.598909,13.850236,1.307116,4635728995705421800.000000,0.509498,0.535707,0.448563,-0.502216,0
-7.988566,-3.629497,-1.545213,1.335822,0.199860,0.357004,39.049635,-6.134579,21.627417,4635731357937434600.000000,-0.668231,0.111603,-0.726325,-0.116037,-10.614064,1.532669,-3.714875,0.265348,-0.673938,0.007110,39.580594,-18.363760,16.020484,4635727169807450100.000000,-0.553403,0.375764,-0.658233,-0.345363,-12.276973,1.333356,-8.155776,3.003479,0.351458,-0.268435,43.628926,14.110088,0.796822,4635728995705421800.000000,0.501603,0.542276,0.443504,-0.507579,0
-8.095152,-3.470183,-1.681440,1.339457,0.160670,0.317689,38.914328,-6.018250,21.826838,4635731357937434600.000000,-0.668228,0.107036,-0.727535,-0.112726,-10.521334,2.167399,-3.462365,0.321321,-0.781894,-0.079070,39.735997,-18.152057,15.871816,4635727169807450100.000000,-0.556203,0.374161,-0.656734,-0.345459,-6.038551,18.307024,-30.215613,2.245301,-0.302804,0.020490,43.632398,14.118374,0.326738,4635729075485663200.000000,0.497177,0.546344,0.437972,-0.512351,0
-8.687675,-2.726964,-0.836249,1.362311,-0.004624,0.284280,38.856163,-6.018250,21.795651,4635731357937434600.000000,-0.668731,0.102426,-0.728256,-0.109323,-10.267207,2.926242,-3.283792,0.271727,-0.905034,-0.200085,40.014536,-17.977330,15.680915,4635727169807450100.000000,-0.559428,0.372822,-0.654680,-0.345597,-14.599898,26.442458,-21.781340,-1.075780,-1.341059,-0.444664,43.565766,14.099551,0.062397,4635729103079604200.000000,0.501178,0.540429,0.438406,-0.514352,0
-9.281524,-1.432783,0.447777,1.337706,-0.075913,0.226141,38.828883,-5.940304,21.787637,4635731323657566200.000000,-0.669444,0.098024,-0.728718,-0.105860,-10.655521,3.091235,-3.639273,0.120777,-1.031674,-0.361392,40.309150,-17.926848,15.253922,4635727169807450100.000000,-0.562986,0.372086,-0.651851,-0.345962,-38.812135,-8.957519,7.497877,-1.900657,0.042110,-1.301604,43.425901,14.498625,0.220814,4635729103079604200.000000,0.502636,0.534150,0.445393,-0.513485,0
-9.648201,-0.057206,-0.246105,1.087982,-0.083545,0.105460,38.797980,-5.692301,21.939556,4635731250563252200.000000,-0.670115,0.094679,-0.728979,-0.102819,-11.511608,3.726659,-4.686878,0.037630,-1.145933,-0.491085,40.478089,-17.844719,14.814225,4635727169807450100.000000,-0.566898,0.371724,-0.648416,-0.346418,-19.474523,-22.068198,-1.746088,-1.555161,0.040648,-1.340250,43.203745,15.044754,0.574098,4635729103079604200.000000,0.503203,0.528475,0.451687,-0.513303,0
-11.075115,1.273890,-0.774166,0.915625,-0.551852,-0.048399,38.930174,-5.439841,21.869195,4635731250563252200.000000,-0.672193,0.092080,-0.727782,-0.100055,-12.136091,3.397019,-5.145706,0.096375,-1.314231,-0.591679,40.592111,-17.680207,14.614483,4635727169807450100.000000,-0.571483,0.371240,-0.644491,-0.346727,-15.096671,-24.817253,-2.825570,-0.911430,0.630817,-1.819062,42.905223,15.467084,0.816478,4635729103079604200.000000,0.500181,0.524471,0.458861,-0.513999,0
-12.048058,2.729175,2.093182,0.956724,-0.891672,-0.199729,39.166001,-5.195702,21.497526,4635731250563252200.000000,-0.675364,0.089680,-0.725574,-0.096871,-13.380676,2.616811,-3.920545,0.137888,-1.497979,-0.703204,40.832373,-17.468520,14.376997,4635727169807450100.000000,-0.576761,0.370677,-0.639988,-0.346929,-21.109571,-18.407073,-4.646831,-0.248972,0.733607,-1.413125,42.814504,15.908968,1.002724,4635729103079604200.000000,0.496354,0.522813,0.463916,-0.514862,0
-10.988028,3.209596,4.169359,0.928626,-0.422992,-0.354755,39.382873,-4.951573,21.344225,4635731250563252200.000000,-0.677153,0.088015,-0.724596,-0.093158,-13.970317,3.507345,-3.801916,0.094367,-1.600371,-0.833726,41.121177,-17.171402,13.805795,4635727169807450100.000000,-0.582403,0.370400,-0.634941,-0.347075,-16.709633,-6.236173,-1.610991,-0.129873,0.826576,-1.740850,42.747904,16.499725,1.249277,4635729103079604200.000000,0.491358,0.520938,0.469596,-0.516402,0
-11.197567,2.705199,4.502003,0.932953,-0.032873,-0.491652,39.490952,-4.730789,21.550173,4635731250563252200.000000,-0.677806,0.086901,-0.724655,-0.088902,-14.221166,4.661095,-4.430558,0.024671,-1.664217,-0.992507,41.324537,-16.788844,13.030952,4635727169807450100.000000,-0.588299,0.370598,-0.629353,-0.347097,-22.520526,-3.636492,3.292323,-0.066742,0.744242,-1.336526,42.490219,17.116360,1.599417,4635729103079604200.000000,0.487230,0.519781,0.474069,-0.517390,0
-12.456083,2.305409,3.749240,0.868882,-0.142481,-0.556680,39.463694,-4.509265,21.675190,4635731284812691500.000000,-0.678777,0.086122,-0.724342,-0.084693,-16.403109,5.006029,-4.302168,0.069207,-1.659136,-1.162158,41.599702,-16.361609,12.436089,4635727169807450100.000000,-0.594455,0.371114,-0.623536,-0.346556,-22.398471,-0.521947,11.659670,0.292827,0.505547,-1.207590,42.109372,17.563558,1.914391,4635729103079604200.000000,0.483057,0.519075,0.476987,-0.519327,0
-13.036452,1.963731,2.686683,0.821604,-0.660685,-0.579756,39.401605,-4.078450,21.370338,4635731357937434600.000000,-0.681289,0.085360,-0.722522,-0.080746,-19.701022,4.652916,-4.829295,0.189186,-1.694605,-1.342399,41.996697,-15.940199,12.051300,4635727169807450100.000000,-0.601102,0.371722,-0.617477,-0.345285,-22.363506,-7.991004,28.242908,0.802203,0.469147,-1.300331,42.005676,18.008545,2.125767,4635729103079604200.000000,0.477636,0.519113,0.478913,-0.522521,0
-13.086336,1.807417,3.197300,0.938810,-1.102747,-0.561721,39.443892,-3.532712,20.986117,4635731357937434600.000000,-0.685145,0.084060,-0.719468,-0.076652,-21.685823,5.389228,-4.618250,0.174359,-1.751480,-1.461478,42.352396,-15.437800,11.480706,4635727169807450100.000000,-0.607991,0.372560,-0.611015,-0.343812,-21.506228,-9.871837,19.281671,1.945305,1.102949,-1.019690,41.987547,18.481475,2.100409,4635729103079604200.000000,0.469053,0.523329,0.478968,-0.526028,0
-13.214769,2.788221,4.507530,0.955918,-1.014115,-0.523517,39.629825,-3.253720,20.876254,4635731357937434600.000000,-0.688701,0.082622,-0.716656,-0.072583,-22.310721,5.963385,-4.562279,0.189917,-1.749909,-1.369407,42.634850,-14.886223,10.746018,4635727169807450100.000000,-0.614712,0.373094,-0.604667,-0.342501,-19.698594,-12.204240,-2.634148,2.092942,1.455570,-0.582039,41.682159,18.830673,2.002750,4635729103079604200.000000,0.460353,0.529423,0.478382,-0.528146,0
-13.605908,2.985796,4.083336,0.833665,-0.687277,-0.526495,39.897298,-3.086721,20.673015,4635731357937434600.000000,-0.691219,0.081640,-0.714720,-0.068755,-22.169906,5.590033,-5.117912,0.380219,-1.773898,-1.251082,42.954676,-14.420683,10.155601,4635727169807450100.000000,-0.621568,0.372777,-0.598661,-0.341022,-20.392582,-11.624867,-10.046791,1.438651,1.320500,-0.358143,41.342790,18.954580,2.131662,4635729103079604200.000000,0.453815,0.534362,0.478438,-0.528778,0
-13.824276,1.935960,2.135942,0.655594,-0.529601,-0.595371,40.136871,-2.900788,20.301298,4635731357937434600.000000,-0.693210,0.081418,-0.713147,-0.065205,-19.859084,5.771263,-4.850488,0.359874,-1.698080,-1.348426,43.392425,-13.993451,9.713910,4635727169807450100.000000,-0.628288,0.372832,-0.592619,-0.339196,-17.330607,-3.556811,-2.920001,0.600703,1.310337,-0.125381,41.451330,18.979366,2.529487,4635729103079604200.000000,0.449653,0.538131,0.479779,-0.527293,0
-13.341467,0.917287,0.904282,0.417808,-0.483858,-0.644657,40.210114,-2.606074,20.027249,4635731357937434600.000000,-0.694987,0.082041,-0.711613,-0.062202,-17.108632,5.155711,-4.561621,0.028866,-1.505173,-1.471249,43.717150,-13.572013,9.276699,4635727169807450100.000000,-0.634139,0.374299,-0.586375,-0.337539,-11.594899,6.164765,1.281067,-0.180347,1.210628,-0.148075,41.589875,18.919077,3.074928,4635729103079604200.000000,0.447379,0.540156,0.482686,-0.524497,0
-11.545313,0.579718,0.029651,0.284626,-0.458458,-0.665625,40.256128,-2.226599,19.788625,4635731357937434600.000000,-0.696640,0.083117,-0.710100,-0.059524,-14.659255,1.359032,-4.098025,-0.142678,-1.323085,-1.474198,43.753595,-13.075491,8.788431,4635727169807450100.000000,-0.639235,0.376456,-0.580322,-0.335985,-7.566727,6.546587,-0.092984,-0.710293,1.015017,-0.336432,41.515364,18.833633,3.576136,4635729103079604200.000000,0.446268,0.540372,0.486797,-0.521412,0
-9.167720,1.015678,-1.319478,0.236411,-0.536783,-0.546592,40.275036,-1.924225,19.514555,4635731392148217900.000000,-0.698469,0.083961,-0.708380,-0.057361,-12.113072,-3.625329,-2.496057,-0.072085,-1.168101,-1.415170,43.894571,-12.443011,8.253604,4635727272194975700.000000,-0.643942,0.378476,-0.574836,-0.334153,-5.898609,1.147612,-2.487452,-0.818025,0.818627,-0.386185,41.362967,19.047187,4.124696,4635729103079604200.000000,0.445679,0.539845,0.490877,-0.518630,0
-8.072231,0.388804,-1.164568,0.261998,-0.382758,-0.318282,40.383817,-1.703421,19.400372,4635731465311617000.000000,-0.699792,0.084092,-0.707188,-0.055732,-9.878551,-6.877377,-0.501715,0.057898,-1.006152,-1.323654,44.256674,-11.846699,7.714210,4635727384555814900.000000,-0.648303,0.380133,-0.570079,-0.331982,-7.065117,-1.862375,-4.248242,-0.610452,0.671551,-0.333793,41.267697,19.301154,4.408502,4635729103079604200.000000,0.445028,0.539481,0.494107,-0.516496,0
-7.731717,0.000448,-1.161611,0.302698,-0.246592,-0.126411,40.542508,-1.586962,19.458601,4635731465311617000.000000,-0.700680,0.083571,-0.706466,-0.054495,-9.222325,-8.862978,2.041926,0.201513,-0.886221,-1.260275,44.457653,-11.421898,7.359803,4635727384555814900.000000,-0.652489,0.381401,-0.565918,-0.329437,-9.018127,-2.380060,-4.089325,-0.346785,0.555242,-0.255925,41.131040,19.415300,4.464762,4635729103079604200.000000,0.444186,0.539509,0.496374,-0.515016,0
-7.940666,-0.211415,-1.639681,0.382296,-0.226919,0.033928,40.623427,-1.563626,19.365254,4635731465311617000.000000,-0.701500,0.082349,-0.705873,-0.053485,-9.731591,-8.558698,4.131615,-0.127942,-0.707521,-1.308963,44.530888,-11.126672,7.065044,4635727384555814900.000000,-0.655770,0.383909,-0.561689,-0.327238,-9.657679,-1.758429,-2.381088,-0.075318,0.503606,-0.185048,40.981395,19.425125,4.748780,4635729103079604200.000000,0.442991,0.540072,0.497799,-0.514079,0
-8.745893,-0.091397,-1.535219,0.482499,-0.196918,0.124670,40.514645,-1.459272,19.161734,4635731465311617000.000000,-0.702243,0.080574,-0.705417,-0.052435,-8.103981,-4.070456,2.342786,-0.737371,-0.374228,-1.279694,44.679758,-10.754543,6.767484,4635727282219830300.000000,-0.657229,0.388452,-0.557565,-0.326000,-9.632409,-0.586874,-1.891764,0.167747,0.445679,-0.154223,41.007048,19.485396,5.054710,4635729103079604200.000000,0.441433,0.541021,0.498526,-0.513717,0
-9.708481,0.256982,-1.185122,0.564534,-0.134883,0.209086,40.433722,-1.315599,19.215623,4635731499509514200.000000,-0.702809,0.078323,-0.705186,-0.051370,-6.040678,-1.707944,-0.760259,-0.876586,-0.189429,-1.200390,44.870978,-10.247650,6.752502,4635727169807450100.000000,-0.657899,0.393428,-0.553864,-0.324989,-10.033010,0.404969,-2.511323,0.222759,0.353815,-0.197894,41.083437,19.561786,4.982162,4635729103079604200.000000,0.439846,0.541782,0.499062,-0.513755,0
-10.461891,0.792139,-1.022153,0.612395,0.022727,0.249117,40.596920,-1.284575,19.407046,4635731572685799400.000000,-0.702914,0.075848,-0.705433,-0.050230,-5.722981,-5.629185,-0.727809,-0.545034,-0.198976,-1.145274,44.982563,-9.787868,6.801815,4635727169807450100.000000,-0.659036,0.397342,-0.550657,-0.323368,-10.905626,-0.216681,-2.314634,0.104596,0.262929,-0.247194,41.093268,19.698430,4.931791,4635729103079604200.000000,0.438609,0.542027,0.499795,-0.513841,0
-11.045585,2.100469,-1.335124,0.611458,0.188592,0.221876,40.844873,-1.315612,19.500757,4635731572685799400.000000,-0.702532,0.073490,-0.706152,-0.048961,-5.105112,-9.450123,0.261689,-0.117329,-0.151036,-1.019417,45.055807,-9.372816,6.605261,4635727169807450100.000000,-0.660586,0.399848,-0.548353,-0.321024,-11.347780,-0.222862,-1.403008,-0.018337,0.207839,-0.260869,40.981426,19.857122,5.076715,4635729182750139400.000000,0.437735,0.541901,0.500720,-0.513820,0
-11.810765,3.414826,-1.770103,0.546057,0.244893,0.166187,40.817092,-1.230164,19.434187,4635731504333343700.000000,-0.701971,0.071498,-0.707000,-0.047704,-3.811856,-8.455240,0.356886,0.061752,-0.047726,-0.829986,45.088330,-8.992688,6.445509,4635727169807450100.000000,-0.661934,0.401560,-0.546881,-0.318615,-11.142222,0.665857,-0.637171,-0.123867,0.175935,-0.266451,40.880233,20.015804,5.199563,4635729210453786600.000000,0.437152,0.541501,0.501825,-0.513660,0
-12.711947,3.810302,-2.027028,0.465311,0.188900,0.119388,40.549604,-1.171911,19.496371,4635731357937434600.000000,-0.701556,0.069868,-0.707650,-0.046564,-2.977338,-5.111837,0.356952,0.131871,0.046555,-0.641110,45.076124,-8.697429,6.486220,4635727169807450100.000000,-0.662926,0.402768,-0.546071,-0.316406,-10.812236,0.016227,-0.427656,-0.176759,0.169560,-0.278407,40.858177,20.111102,5.288163,4635729210453786600.000000,0.436676,0.540965,0.503057,-0.513424,0
-13.432661,3.241471,-2.227872,0.401713,0.111321,0.136734,40.356576,-1.199113,19.633391,4635731357937434600.000000,-0.701346,0.068357,-0.708063,-0.045685,-2.821696,-3.354099,0.683156,0.340907,0.088762,-0.524848,45.145338,-8.488175,6.484434,4635727169807450100.000000,-0.664016,0.403188,-0.545845,-0.313969,-10.340886,-0.531593,-0.550896,-0.138312,0.178552,-0.301802,40.867236,20.130009,5.455121,4635729210453786600.000000,0.436044,0.540468,0.504275,-0.513291,0
-13.397585,2.459225,-2.579673,0.361228,-0.051623,0.188868,40.484197,-1.257362,19.548482,4635731357937434600.000000,-0.701594,0.066780,-0.708005,-0.045124,-2.859425,-3.684988,1.185334,0.637872,0.110480,-0.441492,45.269130,-8.317291,6.479817,4635727169807450100.000000,-0.665439,0.402620,-0.546202,-0.311048,-9.969954,-0.030836,-0.860764,-0.082945,0.172077,-0.324541,40.752668,20.066621,5.577981,4635729210453786600.000000,0.435251,0.540009,0.505412,-0.513328,0
-12.002671,2.038642,-3.001361,0.354868,-0.393998,0.211881,40.677841,-1.257362,19.317662,4635731357937434600.000000,-0.702842,0.065089,-0.706947,-0.044745,-2.562951,-4.149357,1.474775,0.894608,0.150866,-0.346533,45.308067,-8.152213,6.664674,4635727169807450100.000000,-0.667070,0.401171,-0.547156,-0.307734,-9.688790,0.505933,-1.051781,-0.051999,0.153714,-0.356204,40.648307,20.162269,5.530759,4635729210453786600.000000,0.434358,0.539498,0.506520,-0.513529,0
-10.211989,1.590838,-2.274971,0.357926,-0.526495,0.243489,40.759411,-1.230171,19.278268,4635731357937434600.000000,-0.704471,0.063270,-0.705506,-0.044485,-2.202541,-3.878399,1.578255,1.048118,0.204937,-0.231470,45.179572,-7.952806,6.945461,4635727169807450100.000000,-0.668674,0.399094,-0.548638,-0.304295,-9.465502,0.631632,-1.032130,-0.061776,0.122327,-0.396998,40.617182,20.493007,5.505539,4635729210453786600.000000,0.433465,0.538816,0.507683,-0.513852,0
-8.631801,1.326737,-1.171937,0.346081,-0.336479,0.252470,40.809349,-1.199096,19.336527,4635731357937434600.000000,-0.705532,0.061495,-0.704618,-0.044236,-2.186287,-2.994308,1.769491,1.117537,0.250608,-0.134638,45.045319,-7.743564,7.139005,4635727169807450100.000000,-0.670152,0.396650,-0.550484,-0.300884,-9.430016,0.535194,-0.931731,-0.097397,0.095003,-0.443682,40.550655,20.711589,5.505539,4635729210453786600.000000,0.432609,0.537910,0.508975,-0.514244,0
-7.783340,1.259563,-0.887244,0.319184,-0.118425,0.256843,40.809349,-1.338918,19.282157,4635731357937434600.000000,-0.705942,0.059826,-0.704364,-0.044023,-2.393786,-1.723750,2.073471,1.095270,0.296735,-0.085049,45.120867,-7.654042,7.236652,4635727169807450100.000000,-0.671411,0.394204,-0.552501,-0.297580,-9.544963,0.419023,-0.622693,-0.143531,0.095786,-0.479864,40.356565,20.806906,5.650393,4635729210453786600.000000,0.431775,0.536843,0.510447,-0.514600,0
-7.828224,1.556990,-1.073693,0.275491,-0.017628,0.222081,40.786050,-1.513718,19.134558,4635731357937434600.000000,-0.706051,0.058406,-0.704387,-0.043812,-2.473460,-0.565149,2.403071,0.947323,0.347600,-0.066938,45.204014,-7.613362,7.380803,4635727169807450100.000000,-0.672274,0.392184,-0.554494,-0.294579,-9.628078,0.372530,-0.506812,-0.193974,0.106983,-0.492897,40.124624,20.816777,5.845711,4635729210453786600.000000,0.431001,0.535680,0.512074,-0.514845,0
-8.309314,1.623585,-1.176308,0.213445,-0.036052,0.186590,40.708929,-1.459368,19.033025,4635731357937434600.000000,-0.706203,0.057269,-0.704336,-0.043682,-2.348509,-0.108695,2.738463,0.710621,0.398206,-0.049801,45.198203,-7.493050,7.523813,4635727169807450100.000000,-0.672603,0.390843,-0.556358,-0.292085,-9.824894,-0.113549,-0.627236,-0.209597,0.113188,-0.495345,40.064697,20.931302,5.896176,4635729210453786600.000000,0.430240,0.534495,0.513748,-0.515045,0
-8.705399,1.608058,-1.218602,0.161541,-0.081258,0.151155,40.677825,-1.342814,18.989150,4635731357937434600.000000,-0.706482,0.056381,-0.704132,-0.043612,-2.240353,-0.331797,3.033755,0.456787,0.444490,-0.021016,45.232472,-7.409894,7.661539,4635727169807450100.000000,-0.672370,0.390199,-0.558084,-0.290183,-9.915149,-0.823820,-0.816220,-0.202506,0.123003,-0.482157,40.055647,21.089980,5.823769,4635729210453786600.000000,0.429470,0.533369,0.515393,-0.515213,0
-9.315790,1.559232,-1.088000,0.121683,-0.012111,0.103957,40.763268,-1.397143,19.090682,4635731392070904800.000000,-0.706557,0.055761,-0.704113,-0.043503,-2.303657,-0.619035,3.330164,0.237350,0.473793,0.018547,45.271451,-7.369234,7.903313,4635727169807450100.000000,-0.671660,0.390110,-0.559688,-0.288852,-9.852215,-0.967962,-0.866726,-0.222709,0.110995,-0.448161,39.998186,21.239621,6.006677,4635729210453786600.000000,0.428841,0.532251,0.516981,-0.515301,0
-9.591704,1.491000,-1.402720,0.086866,-0.115857,0.080846,40.794391,-1.459389,19.130697,4635731465311617000.000000,-0.706932,0.055292,-0.703777,-0.043453,-2.479188,-0.730673,3.742264,0.074364,0.482854,0.081456,45.148882,-7.365102,8.190482,4635727169807450100.000000,-0.670586,0.390339,-0.561222,-0.288061,-9.700254,-1.205590,-0.631414,-0.207754,0.108914,-0.417351,39.861589,21.395160,6.224094,4635729210453786600.000000,0.428247,0.531220,0.518464,-0.515369,0
-9.379887,1.233668,-1.312978,0.068170,-0.193490,0.073596,40.759387,-1.346695,18.962621,4635731465311617000.000000,-0.707531,0.054886,-0.703206,-0.043454,-2.680906,-0.647088,4.078949,-0.064444,0.476144,0.159887,45.096415,-7.409894,8.430593,4635727169807450100.000000,-0.669205,0.390763,-0.562695,-0.287824,-9.556513,-1.592614,-0.558383,-0.164904,0.125856,-0.379288,39.757203,21.490497,6.202211,4635729369646899200.000000,0.427603,0.530382,0.519798,-0.515423,0
-8.822269,0.687122,-0.962778,0.068013,-0.143746,0.095355,40.859785,-1.405458,18.704583,4635731465311617000.000000,-0.707981,0.054425,-0.702786,-0.043508,-2.760054,-0.257136,4.169123,-0.226734,0.470493,0.237457,45.185408,-7.450553,8.538784,4635727169807450100.000000,-0.667477,0.391449,-0.564082,-0.288191,-9.548921,-1.244380,-0.633932,-0.145619,0.132174,-0.331297,39.680804,21.509445,6.176946,4635729425202151400.000000,0.427004,0.529695,0.520995,-0.515418,0
-8.424254,0.361771,-0.807980,0.090442,-0.067127,0.092161,40.995192,-1.540865,18.610693,4635731465311617000.000000,-0.708211,0.053922,-0.702595,-0.043471,-2.635725,0.192842,4.017529,-0.417715,0.480709,0.305109,45.075650,-7.576655,8.585837,4635727169807450100.000000,-0.665326,0.392516,-0.565375,-0.289175,-9.657936,-1.005018,-0.686347,-0.176387,0.126908,-0.286637,39.661854,21.563739,6.321730,4635729425202151400.000000,0.426580,0.529037,0.522149,-0.515277,0
-8.335487,0.397825,-0.758459,0.111856,-0.038973,0.080401,41.030222,-1.599170,18.739394,4635731465311617000.000000,-0.708365,0.053395,-0.702489,-0.043329,-2.503707,0.273915,3.665930,-0.596904,0.504557,0.365426,44.872176,-7.788183,8.769987,4635727169807450100.000000,-0.662747,0.393963,-0.566612,-0.290707,-9.593151,-1.537562,-0.759157,-0.193536,0.125765,-0.234414,39.725190,21.763647,6.507983,4635729266034806800.000000,0.426307,0.528459,0.523221,-0.515008,0
-8.244448,0.524788,-0.824065,0.129045,-0.045375,0.065330,40.980251,-1.626318,18.872646,4635731465311617000.000000,-0.708545,0.052859,-0.702363,-0.043094,-2.530353,-0.079333,3.338583,-0.716022,0.527248,0.435450,44.713491,-8.079356,9.022307,4635727169807450100.000000,-0.659824,0.395595,-0.567873,-0.292671,-9.350304,-2.050114,-0.989367,-0.151930,0.133958,-0.173331,39.747307,21.826838,6.555376,4635729210453786600.000000,0.426055,0.528104,0.524083,-0.514703,0
-8.258804,0.773934,-0.697554,0.135756,-0.015618,0.018223,40.953115,-1.630348,18.903660,4635731465311617000.000000,-0.708647,0.052448,-0.702315,-0.042694,-2.750506,-0.475320,3.158303,-0.740398,0.534178,0.525715,44.554803,-8.374107,9.084699,4635727169807450100.000000,-0.656723,0.397081,-0.569264,-0.294924,-9.132866,-2.251186,-1.324422,-0.093182,0.146223,-0.111893,39.620640,21.817790,6.492043,4635729210453786600.000000,0.425779,0.528014,0.524706,-0.514390,0
-8.333204,1.047398,-0.587678,0.118489,-0.059239,-0.004750,40.867658,-1.459430,18.935405,4635731465311617000.000000,-0.708877,0.052146,-0.702130,-0.042287,-3.127141,-0.785112,3.007803,-0.688702,0.522795,0.623633,44.396107,-8.624657,9.079917,4635727169807450100.000000,-0.653600,0.398173,-0.570839,-0.297335,-9.082308,-2.300877,-1.551755,-0.047104,0.147166,-0.049431,39.522124,21.877955,6.605620,4635729210453786600.000000,0.425533,0.528144,0.525094,-0.514064,0
-8.400262,1.423650,-0.373147,0.073492,-0.095685,-0.030219,40.782211,-1.369952,18.833300,4635731499411132400.000000,-0.709208,0.052046,-0.701824,-0.041943,-3.518975,-1.121117,2.760240,-0.625001,0.511695,0.712044,44.359313,-8.915245,9.270455,4635727169807450100.000000,-0.650487,0.398859,-0.572599,-0.299848,-9.100400,-2.542396,-1.517755,0.012758,0.151085,0.023086,39.503159,21.954358,6.797772,4635729210453786600.000000,0.425301,0.528547,0.525201,-0.513732,0
-8.496937,1.642956,-0.100365,0.015299,-0.074087,-0.058614,40.751017,-1.455386,18.743991,4635731572685799400.000000,-0.709468,0.052204,-0.701565,-0.041682,-3.908367,-1.363626,2.356433,-0.596184,0.517684,0.788187,44.451157,-9.251208,9.522774,4635727169807450100.000000,-0.647300,0.399284,-0.574526,-0.302481,-9.034363,-3.004480,-1.471213,0.103512,0.165408,0.111581,39.503159,21.973326,6.848353,4635729210453786600.000000,0.425028,0.529335,0.524944,-0.513410,0
-8.468064,1.684622,-0.069599,-0.054991,-0.133478,-0.049135,40.859708,-1.513718,18.646336,4635731572685799400.000000,-0.709884,0.052532,-0.701120,-0.041667,-4.358236,-1.521720,1.861135,-0.568956,0.523498,0.870312,44.461164,-9.586609,9.678068,4635727169807450100.000000,-0.644025,0.399439,-0.576628,-0.305254,-8.927662,-3.408640,-1.591513,0.202846,0.180915,0.206089,39.448890,21.910014,6.703640,4635729210453786600.000000,0.424704,0.530537,0.524293,-0.513102,0
-8.444235,1.638135,0.218920,-0.128611,-0.145903,-0.047101,40.917684,-1.567952,18.552551,4635731572685799400.000000,-0.710320,0.053070,-0.700625,-0.041875,-4.927783,-1.634591,1.489505,-0.501487,0.503483,0.972031,44.347297,-9.922615,9.822155,4635727118761552900.000000,-0.640766,0.399133,-0.578919,-0.308164,-8.935375,-3.801996,-1.527257,0.313264,0.204575,0.304320,39.484181,21.833607,6.653035,4635729210453786600.000000,0.424293,0.532199,0.523229,-0.512808,0
-8.403156,1.449069,0.384664,-0.185812,-0.098528,-0.036288,40.809349,-1.657515,18.525195,4635731572685799400.000000,-0.710602,0.053754,-0.700263,-0.042272,-5.586942,-1.596378,1.291193,-0.430713,0.463562,1.067722,44.229229,-10.292813,10.023264,4635727062433267700.000000,-0.637582,0.398345,-0.581338,-0.311217,-8.984201,-3.924456,-1.425999,0.421215,0.239189,0.407606,39.629767,21.642804,6.725383,4635729210453786600.000000,0.423785,0.534348,0.521763,-0.512486,0
-8.355503,1.145050,0.231012,-0.228746,-0.096399,-0.011587,40.863569,-1.544950,18.646095,4635731572685799400.000000,-0.710864,0.054493,-0.699904,-0.042868,-6.130065,-1.444698,1.330978,-0.383908,0.423377,1.144888,44.121177,-10.754256,10.178561,4635727062433267700.000000,-0.634455,0.397184,-0.583825,-0.314420,-8.978770,-4.120689,-1.403851,0.500055,0.259165,0.521776,39.683104,21.410870,6.750694,4635729210453786600.000000,0.423298,0.536922,0.519906,-0.512085,0
-8.242365,0.775577,0.016350,-0.258859,-0.117054,0.028011,41.003483,-1.428266,18.731804,4635731572685799400.000000,-0.711170,0.055202,-0.699487,-0.043672,-6.614737,-1.668324,1.806596,-0.304789,0.374315,1.222038,43.974689,-11.261162,10.189191,4635727062433267700.000000,-0.631460,0.395550,-0.586397,-0.317706,-8.981485,-4.449390,-1.593757,0.595596,0.281755,0.617117,39.568708,21.169886,6.624090,4635729210453786600.000000,0.422747,0.539913,0.517666,-0.511665,0
-8.142338,0.407579,-0.247749,-0.268025,-0.105455,0.072507,41.026394,-1.509575,18.579939,4635731572685799400.000000,-0.711432,0.055811,-0.699112,-0.044633,-7.431504,-2.420310,2.394576,-0.203278,0.303229,1.286060,43.787599,-11.721032,10.190762,4635727062433267700.000000,-0.628702,0.393387,-0.589005,-0.321020,-8.957523,-4.016716,-1.750627,0.701848,0.305015,0.682544,39.708413,20.998096,6.570748,4635729210453786600.000000,0.422040,0.543272,0.515085,-0.511297,0
-8.242994,0.122355,-0.474309,-0.240096,-0.081780,0.101059,40.968044,-1.684622,18.365585,4635731504581656600.000000,-0.711624,0.056258,-0.698819,-0.045591,-8.477891,-2.538116,2.583382,-0.181137,0.245402,1.321170,43.515070,-12.141855,10.294215,4635727062433267700.000000,-0.626055,0.390991,-0.591531,-0.324457,-9.047485,-2.657710,-1.818447,0.742994,0.315578,0.730729,40.061053,20.905862,6.630874,4635729210453786600.000000,0.421312,0.546820,0.512315,-0.510899,0
-8.548749,-0.088130,-0.495148,-0.180362,-0.127889,0.122628,40.968044,-1.711714,18.298897,4635731391980706800.000000,-0.711960,0.056456,-0.698404,-0.046451,-9.269512,-1.627606,2.429522,-0.279036,0.230614,1.324018,43.278874,-12.603948,10.398288,4635727062433267700.000000,-0.623262,0.388810,-0.593872,-0.328157,-9.127522,-1.215290,-1.623127,0.595785,0.265018,0.783507,40.225657,20.832611,6.653035,4635729210453786600.000000,0.421131,0.550104,0.509641,-0.510197,0
-8.763720,-0.100050,-0.308771,-0.105438,-0.191901,0.134768,40.968044,-1.824252,18.302767,4635731465311617000.000000,-0.712496,0.056385,-0.697816,-0.047143,-9.825826,-0.793402,2.225386,-0.448491,0.229303,1.285293,43.248404,-13.139226,10.408934,4635727062433267700.000000,-0.620231,0.387151,-0.595897,-0.332167,-9.595393,-0.284939,-0.845146,0.428703,0.209561,0.835878,40.311095,20.641845,6.653035,4635729130931191800.000000,0.421555,0.553078,0.507095,-0.509167,0
-8.786660,-0.015478,-0.116133,-0.050284,-0.206205,0.142402,40.995130,-1.940977,18.280150,4635731465311617000.000000,-0.713085,0.056125,-0.697197,-0.047701,-10.281701,-0.421145,1.962934,-0.658256,0.236542,1.211997,43.305459,-13.759298,10.375683,4635727062433267700.000000,-0.616923,0.386214,-0.597513,-0.336485,-10.033995,-0.781630,-0.489667,0.417286,0.212361,0.862626,40.459839,20.355650,6.589746,4635729103079604200.000000,0.422049,0.556085,0.504509,-0.508050,0
-8.743771,-0.021743,0.010410,-0.018163,-0.189119,0.142116,41.080584,-1.964194,18.244402,4635731465311617000.000000,-0.713631,0.055774,-0.696635,-0.048161,-10.705910,0.159341,1.549104,-0.907481,0.272219,1.112980,43.201686,-14.308923,10.342109,4635727062433267700.000000,-0.613243,0.386201,-0.598692,-0.341101,-10.421443,-0.690921,-0.388390,0.405901,0.222648,0.884739,40.675934,20.104726,6.486218,4635729103079604200.000000,0.422588,0.559131,0.501905,-0.506836,0
-8.854472,0.071429,0.100922,0.021225,-0.149573,0.139927,41.111878,-2.068366,18.314973,4635731465311617000.000000,-0.714071,0.055319,-0.696198,-0.048491,-11.397175,0.537420,1.283605,-1.081477,0.291417,1.036155,42.969744,-14.607996,10.290841,4635727062433267700.000000,-0.609321,0.386837,-0.599527,-0.345909,-10.161218,-1.287837,-0.800099,0.416610,0.267812,0.933545,40.799378,19.872814,6.466756,4635729103079604200.000000,0.423102,0.562382,0.499236,-0.505444,0
-9.071554,0.119413,0.169093,0.054180,-0.124719,0.130451,41.026421,-2.158050,18.292369,4635731465311617000.000000,-0.714448,0.054800,-0.695838,-0.048692,-12.393849,-0.061016,1.668428,-1.137043,0.203966,1.000935,42.772607,-14.860065,10.383613,4635727062433267700.000000,-0.605553,0.387561,-0.599980,-0.350894,-9.248117,-1.962953,-1.693353,0.473603,0.290968,0.956424,40.839633,19.523376,6.614543,4635729103079604200.000000,0.423475,0.565819,0.496424,-0.504065,0
-9.230251,0.045565,0.232544,0.098779,-0.074948,0.096481,41.022197,-2.049389,18.190841,4635731465311617000.000000,-0.714697,0.054256,-0.695628,-0.048651,-12.975859,-0.654924,2.692929,-1.202038,0.072235,0.969265,42.654499,-15.236662,10.445571,4635727062433267700.000000,-0.602030,0.388320,-0.599931,-0.356160,-9.117061,-0.548182,-1.754333,0.472367,0.270805,0.958406,40.972514,19.132739,6.737552,4635729103079604200.000000,0.423887,0.569203,0.493564,-0.502715,0
-9.334797,0.062471,0.045135,0.158713,-0.025123,0.062219,41.216280,-1.991241,18.115786,4635731465311617000.000000,-0.714822,0.053643,-0.695570,-0.048324,-12.721989,-0.605510,3.609680,-1.372578,0.017973,0.863798,42.511688,-15.732855,10.220983,4635727062433267700.000000,-0.598498,0.389674,-0.599297,-0.361660,-9.619641,1.256232,-1.639433,0.390587,0.239831,0.954175,41.071100,18.977116,6.618299,4635729103079604200.000000,0.424540,0.572357,0.490820,-0.501267,0
-9.353528,0.321735,-0.181426,0.226118,-0.069683,0.043149,41.406303,-2.126745,18.119654,4635731465311617000.000000,-0.715094,0.052875,-0.695388,-0.047754,-12.158746,-0.155326,3.652235,-1.700893,0.041994,0.656139,42.329215,-16.308918,9.938406,4635727062433267700.000000,-0.594653,0.392382,-0.597862,-0.367403,-9.606422,1.479935,-1.957963,0.241671,0.196204,0.954369,41.153380,18.894837,6.567583,4635729103079604200.000000,0.425630,0.575146,0.488301,-0.499608,0
-9.589790,0.952485,0.425747,0.264775,-0.100837,0.020222,41.379001,-2.107785,18.124127,4635731499325036500.000000,-0.715469,0.052052,-0.695115,-0.047011,-11.595119,0.189969,2.644910,-2.146695,0.099169,0.428114,42.217729,-16.808355,9.801723,4635727109483572200.000000,-0.590244,0.396823,-0.595472,-0.373573,-10.061313,1.747267,-1.849327,0.057129,0.134694,0.943063,41.419578,18.475006,6.712179,4635729103079604200.000000,0.427256,0.577446,0.486077,-0.497732,0
-10.097160,1.881997,1.414859,0.226196,-0.156539,0.005839,41.161935,-1.913915,18.115786,4635731572685799400.000000,-0.715999,0.051375,-0.694664,-0.046349,-11.370579,0.536168,1.195362,-2.535724,0.115612,0.281079,42.144482,-17.116425,9.587886,4635727169807450100.000000,-0.585320,0.402574,-0.592217,-0.380281,-10.720929,1.677973,-1.255012,-0.123773,0.108799,0.920717,41.694932,18.046363,6.826155,4635729103079604200.000000,0.429317,0.579316,0.484228,-0.495584,0
-10.329291,2.647597,2.007918,0.166471,-0.200419,0.002368,41.103755,-1.882587,18.084858,4635731572685799400.000000,-0.716642,0.050877,-0.694069,-0.045859,-11.406939,0.978103,-0.064805,-2.794477,0.098462,0.233974,42.108681,-17.281970,9.161345,4635727169807450100.000000,-0.580005,0.408995,-0.588359,-0.387493,-11.160078,0.707798,-0.559211,-0.308196,0.097050,0.923031,41.761528,17.773203,6.785103,4635729103079604200.000000,0.431845,0.580827,0.482725,-0.493079,0
-10.273547,3.159475,1.871607,0.196040,-0.153351,0.024727,41.316562,-1.940977,18.049051,4635731572685799400.000000,-0.717151,0.050236,-0.693624,-0.045340,-10.988530,0.370770,-0.941824,-2.915311,0.088585,0.216163,42.120889,-17.478093,8.763988,4635727169807450100.000000,-0.574453,0.415678,-0.584170,-0.394919,-11.869586,-0.024960,-0.161596,-0.480085,0.096369,0.964820,41.779597,17.423832,6.907457,4635729103079604200.000000,0.434868,0.582099,0.481464,-0.490146,0
-10.353901,3.201659,1.201668,0.250070,-0.179990,0.073450,41.464503,-1.968029,18.084870,4635731572685799400.000000,-0.717738,0.049287,-0.693119,-0.044817,-10.129319,-0.700766,-1.364304,-2.859564,0.087659,0.238294,42.133097,-17.727571,8.397684,4635727263870996500.000000,-0.568877,0.422113,-0.580026,-0.402205,-12.211795,-0.198003,-0.248050,-0.612709,0.107477,1.032171,41.966607,17.096474,7.030486,4635729103079604200.000000,0.438318,0.583274,0.480321,-0.486786,0
-10.302072,2.456212,0.902916,0.255840,-0.232508,0.099284,41.166252,-1.999377,17.960159,4635731572685799400.000000,-0.718471,0.048236,-0.692462,-0.044365,-9.064954,-0.825966,-1.442693,-2.745961,0.104025,0.314353,42.075791,-17.978580,7.878819,4635727384555814900.000000,-0.563255,0.428065,-0.576166,-0.409312,-12.156871,0.000230,-0.937485,-0.799007,0.092909,1.120611,42.273976,16.728069,6.983616,4635729103079604200.000000,0.442417,0.584239,0.479299,-0.482912,0
-9.766634,1.476847,0.978265,0.297850,-0.128464,0.110941,40.932828,-1.863696,17.769327,4635731572685799400.000000,-0.718909,0.047044,-0.692125,-0.043806,-7.886150,-0.139265,-1.142680,-2.647688,0.140684,0.420103,41.966734,-18.372414,7.347873,4635727384555814900.000000,-0.557466,0.433541,-0.572676,-0.416313,-11.733539,-0.450662,-1.349393,-1.047883,0.075455,1.193267,42.431951,16.165808,7.175008,4635729103079604200.000000,0.447285,0.584831,0.478551,-0.478432,0
-9.248730,1.018465,0.478100,0.379193,-0.120497,0.131720,41.095373,-1.696829,17.654532,4635731572685799400.000000,-0.719334,0.045551,-0.691829,-0.043074,-6.470819,0.709934,-0.736915,-2.565070,0.185006,0.550423,41.900356,-18.883492,7.000110,4635727384555814900.000000,-0.551424,0.438539,-0.569599,-0.423287,-11.597034,-1.167660,-1.136074,-1.315365,0.071566,1.259209,42.601858,15.480063,7.675691,4635729103079604200.000000,0.452921,0.585017,0.478145,-0.473280,0
-9.389022,2.296627,0.161135,0.201192,-0.469276,0.131098,41.239231,-1.774081,17.747706,4635731572685799400.000000,-0.720728,0.044529,-0.690453,-0.042919,-5.049570,1.838516,-0.724941,-2.468561,0.279720,0.705576,41.827112,-19.261124,6.859764,4635727337536926700.000000,-0.544995,0.443063,-0.567128,-0.430165,-12.075697,-1.454367,-1.064723,-1.574257,0.087371,1.332544,42.724920,15.006871,7.833977,4635729103079604200.000000,0.459272,0.584852,0.478068,-0.467405,0
-9.246727,3.941383,0.959656,-0.172617,-0.733478,0.134936,41.371016,-2.022071,17.703100,4635731504753879000.000000,-0.722807,0.044572,-0.688212,-0.043900,-3.637904,3.129390,-0.908693,-2.357047,0.412074,0.935757,41.721795,-19.590725,6.726201,4635727277181632500.000000,-0.537982,0.446976,-0.565520,-0.437007,-13.011786,-1.832538,-1.119414,-1.807437,0.124543,1.436842,42.822586,14.444582,7.846186,4635729103079604200.000000,0.466282,0.584470,0.478223,-0.460737,0
-8.037736,5.618722,1.303345,-0.565003,-0.458870,0.164406,41.502558,-2.170305,17.320823,4635731357937434600.000000,-0.724012,0.045762,-0.686725,-0.046044,-4.937370,0.687259,-0.797966,-2.226342,0.571946,1.130915,41.537900,-20.032551,6.493479,4635727277181632500.000000,-0.530418,0.450378,-0.564808,-0.443631,-14.573044,-1.691294,-0.566355,-2.091257,0.164101,1.498965,42.929261,13.587298,8.138342,4635729103079604200.000000,0.473975,0.583673,0.478799,-0.453238,0
-7.564425,6.779183,0.993393,-0.913651,-0.104968,0.196201,41.366922,-2.165929,17.026717,4635731357937434600.000000,-0.724123,0.047981,-0.686237,-0.049213,-9.747080,-18.255455,-3.954610,-2.491056,1.212738,0.405379,41.305986,-20.511566,6.298238,4635727277181632500.000000,-0.522123,0.457200,-0.563594,-0.448015,-17.438305,-1.319242,2.532386,-2.346673,0.124331,1.619397,43.219720,12.827985,8.664404,4635729103079604200.000000,0.482535,0.582460,0.479425,-0.445030,0
-8.493142,6.876929,0.977001,-1.046934,-0.098826,0.202903,41.331248,-2.518286,16.918102,4635731357937434600.000000,-0.724175,0.050583,-0.685730,-0.052782,-15.640845,-36.456938,-17.447289,-3.093870,1.560823,-0.653019,41.207632,-20.666353,6.287593,4635727277181632500.000000,-0.513746,0.468388,-0.559897,-0.450769,-20.571264,1.334731,6.089765,-2.572228,0.267209,1.734407,43.510525,12.240523,9.030464,4635729103079604200.000000,0.491495,0.581196,0.480403,-0.435726,0
-10.003548,5.157415,1.549290,-1.186884,-0.654045,0.248682,41.950741,-3.316836,16.697693,4635731357937434600.000000,-0.725754,0.053354,-0.683509,-0.057004,-26.896381,-15.275820,-14.356876,-0.974468,0.068390,-0.067280,41.254160,-20.618303,6.255500,4635727277181632500.000000,-0.511824,0.470815,-0.558067,-0.452692,-21.925923,0.112175,6.314500,-2.702462,0.364730,1.770066,43.544315,11.402316,9.332444,4635729103079604200.000000,0.500554,0.579808,0.481647,-0.425776,0
-11.454641,0.792922,4.292048,-1.072627,-1.070015,0.343696,42.804433,-4.078061,16.335947,4635731391881697300.000000,-0.728493,0.055409,-0.680053,-0.061278,-41.137008,24.893132,11.313010,2.141217,-1.469526,1.110327,41.191579,-20.762534,5.981592,4635727324167502800.000000,-0.517331,0.460923,-0.561100,-0.452864,-25.388512,-2.612257,7.235069,-2.829181,0.351539,1.873466,43.739280,10.399085,9.628617,4635729103079604200.000000,0.510032,0.578225,0.482746,-0.415307,0
-12.212877,-4.483968,5.350616,-0.722862,-0.639767,0.494261,43.106944,-4.393408,16.050133,4635731465311617000.000000,-0.730032,0.056084,-0.678007,-0.064918,-35.807525,45.664815,12.455086,1.293716,-0.916957,0.869999,41.070270,-20.985303,5.724496,4635727384555814900.000000,-0.520321,0.454418,-0.563207,-0.453396,-28.471301,-1.637669,7.289667,-2.890846,0.353659,1.868484,44.074239,9.445870,10.138322,4635729103079604200.000000,0.519541,0.576384,0.483870,-0.404634,0
-13.588782,-8.442197,3.632946,-0.482478,-0.027110,0.800372,43.192386,-4.547666,16.026422,4635731465311617000.000000,-0.729801,0.055328,-0.677949,-0.068665,-10.502184,33.947639,1.056169,-1.480031,0.327073,-0.575300,41.135924,-20.958567,5.676443,4635727384555814900.000000,-0.517844,0.459644,-0.560007,-0.454925,-29.900584,-1.365809,6.804635,-2.902391,0.266988,1.663932,44.139303,8.617577,10.651951,4635729103079604200.000000,0.528803,0.573840,0.485219,-0.394508,0
-15.885465,-8.477564,2.296639,-0.330368,0.271452,1.033099,43.200681,-4.850248,16.167145,4635731465311617000.000000,-0.728681,0.053537,-0.678884,-0.072621,-2.804495,1.962805,-5.240673,-3.493499,0.811057,-1.468170,41.342658,-20.899836,5.590994,4635727337581220900.000000,-0.511994,0.472144,-0.552241,-0.458228,-28.007039,-3.643577,6.352478,-2.494867,0.163115,1.395466,44.030465,7.950524,10.932596,4635729103079604200.000000,0.536770,0.571381,0.486231,-0.385980,0
-16.636301,-4.404886,0.151200,-0.238695,0.191391,0.836767,42.991820,-5.148422,16.316808,4635731465311617000.000000,-0.727855,0.051998,-0.679549,-0.075738,-9.562913,-16.354808,-5.522608,-2.778331,0.537032,-1.094876,41.501351,-20.798374,5.310232,4635727371127599100.000000,-0.507357,0.481638,-0.545874,-0.461123,-20.377375,-6.835137,5.696363,-1.174098,0.059595,1.149154,44.004509,7.318919,10.995690,4635729103079604200.000000,0.541355,0.571155,0.485428,-0.380889,0
-14.524460,0.367466,-3.349022,-0.264191,-0.440139,0.501093,42.797882,-5.563424,16.279511,4635731465311617000.000000,-0.728909,0.051287,-0.678211,-0.078045,-8.839751,-13.107086,2.569563,-0.820220,0.113492,-0.508643,41.622666,-20.349750,5.085147,4635727491929997300.000000,-0.506442,0.484803,-0.543504,-0.461612,-11.990957,-4.648929,6.606701,-0.347194,0.162356,1.004449,44.079896,6.693216,11.071078,4635729103079604200.000000,0.543517,0.572644,0.483873,-0.377539,0
-11.603802,4.092979,-4.870730,-0.400568,-1.154887,0.163936,42.948246,-5.878196,15.977504,4635731465311617000.000000,-0.732051,0.051711,-0.674574,-0.079865,-6.275394,-4.738516,5.504896,-0.464996,0.113283,-0.386062,41.626489,-19.950725,5.035562,4635727491929997300.000000,-0.506002,0.486935,-0.542059,-0.461551,-5.077385,6.053480,5.469526,-0.140281,0.033757,0.970481,44.060220,6.178965,11.249964,4635729103079604200.000000,0.545381,0.574319,0.481773,-0.374983,0
-9.208752,5.714242,-4.064203,-0.523350,-1.374946,-0.285340,43.265641,-5.867880,15.418539,4635731465311617000.000000,-0.735909,0.053697,-0.670105,-0.080706,-6.173110,-0.909544,1.777838,-0.929648,0.237040,-0.422590,41.615789,-19.930853,4.895195,4635727398006576100.000000,-0.504402,0.490361,-0.539899,-0.462204,1.258233,11.994037,3.965942,-0.124883,-0.274988,0.683682,44.053338,5.937526,11.304055,4635729103079604200.000000,0.547372,0.574963,0.479628,-0.373843,0
-8.279211,4.092861,-2.021404,-0.649651,-0.895203,-0.441322,43.509749,-5.673877,15.045309,4635731465311617000.000000,-0.738428,0.056665,-0.667010,-0.081311,-7.474185,-0.962656,-3.705667,-0.955725,0.296760,-0.365860,41.658530,-19.945406,4.785302,4635727277181632500.000000,-0.502496,0.493819,-0.537922,-0.462905,6.078922,10.562610,2.614817,0.047408,-0.389741,0.383421,44.164816,5.959350,11.304055,4635729103079604200.000000,0.548707,0.575217,0.477669,-0.374004,0
-7.904635,0.941457,-0.214669,-0.717518,-0.217152,-0.257607,43.541242,-5.669365,14.951504,4635731499213150200.000000,-0.738970,0.059561,-0.666009,-0.082509,-10.576052,-2.273193,-5.395230,-0.464356,0.166082,-0.229367,41.614297,-19.779849,4.785302,4635727277181632500.000000,-0.501623,0.495684,-0.536893,-0.463053,8.032583,7.801332,-0.466901,0.417687,-0.483186,0.219794,44.320319,5.927483,11.087478,4635729103079604200.000000,0.549082,0.575842,0.475307,-0.375497,0
-7.488328,-2.576078,0.572500,-0.617968,0.344357,-0.036500,43.482769,-5.813286,14.862202,4635731572685799400.000000,-0.737896,0.061729,-0.666820,-0.083970,-13.041788,-3.144225,-3.705554,0.269164,-0.011310,-0.087676,41.528845,-19.690542,4.828002,4635727277181632500.000000,-0.502387,0.495355,-0.537199,-0.462221,8.803725,2.604879,-4.216705,0.663199,-0.490602,0.195612,44.524136,5.736926,10.586947,4635729103079604200.000000,0.548838,0.576964,0.472598,-0.377545,0
-7.132976,-5.825643,0.043194,-0.423310,0.699303,0.084824,43.432683,-5.844791,14.887840,4635731572685799400.000000,-0.735835,0.063085,-0.668815,-0.085172,-13.302463,-2.023962,-1.672862,0.886657,-0.164252,-0.001293,41.555483,-19.727905,5.011064,4635727277181632500.000000,-0.504597,0.493241,-0.538549,-0.460500,6.527211,1.121490,-7.284664,0.476901,-0.692023,0.305260,44.635575,5.685466,10.220778,4635729182444251100.000000,0.549604,0.577551,0.469451,-0.379454,0
-7.480378,-8.049016,-0.702148,-0.194833,0.981585,0.113398,43.273988,-5.809426,15.242463,4635731504908504100.000000,-0.733026,0.063760,-0.671755,-0.085749,-12.287161,-0.177417,0.036854,0.966854,-0.277970,0.032394,41.689017,-19.775993,5.175939,4635727277181632500.000000,-0.507155,0.490657,-0.539874,-0.458897,2.605204,6.781463,-3.616703,-0.205929,-1.098272,0.015203,44.537372,5.742792,10.008996,4635729210453786600.000000,0.552339,0.575355,0.467143,-0.381662,0
-8.824181,-8.193474,-1.209719,-0.006279,1.120959,0.070684,43.169230,-5.882665,15.669092,4635731357937434600.000000,-0.729878,0.064027,-0.675163,-0.085628,-10.585310,1.305625,1.108479,0.466937,-0.236711,-0.039955,41.731773,-19.738636,5.133245,4635727277181632500.000000,-0.508731,0.489365,-0.540175,-0.458177,2.924489,9.270203,0.418271,-1.241107,-1.439774,-0.461213,44.477938,5.879193,9.609344,4635729210453786600.000000,0.557437,0.569280,0.466816,-0.383754,0
-10.606393,-6.233963,-1.600307,0.120168,0.936410,-0.035853,43.154483,-5.905846,15.988985,4635731357937434600.000000,-0.727308,0.064141,-0.678015,-0.084875,-8.860675,2.359026,1.128564,-0.126534,-0.111721,-0.141226,41.799610,-19.653189,5.078280,4635727277181632500.000000,-0.509007,0.489796,-0.539401,-0.458322,6.007251,3.846163,0.274552,-2.043245,-1.645997,-0.886147,44.516678,5.920590,9.061141,4635729210453786600.000000,0.564102,0.560129,0.468253,-0.385725,0
-11.813362,-3.183245,-1.694422,0.171069,0.613839,-0.232790,43.050421,-5.770319,16.336635,4635731357937434600.000000,-0.725724,0.064542,-0.679847,-0.083467,-8.724734,2.046713,0.408759,-0.465960,-0.032213,-0.238083,41.965160,-19.637097,5.035602,4635727277181632500.000000,-0.508595,0.491314,-0.537948,-0.458861,7.841754,-4.573364,0.843726,-2.437798,-1.712190,-1.143586,44.694989,6.046886,8.478390,4635729051756987400.000000,0.571314,0.549355,0.470695,-0.387628,0
-11.928908,-0.413054,-1.310698,0.163555,0.470807,-0.425025,42.883376,-5.549286,16.528824,4635731357937434600.000000,-0.724604,0.065459,-0.681188,-0.081536,-9.707367,1.303471,-0.665473,-0.492583,0.002810,-0.298604,42.059837,-19.678333,4.852623,4635727277181632500.000000,-0.508162,0.493089,-0.536392,-0.459257,7.075195,-6.072535,1.280164,-2.803833,-1.797864,-1.292116,44.851575,6.326044,7.964603,4635728995705421800.000000,0.579178,0.537169,0.473770,-0.389287,0
-10.718120,0.429619,-1.309384,0.111844,0.405493,-0.526407,42.747793,-5.432294,16.559623,4635731357937434600.000000,-0.723684,0.066798,-0.682280,-0.079463,-10.336452,0.798376,-1.368505,-0.257780,-0.033999,-0.311359,42.029384,-19.646339,4.644984,4635727277181632500.000000,-0.508316,0.494323,-0.535179,-0.459176,5.102126,-1.992051,0.705035,-3.864586,-2.046456,-1.435278,44.868581,6.526148,7.413210,4635728995705421800.000000,0.589501,0.521579,0.478145,-0.389642,0
-9.262097,-0.781195,-1.208085,0.057304,0.432639,-0.541242,42.666192,-5.378402,16.745816,4635731391796248600.000000,-0.722670,0.068350,-0.683426,-0.077492,-10.228691,0.185229,-1.702717,0.008874,-0.095629,-0.312906,41.975927,-19.493122,4.675292,4635727277181632500.000000,-0.509158,0.494876,-0.534342,-0.458622,2.656041,2.996958,1.390264,-5.359372,-2.368416,-1.620050,44.790050,6.675819,6.983795,4635728995705421800.000000,0.603114,0.501162,0.484315,-0.387980,0
-8.232701,-2.291008,-0.734701,0.043771,0.478774,-0.449667,42.666067,-5.157496,17.028001,4635731465311617000.000000,-0.721485,0.069697,-0.684728,-0.075821,-9.805780,-0.263231,-1.878396,0.110228,-0.136034,-0.300297,42.001042,-19.242102,4.822623,4635727277181632500.000000,-0.510273,0.495108,-0.533637,-0.457953,0.455725,5.259392,3.297262,-6.278080,-2.484608,-1.986702,44.863813,7.066008,6.596207,4635728995705421800.000000,0.617831,0.477132,0.492078,-0.385342,0
-7.635614,-3.779964,-0.368739,0.099508,0.579276,-0.285309,42.774742,-4.931791,17.078157,4635731465311617000.000000,-0.719973,0.070438,-0.686392,-0.074456,-9.449661,0.330139,-2.276035,0.106410,-0.174537,-0.269407,42.111610,-19.099254,4.870754,4635727277181632500.000000,-0.511406,0.495204,-0.532906,-0.457436,-0.599907,1.875651,3.586773,-5.951802,-2.337246,-2.375039,44.989086,7.605335,6.196496,4635728995705421800.000000,0.637398,0.443723,0.508292,-0.372119,0
-7.506093,-5.440518,-0.577329,0.191535,0.761647,-0.094230,42.701631,-4.954879,17.232076,4635731465311617000.000000,-0.717899,0.070411,-0.688682,-0.073346,-9.253055,0.718624,-2.419238,0.093693,-0.217077,-0.265461,42.275627,-19.129695,4.876085,4635727277181632500.000000,-0.512598,0.495236,-0.532067,-0.457043,-1.187374,-3.246780,1.542035,-4.484647,-1.853579,-2.554885,44.948708,8.275119,5.947103,4635728995705421800.000000,0.645652,0.423260,0.514943,-0.372583,0
-7.926636,-6.433140,-0.987971,0.295573,0.873846,0.092552,42.442792,-4.978110,17.720313,4635731465311617000.000000,-0.715469,0.069571,-0.691385,-0.072462,-9.640287,0.228155,-1.448291,0.074500,-0.249784,-0.312399,42.371899,-19.103197,4.797666,4635727277181632500.000000,-0.513911,0.495350,-0.531023,-0.456659,-2.873909,-4.292154,1.793135,-2.348848,-1.364636,-2.486716,44.724691,9.091492,5.814949,4635728995705421800.000000,0.648952,0.409283,0.519271,-0.376440,0
-8.482635,-6.153560,-1.210370,0.399427,0.669767,0.199714,42.225407,-4.865740,18.081671,4635731465311617000.000000,-0.713614,0.068049,-0.693534,-0.071657,-9.789982,0.282150,-0.514759,0.092764,-0.291696,-0.335067,42.371899,-18.937633,4.559716,4635727277181632500.000000,-0.515396,0.495393,-0.529876,-0.456272,-11.295477,19.454097,-0.113708,1.608217,0.075449,-0.923118,44.573471,9.837604,5.497561,4635728995705421800.000000,0.644643,0.411725,0.518427,-0.382296,0
-8.749376,-4.380953,-0.974688,0.451665,0.183503,0.215061,42.248489,-4.721751,18.109426,4635731465311617000.000000,-0.713170,0.066181,-0.694251,-0.070884,-9.345901,-0.154518,0.303420,0.039077,-0.324039,-0.329531,42.403875,-18.842901,4.352029,4635727277181632500.000000,-0.516828,0.495476,-0.528567,-0.456080,-28.061859,60.831994,-24.861248,5.551742,-0.214860,0.961967,44.644075,9.904970,4.836203,4635728995705421800.000000,0.637003,0.428245,0.507131,-0.391984,0
-8.874783,-1.800203,0.215367,0.422812,-0.075035,0.166793,42.302499,-4.717072,18.073310,4635731465311617000.000000,-0.713476,0.064462,-0.694175,-0.070122,-9.737150,-1.311305,1.357902,-0.093452,-0.325861,-0.328914,42.445141,-18.766740,4.254370,4635727277181632500.000000,-0.517988,0.495838,-0.527001,-0.456184,-38.266039,52.276063,-17.920781,2.625638,-0.814119,1.202963,44.796394,9.520708,4.286917,4635728995705421800.000000,0.636017,0.436379,0.498413,-0.395778,0
-9.097736,0.311833,1.251701,0.309054,0.177412,0.121373,42.283951,-4.857196,18.263210,4635731465311617000.000000,-0.713033,0.063286,-0.694803,-0.069487,-10.934604,-1.426368,1.246760,-0.159644,-0.305059,-0.330601,42.407843,-18.533465,4.194019,4635727277181632500.000000,-0.518965,0.496383,-0.525348,-0.456386,-26.313780,7.793860,-6.488859,-0.072484,-0.444375,-0.087270,44.720512,9.336550,4.099574,4635728995705421800.000000,0.636991,0.435259,0.497429,-0.396682,0
-10.351708,1.307616,0.982857,0.103885,0.547016,0.137638,42.175429,-4.880465,18.530838,4635731465311617000.000000,-0.711458,0.062778,-0.696470,-0.069396,-11.013715,-0.543103,0.041264,-0.154355,-0.288458,-0.295021,42.391652,-18.273146,4.144522,4635727277181632500.000000,-0.519847,0.496869,-0.523814,-0.456617,-8.535965,-22.535845,1.719022,0.830897,0.389887,-0.870565,44.561822,9.485650,4.077273,4635728995705421800.000000,0.633291,0.436286,0.498580,-0.400019,0
-12.770137,1.955088,0.625075,-0.079123,0.425715,0.179591,42.039799,-4.848836,18.503926,4635731465311617000.000000,-0.710172,0.062656,-0.697733,-0.069992,-10.342990,-1.024167,-0.394412,-0.093587,-0.301529,-0.234777,42.507516,-18.246079,4.052188,4635727277181632500.000000,-0.520767,0.497066,-0.522490,-0.456871,-1.444672,-34.164806,1.632503,2.663100,0.385415,0.234015,44.511380,9.663464,3.932934,4635728995705421800.000000,0.628063,0.444402,0.494618,-0.404223,0
-14.442488,2.421136,0.614440,-0.241203,-0.013746,0.192069,42.035061,-4.961179,18.476131,4635731465311617000.000000,-0.710115,0.062848,-0.697650,-0.071211,-10.077552,-2.435910,-0.324500,0.000695,-0.309705,-0.170071,42.641122,-18.410092,3.961416,4635727277181632500.000000,-0.521776,0.496900,-0.521460,-0.457078,4.114598,-12.651877,-0.871706,3.466077,0.174132,0.543943,44.571340,9.650759,3.881954,4635728995705421800.000000,0.622199,0.454827,0.488094,-0.409592,0
-14.186043,1.989963,0.540762,-0.376729,-0.227297,0.152522,42.179072,-5.128252,18.516137,4635731431500281900.000000,-0.710653,0.063493,-0.696883,-0.072763,-9.614161,-2.645948,-0.037097,0.136578,-0.303160,-0.095070,42.652007,-18.431861,3.821154,4635727277181632500.000000,-0.522907,0.496287,-0.520858,-0.457138,-3.989962,7.712247,-4.264629,2.163037,0.317901,0.098114,44.765045,9.577514,3.737616,4635728995705421800.000000,0.617658,0.461147,0.484938,-0.413131,0
-12.961043,0.929740,0.869459,-0.468147,-0.246725,0.089049,42.210710,-5.263881,18.399940,4635731357937434600.000000,-0.711239,0.064587,-0.696012,-0.074397,-9.186196,-1.794434,0.417415,0.216597,-0.289899,-0.046576,42.635787,-18.223693,3.625849,4635727370858615800.000000,-0.524081,0.495418,-0.520536,-0.457102,-19.476090,11.813102,-11.175363,0.446585,-0.024301,0.088012,44.879706,9.621537,3.542315,4635728995705421800.000000,0.617062,0.462421,0.483855,-0.413866,0
-11.524760,-0.575260,1.224583,-0.490300,-0.342177,0.044032,42.125266,-5.299372,18.239900,4635731357937434600.000000,-0.712106,0.065847,-0.694835,-0.075988,-9.056586,-0.865267,0.666986,0.205831,-0.262206,-0.017851,42.677082,-18.116440,3.515732,4635727491929997300.000000,-0.525117,0.494562,-0.520312,-0.457094,-19.880251,5.830512,-11.862546,-0.604742,-0.171924,0.005959,44.772568,9.815202,3.491317,4635728995705421800.000000,0.618644,0.460570,0.484362,-0.412975,0
-10.014649,-1.963325,1.390493,-0.450841,-0.442410,0.047353,42.093610,-5.276081,18.137718,4635731357937434600.000000,-0.713267,0.066948,-0.693370,-0.077501,-9.040100,-0.622966,0.252074,0.102884,-0.237015,-0.004079,42.682406,-18.239158,3.473137,4635727491929997300.000000,-0.525859,0.493949,-0.519975,-0.457288,-12.881571,-1.612977,-7.964818,-0.955615,0.008473,-0.180786,44.791060,9.929905,3.626607,4635728995705421800.000000,0.620207,0.457741,0.486290,-0.411508,0
-8.902434,-2.601718,2.033099,-0.376391,-0.434885,0.099585,42.202105,-5.384576,17.986965,4635731357937434600.000000,-0.714406,0.067680,-0.691961,-0.078952,-9.334995,-0.877099,-0.424234,-0.007871,-0.246750,0.009180,42.689289,-18.372785,3.375484,4635727491929997300.000000,-0.526369,0.493530,-0.519433,-0.457770,-9.527196,-2.764000,-2.929998,-1.047692,0.212310,-0.181005,44.930618,9.958052,3.746577,4635728995705421800.000000,0.621521,0.455015,0.488894,-0.409458,0
-8.368956,-2.844325,2.843053,-0.321288,-0.342116,0.170060,42.387652,-5.520209,17.786186,4635731357937434600.000000,-0.715265,0.068074,-0.690864,-0.080427,-9.598782,-0.953095,-0.863974,-0.027603,-0.279092,0.033611,42.652023,-18.309175,3.277825,4635727491929997300.000000,-0.526860,0.493040,-0.518831,-0.458415,-9.812142,0.500187,1.103333,-1.130940,0.290889,-0.127133,44.863868,9.898121,4.051619,4635728995705421800.000000,0.622910,0.452307,0.491732,-0.406942,0
-8.018093,-2.759853,3.051745,-0.272394,-0.244467,0.198124,42.581886,-5.578784,17.816903,4635731357937434600.000000,-0.715845,0.068274,-0.690080,-0.081818,-9.677986,-0.763389,-1.076452,-0.005639,-0.293797,0.048067,42.635775,-18.058156,3.222754,4635727491929997300.000000,-0.527399,0.492441,-0.518269,-0.459075,-10.191516,1.472380,3.511557,-1.119164,0.284649,-0.030661,44.663282,9.866772,4.366919,4635728995705421800.000000,0.624438,0.449805,0.494340,-0.404203,0
