Accelerometer-X,Accelerometer-Y,Accelerometer-Z,Gyroscope-X,Gyroscope-Y,Gyroscope-Z,Magnetometer-X,Magnetometer-Y,Magnetometer-Z,Barometer-pressure,Orientation-S,Orientation-X,Orientation-Y,Orientation-Z,Accelerometer-X,Accelerometer-Y,Accelerometer-Z,Gyroscope-X,Gyroscope-Y,Gyroscope-Z,Magnetometer-X,Magnetometer-Y,Magnetometer-Z,Barometer-pressure,Orientation-S,Orientation-X,Orientation-Y,Orientation-Z,Accelerometer-X,Accelerometer-Y,Accelerometer-Z,Gyroscope-X,Gyroscope-Y,Gyroscope-Z,Magnetometer-X,Magnetometer-Y,Magnetometer-Z,Barometer-pressure,Orientation-S,Orientation-X,Orientation-Y,Orientation-Z,jump
-9.845076,-0.289706,0.552605,-0.049267,-0.068250,0.006772,43.093646,8.835133,14.781407,4635731465311617000.000000,0.724009,0.103648,0.662992,-0.159717,-9.532243,0.844085,-2.125827,0.007017,0.003664,0.013277,36.083205,-11.644089,27.464988,4635727384555814900.000000,0.608800,-0.081175,0.776791,0.139174,-9.691064,-1.480685,-0.386688,-0.013540,-0.002341,-0.025981,39.323635,23.291725,-2.538967,4635729317827969000.000000,-0.385879,-0.553085,-0.470620,0.568956,0
-9.757874,-0.373384,0.415323,-0.040327,-0.051790,0.006122,43.179086,8.789330,14.736108,4635731465311617000.000000,0.724163,0.103479,0.662885,-0.159570,-9.513045,0.906861,-2.124088,0.008241,0.004273,0.013886,35.889697,-11.487096,27.574821,4635727384555814900.000000,0.608790,-0.081095,0.776810,0.139159,-9.627327,-1.562548,-0.378062,-0.011059,0.001791,-0.027599,39.393659,23.305538,-2.144789,4635729317827969000.000000,-0.385816,-0.553018,-0.470712,0.568988,0
-9.812982,-0.420713,0.312616,-0.026154,-0.068392,0.007972,43.014379,8.914411,14.638446,4635731465311617000.000000,0.724352,0.103372,0.662714,-0.159492,-9.509567,0.905088,-2.103154,0.004882,0.003357,0.010222,36.011893,-11.536022,27.588732,4635727384555814900.000000,0.608783,-0.081034,0.776824,0.139146,-9.684048,-1.534925,-0.423682,-0.008858,0.000345,-0.027222,39.332253,23.377178,-1.775254,4635729317827969000.000000,-0.385751,-0.552951,-0.470796,0.569027,0
-9.767689,-0.436194,0.462737,-0.026340,-0.065675,0.009327,42.829494,8.897691,14.612262,4635731465311617000.000000,0.724535,0.103270,0.662551,-0.159408,-9.499102,0.913814,-2.099673,0.000610,0.005036,0.008698,36.172309,-11.474943,27.337552,4635727384555814900.000000,0.608771,-0.080990,0.776839,0.139142,-9.754090,-1.391644,-0.339835,-0.017748,0.002136,-0.030426,39.330281,23.377178,-1.976099,4635729317827969000.000000,-0.385696,-0.552869,-0.470910,0.569050,0
-9.661115,-0.412669,0.614244,-0.019956,-0.027562,0.014303,42.965601,8.812254,14.612262,4635731465311617000.000000,0.724613,0.103226,0.662496,-0.159310,-9.539222,0.915555,-2.131070,0.003663,0.004425,0.011292,36.194950,-11.536011,27.138770,4635727384555814900.000000,0.608760,-0.080930,0.776855,0.139136,-9.684786,-1.405455,-0.339465,-0.027222,0.001791,-0.033285,39.320045,23.363367,-2.219774,4635729317827969000.000000,-0.385657,-0.552764,-0.471054,0.569060,0
-9.676306,-0.384979,0.513000,-0.013964,-0.032931,0.016804,43.093625,8.789330,14.540799,4635731465311617000.000000,0.724704,0.103204,0.662420,-0.159224,-9.556653,0.863234,-2.115367,0.007019,0.005188,0.013581,36.132166,-11.621454,27.280071,4635727384555814900.000000,0.608746,-0.080854,0.776876,0.139124,-9.643848,-1.510617,-0.394581,-0.029218,-0.000345,-0.033836,39.310187,23.266092,-2.177991,4635729317827969000.000000,-0.385625,-0.552650,-0.471199,0.569072,0
-9.683747,-0.351636,0.553192,-0.002659,-0.041866,0.016309,43.107616,8.851848,14.443154,4635731465311617000.000000,0.724815,0.103209,0.662310,-0.159174,-9.558396,0.885911,-2.153737,0.009308,0.005341,0.012970,36.048458,-11.633656,27.548636,4635727384555814900.000000,0.608733,-0.080774,0.776898,0.139103,-9.647792,-1.706309,-0.417023,-0.021668,-0.001274,-0.031182,39.257039,23.146831,-2.029994,4635729317827969000.000000,-0.385583,-0.552552,-0.471320,0.569096,0
-9.662610,-0.323947,0.675259,0.008101,-0.023972,0.014459,43.229366,8.749758,14.488386,4635731465311617000.000000,0.724830,0.103424,0.662220,-0.159340,-9.485157,0.922529,-2.118859,0.014191,0.003510,0.010071,36.099030,-11.487175,27.756137,4635727384555814900.000000,0.608729,-0.080691,0.776917,0.139059,-9.664322,-1.803138,-0.417406,0.003587,0.003722,-0.025152,39.246803,23.267746,-2.113851,4635729317827969000.000000,-0.385488,-0.552517,-0.471374,0.569148,0
-9.682844,-0.272746,0.725888,0.014588,-0.006152,0.014667,43.275246,8.650303,14.594966,4635731465311617000.000000,0.724841,0.103472,0.662212,-0.159296,-9.452022,0.833610,-2.122342,0.018616,0.001374,0.007783,36.329189,-11.609211,27.543437,4635727384555814900.000000,0.608735,-0.080602,0.776933,0.138996,-9.651734,-1.703502,-0.344537,0.030877,0.007271,-0.015710,39.233004,23.523666,-2.137888,4635729317827969000.000000,-0.385346,-0.552554,-0.471348,0.569231,0
-9.728393,-0.256355,0.678871,0.017585,-0.002136,0.010266,43.159169,8.746709,14.615540,4635731465311617000.000000,0.724835,0.103524,0.662214,-0.159278,-9.448530,0.922520,-2.082238,0.018311,0.001068,0.005646,36.303080,-11.769667,27.335880,4635727384555814900.000000,0.608743,-0.080521,0.776948,0.138929,-9.686772,-1.621222,-0.257536,0.047343,0.012094,-0.008028,39.163319,23.486257,-2.178038,4635729317827969000.000000,-0.385174,-0.552643,-0.471272,0.569323,0
-9.777219,-0.202789,0.641344,0.013471,-0.020885,0.002296,43.054054,8.851825,14.540840,4635731465311617000.000000,0.724872,0.103552,0.662163,-0.159306,-9.406679,1.107372,-2.054333,0.011750,0.000153,-0.002899,36.146134,-11.656337,27.464900,4635727384555814900.000000,0.608756,-0.080484,0.776953,0.138862,-9.650150,-1.676352,-0.400481,0.048963,0.014058,-0.004652,39.199153,23.317321,-2.000439,4635729317827969000.000000,-0.385003,-0.552746,-0.471189,0.569408,0
-9.736767,-0.138469,0.679427,0.007843,-0.035584,0.001562,43.147167,8.812283,14.586030,4635731465311617000.000000,0.724947,0.103571,0.662068,-0.159348,-9.399700,1.114366,-2.071766,0.001528,0.001831,-0.015257,36.184474,-11.560426,27.658454,4635727384555814900.000000,0.608768,-0.080514,0.776952,0.138796,-9.623371,-1.683049,-0.453643,0.049617,0.015126,-0.000035,39.330284,23.476015,-1.960268,4635729317827969000.000000,-0.384839,-0.552862,-0.471094,0.569484,0
-9.663526,-0.157785,0.686894,0.000159,-0.044703,-0.000988,43.198720,8.673269,14.621189,4635731465311617000.000000,0.725060,0.103507,0.661959,-0.159329,-9.462468,1.037645,-2.096181,-0.005492,0.003052,-0.026244,36.341409,-11.621432,27.686390,4635727384555814900.000000,0.608780,-0.080597,0.776947,0.138724,-9.647784,-1.597604,-0.471752,0.058369,0.015161,0.005513,39.294466,23.609118,-2.139830,4635729317827969000.000000,-0.384668,-0.553003,-0.470966,0.569569,0
-9.625996,-0.215535,0.728246,-0.003698,-0.036064,0.000988,43.255559,8.684192,14.544132,4635731465311617000.000000,0.725151,0.103445,0.661877,-0.159293,-9.514790,1.004500,-2.110135,-0.007324,0.001374,-0.031433,36.156632,-11.769651,27.529472,4635727384555814900.000000,0.608800,-0.080702,0.776935,0.138645,-9.660388,-1.523957,-0.506804,0.063159,0.010509,0.006237,39.135755,23.581553,-2.204027,4635729317827969000.000000,-0.384497,-0.553142,-0.470818,0.569672,0
-9.672989,-0.267644,0.744652,-0.008178,-0.015643,0.005260,43.275246,8.828842,14.514603,4635731465311617000.000000,0.725189,0.103402,0.661857,-0.159230,-9.542694,0.948707,-2.174640,-0.002901,0.000153,-0.032960,36.121708,-11.729592,27.419600,4635727384555814900.000000,0.608826,-0.080799,0.776921,0.138549,-9.595813,-1.551118,-0.446562,0.074080,0.011336,0.006374,39.030213,23.414594,-2.096133,4635729317827969000.000000,-0.384299,-0.553300,-0.470644,0.569795,0
-9.764094,-0.245062,0.691090,-0.021330,-0.020549,0.011877,43.159193,8.749804,14.523529,4635731465311617000.000000,0.725251,0.103332,0.661829,-0.159111,-9.577568,0.919051,-2.237424,-0.000306,-0.002746,-0.034943,36.257683,-11.499453,27.478838,4635727384555814900.000000,0.608863,-0.080894,0.776901,0.138440,-9.480810,-1.771219,-0.285113,0.106528,0.022875,0.013126,39.197152,23.279928,-2.061410,4635729317827969000.000000,-0.384020,-0.553551,-0.470397,0.569944,0
-9.799264,-0.106972,0.680334,-0.044381,-0.030035,0.020915,42.991579,8.587836,14.464326,4635731465311617000.000000,0.725350,0.103231,0.661780,-0.158927,-9.572353,0.769137,-2.246162,0.008236,-0.005035,-0.029758,36.269945,-11.389543,27.574740,4635727568537495600.000000,0.608908,-0.080950,0.776882,0.138318,-9.521774,-1.884683,-0.218575,0.159696,0.039587,0.020811,39.308243,23.204711,-2.322937,4635729317827969000.000000,-0.383604,-0.553942,-0.470032,0.570146,0
-9.775770,0.153159,0.799638,-0.074699,-0.027359,0.029747,43.061667,8.661205,14.361035,4635731465311617000.000000,0.725461,0.103064,0.661755,-0.158632,-9.622896,0.755110,-2.246162,0.014189,-0.007171,-0.025180,36.205445,-11.377300,27.588732,4635727599304179700.000000,0.608959,-0.080975,0.776863,0.138189,-9.521774,-1.762626,-0.032384,0.214625,0.060567,0.025563,39.221252,23.158581,-2.389134,4635729317827969000.000000,-0.383031,-0.554479,-0.469559,0.570399,0
-9.676667,0.410451,0.770907,-0.114555,-0.003768,0.041416,43.229299,8.828836,14.465374,4635731465311617000.000000,0.725516,0.102890,0.661813,-0.158252,-9.631641,0.903275,-2.277537,0.027765,-0.006562,-0.028228,36.330907,-11.377300,27.588732,4635727599304179700.000000,0.609014,-0.080975,0.776852,0.138008,-9.566929,-1.605235,0.250038,0.225207,0.083241,0.035973,39.099884,23.329027,-2.291493,4635729317827969000.000000,-0.382413,-0.555107,-0.469072,0.570604,0
-9.599229,0.458241,0.575100,-0.151028,-0.002755,0.059698,43.275246,8.812316,14.585993,4635731465311617000.000000,0.725615,0.102578,0.661902,-0.157630,-9.631641,0.917304,-2.293243,0.033569,-0.010069,-0.032500,36.426854,-11.377300,27.588732,4635727415326191600.000000,0.609085,-0.080973,0.776834,0.137798,-9.808437,-1.330185,0.245414,0.224311,0.094856,0.032978,39.173135,23.498131,-2.225254,4635729317827969000.000000,-0.381767,-0.555754,-0.468612,0.570783,0
-9.547115,0.442750,0.530559,-0.185990,-0.009245,0.076870,43.159231,8.673318,14.549793,4635731465311617000.000000,0.725757,0.102201,0.661987,-0.156860,-9.610727,0.999211,-2.221793,0.038756,-0.022576,-0.037688,36.365898,-11.450499,27.421420,4635727384555814900.000000,0.609201,-0.080967,0.776785,0.137563,-9.823464,-1.401458,0.031595,0.220876,0.098994,0.026875,39.236556,23.341416,-2.291497,4635729300563582000.000000,-0.381107,-0.556393,-0.468180,0.570956,0
-9.641062,0.519777,0.581743,-0.216553,-0.002874,0.081960,43.054085,8.630634,14.669584,4635731465311617000.000000,0.725894,0.101766,0.662106,-0.156005,-9.534029,1.190980,-2.115429,0.019392,-0.026397,-0.057668,36.426844,-11.389554,27.236562,4635727384555814900.000000,0.609335,-0.081072,0.776708,0.137340,-9.757200,-1.431104,-0.171113,0.198486,0.093940,0.027943,39.233072,23.230250,-2.193847,4635729210453786600.000000,-0.380510,-0.556987,-0.467791,0.571095,0
-9.894623,0.692101,0.616009,-0.262568,-0.006246,0.070536,43.040020,8.630634,14.998741,4635731465311617000.000000,0.726047,0.101177,0.662245,-0.155080,-9.521774,1.304395,-2.183328,-0.016917,-0.033108,-0.082844,36.365900,-11.450497,27.293956,4635727384555814900.000000,0.609492,-0.081347,0.776586,0.137174,-9.847013,-1.324284,-0.482183,0.167281,0.072272,0.027982,39.175081,23.291725,-2.111881,4635729210453786600.000000,-0.380027,-0.557479,-0.467441,0.571223,0
-10.107278,0.816027,0.569046,-0.321929,-0.049140,0.058418,42.980850,8.568181,14.895354,4635731622262935600.000000,0.726339,0.100328,0.662301,-0.154024,-9.490408,1.255666,-2.280977,-0.028835,-0.048818,-0.103902,36.290914,-11.535940,27.464794,4635727384555814900.000000,0.609708,-0.081712,0.776409,0.136998,-9.854654,-1.400132,-0.780834,0.121065,0.045664,0.022813,39.233074,23.277996,-2.127571,4635729210453786600.000000,-0.379692,-0.557824,-0.467171,0.571330,0
-10.120869,0.886924,0.522565,-0.384666,-0.117178,0.052421,42.948929,8.420266,14.471806,4635731680059981800.000000,0.726840,0.099229,0.662191,-0.152841,-9.526974,1.339253,-2.368179,-0.034482,-0.063164,-0.127856,36.280403,-11.475016,27.407430,4635727384555814900.000000,0.609982,-0.082161,0.776184,0.136784,-9.658907,-1.624030,-0.805064,0.091120,0.032770,0.019055,39.175073,23.219996,-2.209540,4635729210453786600.000000,-0.379442,-0.558083,-0.466961,0.571415,0
-10.027433,1.037177,0.717915,-0.449244,-0.151556,0.059858,43.124083,8.374279,14.343699,4635731680059981800.000000,0.727464,0.097933,0.662013,-0.151472,-9.575803,1.417754,-2.349078,-0.044397,-0.067902,-0.155168,36.416322,-11.389565,27.152940,4635727568482262000.000000,0.610283,-0.082720,0.775932,0.136535,-9.569725,-1.525282,-0.600564,0.069125,0.028745,0.018502,39.272300,23.305455,-2.195811,4635729227705289700.000000,-0.379249,-0.558297,-0.466797,0.571467,0
-9.864041,0.943714,0.757795,-0.509715,-0.174972,0.073169,43.377145,8.436729,14.548894,4635731601587790800.000000,0.728158,0.096584,0.661778,-0.150023,-9.551449,1.344634,-2.281097,-0.050504,-0.078424,-0.177449,36.585454,-11.440024,27.196276,4635727599304179700.000000,0.610628,-0.083361,0.775642,0.136252,-9.698558,-1.334527,-0.557173,0.061953,0.016233,0.018923,39.417257,23.351700,-2.139767,4635729317827969000.000000,-0.379099,-0.558471,-0.466630,0.571534,0
-9.779070,0.793015,0.753572,-0.544262,-0.190171,0.090956,43.321263,8.406208,14.695832,4635731572685799400.000000,0.728942,0.095051,0.661525,-0.148301,-9.567097,1.351515,-2.166038,-0.063162,-0.089258,-0.196067,36.599547,-11.314644,27.367110,4635727599304179700.000000,0.611014,-0.084087,0.775309,0.135966,-9.694045,-1.378525,-0.598163,0.060753,0.011921,0.010721,39.453279,23.218481,-2.235458,4635729317827969000.000000,-0.378940,-0.558616,-0.466478,0.571621,0
-9.694562,0.542778,0.872820,-0.561311,-0.176944,0.109402,43.159283,8.145644,14.739968,4635731572685799400.000000,0.729702,0.093535,0.661310,-0.146480,-9.622874,1.564099,-2.169411,-0.090769,-0.099025,-0.220629,36.451441,-11.145494,27.393414,4635727599304179700.000000,0.611435,-0.084958,0.774927,0.135710,-9.525236,-1.478007,-0.584452,0.054133,0.012304,0.003798,39.320045,23.218481,-2.307199,4635729317827969000.000000,-0.378780,-0.558738,-0.466358,0.571706,0
-9.650425,0.249826,0.951231,-0.565831,-0.137346,0.130680,43.241414,7.869587,14.684110,4635731572685799400.000000,0.730359,0.092103,0.661203,-0.144584,-9.600284,1.724601,-2.037034,-0.146283,-0.113210,-0.249005,36.364174,-11.058229,27.226172,4635727599304179700.000000,0.611897,-0.086054,0.774466,0.135566,-9.620935,-1.353063,-0.508794,0.055252,0.009956,-0.005815,39.333754,23.218481,-2.307199,4635729317827969000.000000,-0.378598,-0.558838,-0.466255,0.571813,0
-9.679527,0.170904,0.848429,-0.570801,-0.117949,0.138284,43.403408,7.738093,14.589734,4635731572685799400.000000,0.730972,0.090650,0.661156,-0.142599,-9.490508,1.735208,-2.003770,-0.224382,-0.114445,-0.286987,36.562668,-11.256723,27.208546,4635727599304179700.000000,0.612356,-0.087471,0.773943,0.135578,-9.686807,-1.319328,-0.490253,0.069299,0.011921,-0.016797,39.428984,23.243924,-2.309156,4635729317827969000.000000,-0.378353,-0.558943,-0.466146,0.571960,0
-9.799706,0.260094,0.627309,-0.574868,-0.130188,0.146663,43.446148,7.715079,14.492080,4635731572685799400.000000,0.731621,0.089206,0.661066,-0.140589,-9.472945,1.639393,-2.064720,-0.301902,-0.099661,-0.328336,36.744109,-11.354553,27.210302,4635727599304179700.000000,0.612760,-0.089227,0.773397,0.135728,-9.656056,-1.165007,-0.508333,0.058054,0.011619,-0.034785,39.551987,23.388923,-2.335066,4635729317827969000.000000,-0.378093,-0.558995,-0.466106,0.572115,0
-9.928353,0.239466,0.641808,-0.567148,-0.106000,0.152662,43.330207,7.661567,14.546040,4635731572685799400.000000,0.732198,0.087819,0.661038,-0.138574,-9.619258,1.508624,-2.190219,-0.341315,-0.098116,-0.356277,36.758249,-11.082918,27.043088,4635727599304179700.000000,0.613157,-0.091174,0.772818,0.135932,-9.642348,-0.985340,-0.557167,0.028275,0.004141,-0.053076,39.524569,23.438672,-2.446442,4635729317827969000.000000,-0.377873,-0.558946,-0.466168,0.572258,0
-9.961241,0.201898,0.600067,-0.556179,-0.075558,0.155374,43.403380,7.516989,14.646980,4635731572685799400.000000,0.732684,0.086488,0.661092,-0.136568,-9.988853,1.050206,-2.314087,-0.349739,-0.107417,-0.371858,36.610125,-10.826399,26.753617,4635727599304179700.000000,0.613588,-0.093187,0.772202,0.136127,-9.568647,-0.913133,-0.568809,0.005463,-0.002821,-0.076442,39.369343,23.377178,-2.584521,4635729317827969000.000000,-0.377663,-0.558800,-0.466327,0.572409,0
-10.139584,0.061561,0.395405,-0.535355,-0.101912,0.153609,43.570987,7.408511,14.673299,4635731572685799400.000000,0.733231,0.085200,0.661051,-0.134632,-10.057148,1.007958,-2.300248,-0.351267,-0.120844,-0.381170,36.460123,-11.000451,26.793441,4635727599304179700.000000,0.614063,-0.095227,0.771543,0.136307,-9.599466,-0.968296,-0.418963,-0.011879,-0.007093,-0.094215,39.294148,23.414336,-2.486872,4635729317827969000.000000,-0.377460,-0.558581,-0.466562,0.572565,0
-10.142969,0.003290,0.365268,-0.493622,-0.127556,0.157427,43.554632,7.269556,14.610879,4635731572685799400.000000,0.733831,0.084035,0.660902,-0.132808,-9.640737,1.086393,-2.075456,-0.369715,-0.122837,-0.389715,36.575000,-11.035493,27.058355,4635727599304179700.000000,0.614539,-0.097339,0.770862,0.136525,-9.838218,-1.049419,-0.466843,-0.013881,-0.012564,-0.114893,39.236074,23.609118,-2.391170,4635729317827969000.000000,-0.377223,-0.558306,-0.466842,0.572762,0
-10.137769,-0.142657,0.565667,-0.479886,-0.091102,0.174757,43.478103,7.101958,14.668092,4635731572685799400.000000,0.734333,0.082978,0.660848,-0.130953,-9.581057,1.537676,-1.296501,-0.434062,-0.117349,-0.428441,36.796394,-10.889156,27.100435,4635727599304179700.000000,0.614990,-0.099743,0.770137,0.136847,-9.918248,-1.406314,-0.596690,0.012136,-0.021918,-0.130443,39.296113,23.570033,-2.348720,4635729317827969000.000000,-0.376906,-0.558019,-0.467081,0.573055,0
-10.099779,-0.079429,0.269286,-0.479598,-0.124980,0.168037,43.458355,6.877587,14.706628,4635731572685799400.000000,0.734922,0.081879,0.660691,-0.129124,-10.042717,2.133997,-0.335719,-0.614462,-0.121001,-0.481380,36.976070,-10.791422,26.860031,4635727599304179700.000000,0.615402,-0.102776,0.769272,0.137613,-9.684861,-1.576201,-0.478017,0.031489,-0.018714,-0.137578,39.207233,23.378649,-2.516197,4635729317827969000.000000,-0.376520,-0.557757,-0.467295,0.573390,0
-9.949618,0.132727,0.036237,-0.467900,-0.221122,0.147829,43.574225,6.686947,14.496006,4635731572685799400.000000,0.735758,0.080707,0.660236,-0.127420,-10.276723,2.044057,0.327301,-0.807650,-0.113538,-0.520308,37.000641,-10.852304,26.652426,4635727599304179700.000000,0.615722,-0.106432,0.768289,0.138893,-9.659482,-1.424866,-0.231941,0.038798,-0.014996,-0.142577,39.063690,23.462148,-2.587970,4635729300638822400.000000,-0.376099,-0.557504,-0.467508,0.573738,0
-9.784324,0.213146,0.427863,-0.468256,-0.249167,0.133484,43.492258,6.703224,14.283236,4635731572685799400.000000,0.736654,0.079503,0.659693,-0.125794,-10.188086,1.763394,0.519563,-0.973377,-0.086550,-0.553877,37.000641,-10.864589,26.624346,4635727599304179700.000000,0.615889,-0.110635,0.767249,0.140603,-9.729784,-1.614802,-0.284699,0.064901,-0.010297,-0.145439,39.063690,23.535390,-2.574292,4635729210453786600.000000,-0.375600,-0.557298,-0.467674,0.574130,0
-9.652387,0.094964,0.666164,-0.468425,-0.238741,0.131874,43.446148,6.726279,14.296217,4635731572685799400.000000,0.737518,0.078300,0.659180,-0.124169,-10.147865,0.968777,-0.048126,-1.034075,-0.074017,-0.564128,37.073795,-11.010902,26.540739,4635727599304179700.000000,0.615980,-0.115030,0.766184,0.142472,-9.674122,-1.698782,-0.551776,0.072036,-0.014399,-0.145994,39.051972,23.585192,-2.486894,4635729210453786600.000000,-0.375092,-0.557092,-0.467816,0.574546,0
-9.681812,-0.093751,0.669088,-0.462391,-0.238111,0.131671,43.633285,6.548054,14.399486,4635731572685799400.000000,0.738362,0.077176,0.658655,-0.122629,-10.290665,0.831860,-0.292802,-0.978193,-0.087265,-0.556820,37.305559,-11.171355,26.286315,4635727599304179700.000000,0.616122,-0.119249,0.765105,0.144184,-9.714654,-1.699268,-0.465336,0.057680,-0.016065,-0.144200,39.002170,23.535389,-2.420489,4635729210453786600.000000,-0.374624,-0.556862,-0.467987,0.574935,0
-9.589039,-0.101932,0.650289,-0.456473,-0.246283,0.129823,43.818349,6.419752,14.429151,4635731572685799400.000000,0.739238,0.075980,0.658109,-0.121022,-10.273452,1.394454,-0.097923,-1.016208,-0.108014,-0.552694,37.561915,-11.256894,26.005546,4635727599304179700.000000,0.616294,-0.123537,0.763934,0.146035,-9.801042,-1.671412,-0.306134,0.059729,-0.012047,-0.143346,39.089054,23.610568,-2.518126,4635729210453786600.000000,-0.374145,-0.556647,-0.468156,0.575317,0
-9.599657,-0.156742,0.718283,-0.440996,-0.216130,0.135484,43.745353,6.459058,14.357860,4635731572685799400.000000,0.740024,0.074869,0.657642,-0.119438,-9.942447,1.708773,0.409255,-1.158779,-0.111087,-0.558634,37.598801,-11.340590,25.965147,4635727599304179700.000000,0.616390,-0.128205,0.762645,0.148322,-9.985656,-1.815937,-0.439467,0.075275,-0.019056,-0.136812,39.197038,23.694061,-2.600177,4635729210453786600.000000,-0.373660,-0.556452,-0.468262,0.575735,0
-9.753103,-0.111821,0.762474,-0.422549,-0.189981,0.139351,43.524278,6.357373,14.269112,4635731572685799400.000000,0.740730,0.073851,0.657241,-0.117898,-9.783512,2.059111,0.927130,-1.359648,-0.126629,-0.589879,37.536112,-11.426024,25.965147,4635727599304179700.000000,0.616426,-0.133475,0.761151,0.151170,-9.936915,-1.924870,-0.429718,0.101941,-0.017817,-0.124677,39.013001,23.755608,-2.582630,4635729210453786600.000000,-0.373139,-0.556324,-0.468277,0.576183,0
-9.766904,-0.049811,0.884899,-0.406731,-0.166078,0.133690,43.511817,6.186484,14.112386,4635731572685799400.000000,0.741359,0.072878,0.656905,-0.116411,-9.776371,2.111881,1.283137,-1.563379,-0.160332,-0.626959,37.661398,-11.292047,25.881552,4635727599304179700.000000,0.616453,-0.139358,0.759388,0.154581,-9.684367,-1.902407,-0.384275,0.110872,-0.015170,-0.114939,38.746300,23.755608,-2.490310,4635729210453786600.000000,-0.372616,-0.556236,-0.468252,0.576627,0
-9.548815,0.052465,0.865401,-0.388660,-0.186437,0.091627,43.709776,6.140324,13.920389,4635731729405208600.000000,0.742016,0.071836,0.656507,-0.115109,-9.872175,2.174578,1.905328,-1.743473,-0.195736,-0.663431,37.684254,-11.340580,25.627150,4635727599304179700.000000,0.616476,-0.145789,0.757355,0.158481,-9.691247,-1.890199,-0.418948,0.116894,-0.011193,-0.099087,38.783318,23.769246,-2.523433,4635729210453786600.000000,-0.372109,-0.556197,-0.468182,0.577049,0
-9.312576,0.076542,0.886858,-0.380347,-0.184066,0.045724,43.838113,6.140324,13.938885,4635731787434164200.000000,0.742620,0.070803,0.656113,-0.114094,-10.149202,2.498572,2.242323,-1.936155,-0.239209,-0.694259,37.632014,-11.781262,25.346408,4635727691204833300.000000,0.616498,-0.152774,0.755014,0.162924,-9.596056,-1.866303,-0.445311,0.120712,-0.015079,-0.083793,38.976289,23.866384,-2.697836,4635729210453786600.000000,-0.371637,-0.556185,-0.468061,0.577463,0
-9.190851,0.117788,1.001344,-0.399460,-0.118647,0.015472,43.861198,6.024510,14.107809,4635731787434164200.000000,0.743056,0.069538,0.655951,-0.112962,-10.297662,2.843891,2.408161,-2.168191,-0.286813,-0.732394,37.769489,-12.135484,25.065643,4635727706678362100.000000,0.616496,-0.160430,0.752306,0.168017,-9.484627,-1.747762,-0.489717,0.087878,-0.024089,-0.067896,38.940720,24.011436,-2.682261,4635729210453786600.000000,-0.371296,-0.556130,-0.467969,0.577809,0
-9.034151,0.250076,0.948557,-0.417876,-0.103148,-0.025748,43.923550,5.981627,14.160588,4635731787434164200.000000,0.743434,0.068109,0.655855,-0.111901,-10.054056,3.133459,2.084489,-2.417358,-0.307454,-0.792942,38.159800,-12.318812,24.617704,4635727706678362100.000000,0.616372,-0.168885,0.749254,0.173731,-9.528665,-1.538506,-0.567382,0.028512,-0.039476,-0.058624,38.795652,24.059370,-2.598230,4635729210453786600.000000,-0.371146,-0.555965,-0.467973,0.578061,0
-8.940109,0.462229,0.951187,-0.460891,-0.102629,-0.068852,43.946651,6.043983,14.160588,4635731709081423900.000000,0.743799,0.066433,0.655790,-0.110861,-9.842923,3.090351,1.336944,-2.629955,-0.310677,-0.852454,38.294507,-12.550619,24.141665,4635727706678362100.000000,0.616074,-0.178048,0.745905,0.179937,-9.432427,-1.752930,-0.602059,0.000523,-0.046396,-0.051146,38.759412,23.987547,-2.619136,4635729210453786600.000000,-0.371092,-0.555754,-0.468017,0.578262,0
-8.950337,0.614002,1.017835,-0.533007,-0.053926,-0.105834,43.884292,6.067080,14.231855,4635731680059981800.000000,0.744030,0.064456,0.655916,-0.109726,-9.710300,2.742016,0.510461,-2.804094,-0.291638,-0.899314,38.244158,-12.721621,23.749196,4635727706678362100.000000,0.615535,-0.187794,0.742334,0.186524,-9.425526,-1.845798,-0.624523,-0.023653,-0.056859,-0.044011,38.916133,24.014783,-2.800797,4635729210453786600.000000,-0.371132,-0.555495,-0.468087,0.578430,0
-9.129472,0.691529,0.743689,-0.582427,-0.011377,-0.124713,43.861198,5.942378,14.186989,4635731680059981800.000000,0.744145,0.062291,0.656198,-0.108498,-9.431520,2.424471,-0.330160,-2.916205,-0.250010,-0.928641,38.317157,-12.890778,23.360287,4635727614794310700.000000,0.614705,-0.197920,0.738643,0.193321,-9.522651,-1.782816,-0.632840,-0.048701,-0.072153,-0.039351,39.041222,24.144833,-2.862027,4635729193341952000.000000,-0.371270,-0.555169,-0.468183,0.578577,0
-9.557357,0.716936,0.323044,-0.611526,-0.024737,-0.128178,43.861198,5.780387,14.098240,4635731680059981800.000000,0.744300,0.060015,0.656448,-0.107199,-9.115916,1.879070,-1.214180,-2.957503,-0.205151,-0.927923,38.623714,-13.197455,22.907012,4635727599304179700.000000,0.613600,-0.208154,0.734912,0.200177,-9.673565,-1.703735,-0.616741,-0.059723,-0.088222,-0.039304,39.026192,24.047709,-2.695891,4635729103079604200.000000,-0.371466,-0.554787,-0.468280,0.578739,0
-9.594714,0.844918,0.145185,-0.636381,-0.076751,-0.130516,43.807765,5.737480,14.146383,4635731680059981800.000000,0.744596,0.057631,0.656545,-0.105850,-8.934315,0.854432,-2.460437,-2.919019,-0.177655,-0.912529,38.892400,-13.516604,22.432693,4635727599304179700.000000,0.612330,-0.218231,0.731177,0.206898,-9.771758,-1.611377,-0.580120,-0.072540,-0.098733,-0.045326,38.867500,23.925974,-2.701190,4635729103079604200.000000,-0.371696,-0.554348,-0.468405,0.578909,0
-9.487153,0.748654,0.362520,-0.655493,-0.043838,-0.119694,43.779051,5.737480,14.101552,4635731680059981800.000000,0.744806,0.055233,0.656743,-0.104409,-8.765191,-0.056133,-3.818714,-2.787490,-0.152176,-0.871681,38.730976,-13.781746,22.040204,4635727599304179700.000000,0.610972,-0.227836,0.727545,0.213267,-9.818096,-1.603601,-0.559053,-0.084676,-0.110217,-0.055278,38.745753,24.012819,-2.783288,4635729103079604200.000000,-0.371954,-0.553843,-0.468565,0.579098,0
-9.629940,0.606768,0.371525,-0.671804,-0.035765,-0.111464,43.775749,5.790912,14.075136,4635731680059981800.000000,0.744993,0.052826,0.656966,-0.102912,-8.437672,-0.924518,-4.882951,-2.586503,-0.105528,-0.807636,38.697468,-13.891877,21.818455,4635727599304179700.000000,0.609522,-0.236746,0.724170,0.219117,-9.890485,-1.539223,-0.608426,-0.095432,-0.130899,-0.067368,38.807335,24.120975,-2.783288,4635729103079604200.000000,-0.372247,-0.553248,-0.468747,0.579332,0
-9.674870,0.484705,0.404138,-0.677696,-0.051208,-0.104565,43.722322,5.873054,14.146371,4635731680059981800.000000,0.745220,0.050412,0.657136,-0.101380,-8.261180,-1.801671,-5.791726,-2.324001,-0.055326,-0.730294,38.843660,-14.039980,21.633582,4635727599304179700.000000,0.608038,-0.244774,0.721157,0.224296,-9.846937,-1.386921,-0.596220,-0.120921,-0.147988,-0.081592,38.782082,23.973949,-2.796886,4635729103079604200.000000,-0.372597,-0.552544,-0.468996,0.579577,0
-9.766195,0.273616,0.658734,-0.677495,-0.020489,-0.094752,43.764824,5.780438,14.386464,4635731680059981800.000000,0.745351,0.048108,0.657388,-0.099889,-8.114692,-2.586625,-6.463582,-2.028936,-0.002382,-0.643941,39.087659,-14.417962,21.366935,4635727599304179700.000000,0.606560,-0.251823,0.718576,0.228733,-9.882168,-1.231005,-0.584013,-0.162069,-0.165588,-0.098465,38.635040,23.902096,-2.884282,4635729103079604200.000000,-0.373036,-0.551699,-0.469356,0.579808,0
-9.882677,0.136297,0.655616,-0.661625,-0.013710,-0.085628,43.903702,5.559409,14.474677,4635731680059981800.000000,0.745472,0.045793,0.657655,-0.098312,-7.936895,-3.157235,-6.993893,-1.682379,0.045538,-0.540831,39.281341,-14.759884,21.169721,4635727599304179700.000000,0.605163,-0.257717,0.716508,0.232327,-9.837770,-1.267385,-0.571804,-0.195253,-0.184354,-0.118809,38.602057,23.915700,-2.952794,4635729103079604200.000000,-0.373538,-0.550718,-0.469813,0.580048,0
-9.885700,0.145482,0.702713,-0.643377,-0.005894,-0.073966,43.884323,5.493331,14.264285,4635731680059981800.000000,0.745566,0.043572,0.657930,-0.096749,-7.764228,-3.610826,-7.391748,-1.304008,0.092536,-0.431432,39.380924,-14.943309,21.070137,4635727599304179700.000000,0.603900,-0.262364,0.715011,0.235007,-9.758158,-1.529246,-0.563482,-0.198725,-0.195203,-0.132231,38.818981,24.012781,-2.851831,4635729103079604200.000000,-0.374036,-0.549678,-0.470291,0.580326,0
-9.840182,0.185402,0.892677,-0.640310,0.040704,-0.051025,43.745476,5.546742,14.256217,4635731680059981800.000000,0.745534,0.041458,0.658339,-0.095131,-7.687297,-3.945853,-7.644865,-0.906121,0.136789,-0.315943,39.466365,-14.830564,20.807225,4635727599304179700.000000,0.602813,-0.265703,0.714124,0.236738,-9.699622,-1.607495,-0.567924,-0.192485,-0.207123,-0.138422,38.830107,24.183129,-2.695895,4635729103079604200.000000,-0.374527,-0.548605,-0.470749,0.580652,0
-9.862568,0.213123,0.969982,-0.640110,0.093222,-0.022763,43.764819,5.513163,14.567529,4635731680059981800.000000,0.745359,0.039471,0.658900,-0.093449,-7.741084,-4.242332,-7.824588,-0.496481,0.178751,-0.185830,39.332610,-14.807580,20.681289,4635727599304179700.000000,0.601919,-0.267665,0.713884,0.237528,-9.605284,-1.586962,-0.537126,-0.188674,-0.220112,-0.148764,38.512688,24.389839,-2.699225,4635729103079604200.000000,-0.375010,-0.547486,-0.471201,0.581030,0
-9.893594,0.201928,0.896470,-0.645273,0.112268,-0.002491,43.787956,5.368697,14.602079,4635731680059981800.000000,0.745142,0.037489,0.659515,-0.091638,-7.824765,-4.493553,-7.964175,-0.063332,0.214929,-0.050642,39.245211,-14.880644,20.823700,4635727599304179700.000000,0.601265,-0.268173,0.714311,0.237327,-9.610548,-1.598609,-0.542949,-0.194644,-0.234336,-0.156459,38.257442,24.451429,-2.802137,4635729103079604200.000000,-0.375515,-0.546307,-0.471662,0.581440,0
-9.873503,0.293222,0.884526,-0.651191,0.122080,0.016154,43.672252,5.206723,14.451034,4635731680059981800.000000,0.744898,0.035557,0.660155,-0.089766,-8.014616,-4.403679,-7.670472,0.380893,0.236480,0.101469,39.234592,-14.966105,21.017268,4635727599304179700.000000,0.600891,-0.267136,0.715399,0.236161,-9.696560,-1.673793,-0.577630,-0.211636,-0.252226,-0.159833,38.342328,24.451429,-3.012979,4635729103079604200.000000,-0.376084,-0.545050,-0.472143,0.581861,0
-9.819084,0.365198,0.917839,-0.665876,0.136654,0.027593,43.691556,5.048037,14.689522,4635731680059981800.000000,0.744612,0.033636,0.660837,-0.087838,-8.462147,-3.631015,-6.365015,0.798831,0.208216,0.249928,39.297214,-14.905427,21.045563,4635727599304179700.000000,0.600916,-0.264580,0.716988,0.234150,-9.742320,-1.759242,-0.596222,-0.238219,-0.279318,-0.164276,38.465527,24.451429,-3.259377,4635729103079604200.000000,-0.376756,-0.543676,-0.472654,0.582297,0
-9.695738,0.431833,0.936663,-0.681700,0.141774,0.027572,43.777015,5.005035,14.928882,4635731680059981800.000000,0.744313,0.031629,0.661538,-0.085821,-9.023480,-1.833720,-3.679132,1.045992,0.181032,0.339798,39.224347,-14.611252,21.285598,4635727599304179700.000000,0.601196,-0.261106,0.718836,0.231652,-9.883571,-1.835001,-0.584010,-0.259032,-0.302656,-0.168938,38.440236,24.463102,-3.228250,4635729103079604200.000000,-0.377508,-0.542201,-0.473189,0.582750,0
-9.602656,0.407174,1.028970,-0.694317,0.145179,0.023589,43.737863,5.067335,14.907285,4635731680059981800.000000,0.743998,0.029582,0.662247,-0.083790,-9.419849,-0.266523,-1.140557,1.021138,0.191012,0.334982,39.001428,-14.563432,21.576834,4635727599304179700.000000,0.601411,-0.257712,0.720664,0.229200,-9.911001,-1.861362,-0.556239,-0.280489,-0.323555,-0.169665,38.295158,24.549964,-3.048495,4635729103079604200.000000,-0.378347,-0.540639,-0.473743,0.583208,0
-9.511624,0.319449,1.133232,-0.707623,0.159573,0.013088,43.483351,5.081589,14.818535,4635731680059981800.000000,0.743633,0.027479,0.663001,-0.081763,-9.535556,1.140788,0.418779,0.816136,0.226206,0.265539,38.830373,-14.636479,21.702793,4635727599304179700.000000,0.601357,-0.255069,0.722298,0.227148,-9.813879,-1.897983,-0.428867,-0.290319,-0.334841,-0.167576,38.256928,24.708657,-2.983906,4635729103079604200.000000,-0.379233,-0.539036,-0.474297,0.583665,0
-9.360579,0.257385,1.088519,-0.722287,0.165273,-0.002844,43.397320,4.900318,14.875455,4635731680059981800.000000,0.743241,0.025288,0.663773,-0.079743,-9.577497,2.083775,1.290486,0.541879,0.273793,0.179340,38.869953,-14.502779,21.873512,4635727599304179700.000000,0.600943,-0.253416,0.723692,0.225652,-9.645479,-1.930714,-0.226652,-0.294809,-0.336854,-0.159249,38.380077,24.842066,-3.091817,4635729103079604200.000000,-0.380153,-0.537435,-0.474838,0.584103,0
-9.243073,0.253045,1.035353,-0.743467,0.148436,-0.022268,43.690921,4.656191,14.976415,4635731680059981800.000000,0.742877,0.023036,0.664492,-0.077798,-9.708047,2.272158,1.456033,0.300976,0.306492,0.097230,38.870145,-14.342309,22.150553,4635727415712753700.000000,0.600250,-0.252643,0.724850,0.224641,-9.445185,-1.940977,-0.122618,-0.294979,-0.332582,-0.146261,38.327590,24.842066,-3.187533,4635729103079604200.000000,-0.381094,-0.535868,-0.475355,0.584508,0
-9.243276,0.158504,1.061004,-0.776304,0.129610,-0.029329,43.809059,4.527715,15.074063,4635731680059981800.000000,0.742569,0.020576,0.665161,-0.075692,-10.689323,2.616705,1.715329,0.109077,0.302613,0.048929,38.805762,-14.465374,22.109579,4635727384555814900.000000,0.599411,-0.252491,0.725767,0.224093,-9.353359,-1.939033,-0.041600,-0.296557,-0.328139,-0.132035,38.038813,24.842066,-3.272983,4635729137273398300.000000,-0.382064,-0.534336,-0.475850,0.584875,0
-9.359966,-0.127020,1.074252,-0.797055,0.108626,-0.028351,43.518795,4.451154,15.251794,4635731680059981800.000000,0.742310,0.018064,0.665763,-0.073547,-10.988034,2.725596,1.298734,-0.103101,0.353261,-0.018448,38.722083,-14.490188,22.095400,4635727384555814900.000000,0.598256,-0.253119,0.726540,0.223964,-9.305926,-1.934597,0.055209,-0.301169,-0.322289,-0.116015,38.027736,24.830411,-3.346771,4635729317827969000.000000,-0.383070,-0.532840,-0.476329,0.585192,0
-9.497552,-0.397644,1.109834,-0.798776,0.077635,-0.018432,43.409527,4.431287,15.379248,4635731680059981800.000000,0.742132,0.015565,0.666261,-0.071368,-10.259771,1.513585,-0.386222,-0.235935,0.406841,-0.078145,38.636633,-14.344101,22.168443,4635727384555814900.000000,0.596854,-0.254309,0.727257,0.224032,-9.340054,-1.969277,0.030242,-0.304689,-0.313404,-0.099823,38.281026,24.768822,-3.357036,4635729317827969000.000000,-0.384104,-0.531391,-0.476792,0.585454,0
-9.649605,-0.588399,1.256492,-0.791681,0.078478,-0.000946,43.471784,4.377923,15.548049,4635731680059981800.000000,0.741942,0.013205,0.666750,-0.069228,-10.319949,0.241968,-2.088598,-0.191071,0.425397,-0.052741,38.624226,-14.392319,22.347789,4635727384555814900.000000,0.595416,-0.255326,0.728086,0.224006,-9.429389,-1.985922,0.068806,-0.292090,-0.302893,-0.082733,38.172268,24.792129,-3.355094,4635729317827969000.000000,-0.385130,-0.530020,-0.477202,0.585689,0
-9.843889,-0.688154,1.243929,-0.774574,0.091587,0.022173,43.557240,4.295780,15.734483,4635731680059981800.000000,0.741721,0.010886,0.667267,-0.066975,-9.924111,-0.450197,-3.447983,-0.059099,0.434562,-0.010482,38.561624,-14.550803,22.543105,4635727384555814900.000000,0.594050,-0.255895,0.729104,0.223673,-9.545067,-1.961510,0.107926,-0.273982,-0.294129,-0.065304,37.988877,24.915310,-3.360357,4635729317827969000.000000,-0.386139,-0.528732,-0.477543,0.585911,0
-10.140344,-0.725818,1.149588,-0.743385,0.074831,0.051409,43.580429,4.094709,15.659655,4635731680059981800.000000,0.741546,0.008738,0.667716,-0.064715,-9.924408,-0.777093,-3.773440,0.088442,0.394723,0.055980,38.477945,-14.502606,22.738423,4635727384555814900.000000,0.592898,-0.255859,0.730229,0.223099,-9.693497,-1.948741,0.086013,-0.249633,-0.291216,-0.045738,38.050476,24.928897,-3.428900,4635729317827969000.000000,-0.387136,-0.527528,-0.477784,0.586141,0
-10.372103,-0.643507,1.158656,-0.712028,0.049395,0.071489,43.518172,3.903931,15.479863,4635731680059981800.000000,0.741440,0.006733,0.668070,-0.062478,-10.093308,-0.932649,-3.264465,0.187608,0.361266,0.119168,38.382072,-14.354570,22.839832,4635727384555814900.000000,0.591894,-0.255354,0.731429,0.222414,-9.826960,-2.009215,0.010829,-0.220794,-0.294299,-0.024206,38.025246,24.998820,-3.355095,4635729317827969000.000000,-0.388128,-0.526405,-0.477902,0.586400,0
-10.514059,-0.654839,1.260848,-0.686011,0.047395,0.083620,43.432722,3.733028,15.439051,4635731680059981800.000000,0.741334,0.004858,0.668405,-0.060294,-9.859140,-0.618357,-2.756649,0.224544,0.343070,0.159213,38.305278,-14.331491,22.935714,4635727384555814900.000000,0.590945,-0.254618,0.732658,0.221734,-9.807564,-2.104122,-0.070735,-0.194672,-0.293980,-0.002625,37.915056,25.002131,-3.377802,4635729317827969000.000000,-0.389113,-0.525366,-0.477908,0.586673,0
-10.582767,-0.724763,1.293985,-0.663002,0.043688,0.095857,43.356170,3.571032,15.726929,4635731680059981800.000000,0.741234,0.003088,0.668717,-0.058135,-9.616546,-0.196424,-2.445695,0.234973,0.334350,0.173623,38.148579,-14.404515,23.116829,4635727384555814900.000000,0.590018,-0.253804,0.733888,0.221066,-9.689369,-2.117360,-0.102678,-0.183092,-0.305710,0.014635,38.075121,25.074007,-3.567871,4635729300767676400.000000,-0.390138,-0.524351,-0.477828,0.586966,0
-10.569352,-0.797999,1.258420,-0.636684,0.023764,0.104784,43.345172,3.474593,16.117519,4635731680059981800.000000,0.741182,0.001478,0.668955,-0.056087,-9.488936,0.157776,-2.071078,0.205942,0.334175,0.167875,38.061137,-14.489957,23.395573,4635727384555814900.000000,0.589064,-0.253077,0.735083,0.220472,-9.603347,-2.433952,0.013577,-0.167998,-0.298672,0.033812,38.272150,25.074007,-3.618980,4635729210453786600.000000,-0.391161,-0.523414,-0.477679,0.587242,0
-10.434918,-0.862355,1.334073,-0.613578,0.007754,0.107593,43.401840,3.570289,16.143612,4635731601848998900.000000,0.741176,-0.000126,0.669134,-0.054017,-9.493806,0.593451,-1.482270,0.136925,0.340719,0.144727,38.040046,-14.502395,23.521658,4635727384555814900.000000,0.588038,-0.252596,0.736204,0.220025,-9.596387,-2.506517,0.089331,-0.131073,-0.285705,0.058209,38.257206,25.062371,-3.454695,4635729210453786600.000000,-0.392138,-0.522617,-0.477408,0.587521,0
-10.184028,-0.887823,1.376119,-0.585995,0.015163,0.097770,43.359502,3.551161,15.980421,4635731572685799400.000000,0.741141,-0.001660,0.669325,-0.052066,-9.612067,0.909470,-1.037095,0.027498,0.352757,0.111797,37.975700,-14.575390,23.619297,4635727384555814900.000000,0.586887,-0.252494,0.737217,0.219820,-9.654697,-2.052001,0.131186,-0.108341,-0.288230,0.081367,38.110155,25.000761,-3.499272,4635729210453786600.000000,-0.393125,-0.521896,-0.477025,0.587812,0
-9.894387,-0.811137,1.237208,-0.561534,0.002115,0.087775,43.345170,3.350154,15.939550,4635731572685799400.000000,0.741136,-0.003149,0.669467,-0.050213,-9.569076,0.868758,-1.049585,-0.083296,0.371961,0.077618,37.819039,-14.514854,23.539686,4635727384555814900.000000,0.585591,-0.252785,0.738138,0.219851,-9.559557,-1.932645,0.253838,-0.118293,-0.286484,0.102729,38.049896,25.000761,-3.750968,4635729176363063300.000000,-0.394183,-0.521205,-0.476623,0.588044,0
-9.672506,-0.674589,1.228570,-0.546880,-0.026832,0.070672,43.464065,3.283792,15.933978,4635731572685799400.000000,0.741200,-0.004576,0.669512,-0.048532,-9.401985,0.604258,-1.427006,-0.148608,0.388606,0.053474,37.658564,-14.502395,23.523666,4635727476274214900.000000,0.584196,-0.253324,0.739012,0.220005,-9.444071,-1.953184,0.299374,-0.130042,-0.281313,0.124938,38.125070,24.989140,-3.833125,4635728995705421800.000000,-0.395310,-0.520550,-0.476209,0.588203,0
-9.477215,-0.537010,1.280710,-0.534354,-0.046137,0.069046,43.560517,3.221571,15.868441,4635731572685799400.000000,0.741319,-0.006050,0.669491,-0.046804,-9.396140,0.207006,-1.979395,-0.146981,0.392767,0.044729,37.708416,-14.575387,23.607085,4635727491929997300.000000,0.582796,-0.253890,0.739887,0.220128,-9.487090,-1.953184,0.274377,-0.137893,-0.276871,0.150965,38.196964,24.927517,-3.833125,4635728995705421800.000000,-0.396508,-0.519944,-0.475764,0.588293,0
-9.433005,-0.420503,1.320651,-0.532425,-0.067314,0.083720,43.464874,2.958339,15.854098,4635731572685799400.000000,0.741497,-0.007488,0.669402,-0.045027,-9.451831,-0.228856,-2.386265,-0.120636,0.393078,0.058391,37.720875,-14.587847,23.704735,4635727491929997300.000000,0.581408,-0.254348,0.740799,0.220202,-9.499297,-1.957057,0.305185,-0.125415,-0.271022,0.174241,38.183409,24.913962,-3.848616,4635728995705421800.000000,-0.397723,-0.519417,-0.475247,0.588356,0
-9.551870,-0.141766,1.481707,-0.544672,-0.073702,0.081657,43.368403,2.806522,15.724094,4635731572685799400.000000,0.741687,-0.008957,0.669291,-0.043238,-9.419034,-0.428516,-2.504037,-0.068990,0.383956,0.081867,37.439374,-14.671255,23.969210,4635727491929997300.000000,0.580080,-0.254600,0.741759,0.220182,-9.528919,-1.987275,0.307120,-0.115073,-0.263155,0.202010,38.111511,24.830455,-3.944330,4635728995705421800.000000,-0.398968,-0.518981,-0.474656,0.588374,0
-9.559468,-0.057717,1.502581,-0.580913,-0.090811,0.095374,43.464032,2.907718,15.594315,4635731572685799400.000000,0.741922,-0.010502,0.669130,-0.041304,-9.338926,-0.441248,-2.389613,-0.027130,0.380572,0.107346,37.172331,-14.612524,24.168353,4635727491929997300.000000,0.578782,-0.254668,0.742774,0.220098,-9.637447,-2.036701,0.317392,-0.106190,-0.258205,0.230459,38.125058,24.743664,-4.016236,4635728995705421800.000000,-0.400253,-0.518627,-0.473990,0.588351,0
-9.492869,0.018944,1.551511,-0.612262,-0.043548,0.085145,43.631601,2.838664,15.848816,4635731572685799400.000000,0.742013,-0.012090,0.669117,-0.039398,-9.336881,-0.366493,-2.274413,-0.011329,0.382997,0.122946,37.134922,-14.527081,24.195074,4635727491929997300.000000,0.577477,-0.254651,0.743824,0.219999,-9.664393,-2.022559,0.317392,-0.096186,-0.250338,0.262503,38.208574,24.598515,-4.047195,4635728995705421800.000000,-0.401578,-0.518372,-0.473242,0.588276,0
-9.668468,0.039942,1.476993,-0.631190,-0.025055,0.082931,43.678089,2.671071,16.106162,4635731572685799400.000000,0.742052,-0.013822,0.669158,-0.037357,-9.349087,-0.208088,-2.237523,-0.001405,0.387113,0.136830,37.280847,-14.587566,24.278460,4635727491929997300.000000,0.576156,-0.254570,0.744905,0.219898,-9.653516,-1.996214,0.323193,-0.092315,-0.245896,0.294713,38.281811,24.523346,-4.242490,4635728995705421800.000000,-0.402964,-0.518195,-0.472421,0.588143,0
-9.590433,-0.221094,1.262738,-0.665874,-0.106505,0.109267,43.615881,2.562384,16.020413,4635731572685799400.000000,0.742313,-0.015599,0.668949,-0.035133,-9.298749,-0.037170,-2.181833,0.003649,0.403244,0.148893,37.232853,-14.745995,24.459522,4635727491929997300.000000,0.574777,-0.254454,0.746041,0.219792,-9.716479,-1.971189,0.361744,-0.106323,-0.241232,0.328836,38.356979,24.439836,-4.391415,4635728995705421800.000000,-0.404454,-0.518072,-0.471567,0.587914,0
-9.436243,-0.290737,1.498426,-0.716079,-0.121174,0.111567,43.530441,2.361434,15.842889,4635731572685799400.000000,0.742607,-0.017528,0.668697,-0.032759,-9.310681,-0.001784,-1.974875,0.006097,0.415929,0.155169,37.011905,-14.770958,24.571438,4635727491929997300.000000,0.573353,-0.254323,0.747213,0.219679,-9.778130,-2.007810,0.431825,-0.141510,-0.239488,0.366667,38.428905,24.378185,-4.293757,4635728995705421800.000000,-0.406108,-0.517967,-0.470720,0.587546,0
-9.310840,-0.156367,1.806869,-0.759381,-0.066376,0.108951,43.516073,2.055071,15.876353,4635731572685799400.000000,0.742737,-0.019598,0.668612,-0.030267,-9.408057,0.072962,-1.753361,-0.007271,0.440446,0.153214,36.913686,-14.989843,24.669094,4635727400250253300.000000,0.571839,-0.254251,0.748427,0.219576,-9.793576,-2.052152,0.585955,-0.164331,-0.234317,0.394659,38.442421,24.378185,-4.227000,4635728995705421800.000000,-0.407867,-0.517889,-0.469874,0.587072,0
-9.259856,-0.109867,1.720005,-0.809008,0.001691,0.108951,43.519394,1.965392,15.906246,4635731572685799400.000000,0.742665,-0.021810,0.668737,-0.027646,-9.278192,0.127144,-1.888013,0.004067,0.464414,0.151833,36.975944,-15.162813,24.766754,4635727384555814900.000000,0.570261,-0.254178,0.749704,0.219409,-9.904752,-2.122157,0.597540,-0.187275,-0.231396,0.419510,38.539459,24.355015,-4.324660,4635728995705421800.000000,-0.409730,-0.517825,-0.469035,0.586502,0
-9.350946,-0.109867,1.535818,-0.870965,0.010966,0.115948,43.457199,1.965392,15.835167,4635731572685799400.000000,0.742553,-0.024180,0.668890,-0.024845,-9.294899,0.144703,-2.197952,0.045621,0.477880,0.155325,36.842526,-14.977572,24.937357,4635727384555814900.000000,0.568679,-0.254006,0.751051,0.219104,-10.087858,-2.073269,0.664991,-0.227804,-0.232628,0.448513,38.711665,24.195014,-4.377914,4635728995705421800.000000,-0.411751,-0.517743,-0.468228,0.585804,0
-9.263120,-0.100983,1.444884,-0.913574,0.042457,0.125560,43.496129,1.849902,15.879658,4635731572685799400.000000,0.742339,-0.026651,0.669136,-0.021899,-9.343728,0.417451,-2.444173,0.084255,0.478686,0.145919,36.671626,-14.941861,25.047512,4635727384555814900.000000,0.567142,-0.253772,0.752423,0.218655,-10.267092,-1.865803,0.713186,-0.258498,-0.215987,0.460316,38.905626,23.986249,-4.192892,4635728995705421800.000000,-0.413833,-0.517670,-0.467496,0.584986,0
-9.314331,-0.213172,1.321639,-0.922880,0.106858,0.135953,43.705991,1.628984,16.199471,4635731572685799400.000000,0.741933,-0.029043,0.669576,-0.018981,-9.309184,0.703579,-2.436416,0.086077,0.479442,0.133257,36.657047,-15.369148,25.322339,4635727384555814900.000000,0.565614,-0.253572,0.753781,0.218168,-10.408425,-1.867101,0.799901,-0.294192,-0.187988,0.465206,38.820804,23.877645,-4.041948,4635728995705421800.000000,-0.415946,-0.517609,-0.466886,0.584026,0
-9.590803,-0.371878,1.175141,-0.933766,0.121376,0.146635,43.775749,1.438138,16.309092,4635731572685799400.000000,0.741477,-0.031516,0.670049,-0.015913,-9.458347,0.994741,-2.481375,0.052628,0.472304,0.114970,36.512948,-15.379843,25.523289,4635727476211674100.000000,0.564086,-0.253501,0.755069,0.217750,-10.463041,-1.934557,0.728555,-0.297560,-0.147061,0.459976,38.734121,23.645709,-4.144761,4635728995705421800.000000,-0.417973,-0.517630,-0.466365,0.582977,0
-9.795979,-0.299543,1.073091,-0.917620,0.090866,0.145653,43.535845,1.267250,16.042532,4635731572685799400.000000,0.741096,-0.033943,0.670417,-0.012890,-9.422632,1.100150,-2.875856,0.002322,0.461936,0.087538,36.342046,-15.087776,25.706397,4635727491929997300.000000,0.562561,-0.253624,0.756255,0.217435,-10.533061,-1.965392,0.425946,-0.261918,-0.100627,0.437544,38.956402,23.438854,-4.293788,4635728995705421800.000000,-0.419775,-0.517779,-0.465883,0.581933,0
-9.928005,-0.345194,0.925463,-0.922499,0.082443,0.153528,43.330659,1.105250,15.951752,4635731572685799400.000000,0.740728,-0.036357,0.670749,-0.009834,-9.328547,0.506504,-3.212909,-0.010811,0.442136,0.069639,36.327444,-15.174983,25.660265,4635727491929997300.000000,0.561099,-0.253815,0.757362,0.217140,-10.545931,-1.969250,-0.069417,-0.190454,-0.032034,0.379577,38.996140,23.460130,-4.209625,4635728995705421800.000000,-0.421148,-0.518105,-0.465472,0.580980,0
-10.094508,-0.422852,0.870049,-0.898389,0.139288,0.143802,43.402951,0.946546,16.168305,4635731728978896900.000000,0.740192,-0.038720,0.671244,-0.006883,-9.272578,0.538274,-3.238541,-0.004457,0.411662,0.062736,36.329231,-15.271140,25.647755,4635727491929997300.000000,0.559743,-0.253985,0.758393,0.216840,-10.702040,-2.014866,-0.221016,-0.101417,0.043401,0.321175,38.313889,23.998478,-4.212840,4635728995705421800.000000,-0.422040,-0.518655,-0.465103,0.580137,0
-10.064398,-0.590492,0.271509,-0.854983,0.109695,0.147410,43.623825,0.841161,16.248055,4635731787434164200.000000,0.739737,-0.040863,0.671642,-0.004123,-9.140397,0.780329,-3.318310,-0.032376,0.388732,0.046455,36.245883,-15.148228,25.887379,4635727583569197100.000000,0.558444,-0.254250,0.759326,0.216614,-10.855606,-2.094564,-0.089954,-0.084939,0.085393,0.300432,37.673954,24.500908,-4.255903,4635728995705421800.000000,-0.422764,-0.519294,-0.464812,0.579270,0
-10.229921,-0.478207,-0.164373,-0.856760,-0.015698,0.136617,43.699179,0.693528,16.256938,4635731787434164200.000000,0.739622,-0.043121,0.671638,-0.001283,-9.275192,0.713722,-3.488883,-0.062908,0.364636,0.031944,35.950302,-15.124972,26.095203,4635727599304179700.000000,0.557201,-0.254609,0.760158,0.216476,-10.707839,-1.635246,-0.070020,-0.176567,0.106029,0.284637,37.920028,24.366019,-4.070865,4635728995705421800.000000,-0.423607,-0.519791,-0.464811,0.578208,0
-10.676108,-0.352875,0.173323,-0.846451,-0.136373,0.097185,43.587033,0.407168,16.340203,4635731787434164200.000000,0.739838,-0.045463,0.671246,0.001434,-9.479113,0.518750,-3.619892,-0.094635,0.333692,0.035377,35.704069,-15.343709,26.280082,4635727599304179700.000000,0.556017,-0.255003,0.760892,0.216478,-10.603681,-0.752982,0.036473,-0.333306,0.089055,0.255679,38.062734,23.948373,-3.889033,4635728995705421800.000000,-0.424752,-0.519912,-0.465220,0.576929,0
-10.646981,-0.382898,0.365132,-0.822755,-0.172072,0.074279,43.428329,0.086433,16.450075,4635731787434164200.000000,0.740148,-0.047801,0.670731,0.004029,-9.572062,0.279981,-3.491985,-0.091135,0.298914,0.039051,35.524213,-15.454238,26.390280,4635727599304179700.000000,0.554943,-0.255345,0.761550,0.216515,-11.085541,-0.808416,1.389477,-0.427263,0.057840,0.271363,37.633548,23.854484,-3.765703,4635728995705421800.000000,-0.426197,-0.519821,-0.465763,0.575506,0
-10.361759,-0.465021,0.111958,-0.827723,-0.151569,0.043295,43.385113,0.000000,16.408936,4635731787434164200.000000,0.740392,-0.050239,0.670264,0.006535,-9.614055,0.275392,-3.237783,-0.083346,0.260935,0.044078,35.572030,-15.393879,26.321297,4635727599304179700.000000,0.553992,-0.255618,0.762133,0.216578,-11.273963,-0.061182,2.140435,-0.412358,0.093097,0.282385,37.554944,24.087179,-3.589634,4635728995705421800.000000,-0.427566,-0.519860,-0.466308,0.574013,0
-10.278633,-0.568224,-0.138768,-0.825870,-0.128367,-0.004964,43.376232,0.000000,16.249122,4635731787434164200.000000,0.740564,-0.052795,0.669850,0.008870,-9.629848,0.114141,-3.073368,-0.109585,0.246175,0.050330,35.657481,-15.454228,26.234054,4635727599304179700.000000,0.553054,-0.255918,0.762663,0.216755,-10.844683,0.528768,0.832898,-0.439380,0.094502,0.283839,38.424132,23.746194,-3.545262,4635728995705421800.000000,-0.428991,-0.519854,-0.466914,0.572459,0
-10.216463,-0.829084,-0.062095,-0.810331,-0.041238,-0.041764,43.372906,0.000000,16.057119,4635731709313389600.000000,0.740488,-0.055408,0.669690,0.011029,-9.642054,0.012560,-3.260112,-0.096980,0.230028,0.051271,35.597140,-15.466780,26.377698,4635727599304179700.000000,0.552179,-0.256172,0.763167,0.216910,-10.713148,0.597420,-0.153878,-0.540779,0.099726,0.307633,39.507518,22.840204,-3.608954,4635728995705421800.000000,-0.430681,-0.519723,-0.467718,0.570650,0
-9.873469,-0.995483,-0.278635,-0.793727,0.020402,-0.054088,43.319619,-0.177618,16.012787,4635731680059981800.000000,0.740237,-0.058006,0.669711,0.013090,-9.581364,0.083313,-3.410554,-0.066660,0.202001,0.072229,35.657479,-15.393882,26.487925,4635727599304179700.000000,0.551406,-0.256263,0.763656,0.217048,-10.149018,0.864136,-1.090077,-0.676634,0.113055,0.285655,39.832165,22.460956,-3.439307,4635728995705421800.000000,-0.432583,-0.519333,-0.468912,0.568583,0
-9.691559,-1.052060,-0.680331,-0.782369,0.053022,-0.047774,43.299660,-0.306304,16.087148,4635731680059981800.000000,0.739890,-0.060552,0.669827,0.015130,-9.372756,0.014355,-3.503172,-0.089287,0.186674,0.083128,35.670033,-15.381329,26.502272,4635727599304179700.000000,0.550648,-0.256358,0.764101,0.217298,-9.690168,0.980946,-1.733371,-0.889332,0.125113,0.256867,39.711938,22.522659,-3.312801,4635728995705421800.000000,-0.434847,-0.518526,-0.470689,0.566119,0
-9.712664,-0.964363,-1.175326,-0.779748,0.009602,-0.023106,43.415100,-0.382881,16.184813,4635731680059981800.000000,0.739655,-0.063018,0.669807,0.017250,-9.286599,0.114541,-3.515732,-0.059374,0.172034,0.090762,35.461775,-15.454218,26.585575,4635727599304179700.000000,0.549960,-0.256346,0.764546,0.217486,-9.794129,1.749605,-2.094063,-1.136986,0.201971,0.259623,39.801226,22.486141,-3.014761,4635728995705421800.000000,-0.437494,-0.517447,-0.473174,0.562986,0
-9.818084,-1.052060,-1.238494,-0.789847,-0.033696,-0.035929,43.582654,-0.402844,16.282459,4635731680059981800.000000,0.739536,-0.065356,0.669662,0.019159,-9.319278,0.123869,-3.255411,-0.039741,0.165280,0.103705,35.217627,-15.612560,26.599932,4635727599304179700.000000,0.549303,-0.256241,0.765007,0.217648,-11.376571,4.416585,-3.116991,-1.215034,0.248692,0.374797,39.907249,22.265732,-2.626046,4635728995705421800.000000,-0.440475,-0.516549,-0.475667,0.559375,0
-9.851375,-1.240708,-0.977716,-0.805286,-0.121182,-0.015053,43.629261,-0.589273,16.246948,4635731680059981800.000000,0.739643,-0.067875,0.669225,0.021419,-9.305633,0.299071,-3.106431,-0.060161,0.157207,0.091170,35.181736,-15.710564,26.599932,4635727599304179700.000000,0.548661,-0.256216,0.765417,0.217855,-12.560038,6.635847,-4.055483,-1.374839,0.292753,0.517381,39.994619,22.107040,-2.262998,4635728995705421800.000000,-0.444030,-0.515725,-0.478290,0.555070,0
-9.469639,-1.560312,-0.740222,-0.808879,-0.132743,-0.009710,43.513850,-0.712465,16.294660,4635731680059981800.000000,0.739772,-0.070387,0.668746,0.023708,-9.354098,0.766878,-3.202998,-0.086864,0.153217,0.070436,35.181736,-15.650256,26.599932,4635727599304179700.000000,0.548021,-0.256314,0.765772,0.218104,-11.541893,6.050201,-5.260846,-1.546378,0.356570,0.635009,40.117231,21.961804,-1.966899,4635728995705421800.000000,-0.448079,-0.514944,-0.481154,0.550045,0
-9.406345,-1.340652,-0.364060,-0.789171,-0.026624,-0.016410,43.408428,-0.679185,16.321299,4635731680059981800.000000,0.739604,-0.072861,0.668586,0.025884,-9.612952,0.665317,-3.181109,-0.122677,0.150012,0.054539,35.035978,-15.575215,26.683223,4635727599304179700.000000,0.547368,-0.256542,0.766069,0.218434,-11.429115,4.313690,-5.898734,-1.565154,0.396255,0.791768,40.362046,21.863619,-1.557803,4635728995705421800.000000,-0.452423,-0.514505,-0.483774,0.544574,0
-9.702638,-1.131969,-0.483832,-0.789652,0.047966,-0.032917,43.447251,-0.774603,16.188141,4635731680059981800.000000,0.739221,-0.075390,0.668644,0.027987,-9.676876,0.436993,-3.142694,-0.125445,0.142254,0.033211,35.083702,-15.626900,26.614310,4635727599304179700.000000,0.546755,-0.256836,0.766322,0.218732,-11.697305,3.730807,-4.904523,-1.514662,0.435165,0.967291,40.518291,21.618250,-1.028199,4635728995705421800.000000,-0.456953,-0.514575,-0.485948,0.538759,0
-10.113223,-1.151925,-0.538242,-0.794896,0.047195,-0.050880,43.523822,-1.004303,16.076051,4635731680059981800.000000,0.738833,-0.077991,0.668685,0.030058,-9.649245,0.444479,-3.293433,-0.122241,0.130977,0.021711,35.106691,-15.783405,26.599932,4635727599304179700.000000,0.546192,-0.257150,0.766540,0.219006,-11.603670,4.785453,-3.609405,-1.484145,0.465406,1.118103,40.545840,21.275952,-0.719903,4635728995705421800.000000,-0.461666,-0.515044,-0.487759,0.532621,0
-10.105553,-1.234036,-0.551543,-0.805089,-0.010372,-0.051661,43.543808,-1.012126,16.185860,4635731680059981800.000000,0.738594,-0.080612,0.668540,0.032169,-9.633440,0.514125,-3.559808,-0.128144,0.115585,0.016652,35.108490,-15.881446,26.683200,4635727599304179700.000000,0.545677,-0.257479,0.766712,0.219304,-11.344680,5.254574,-3.087084,-1.512011,0.496782,1.216334,40.719038,20.790231,-0.288938,4635728995705421800.000000,-0.466562,-0.515696,-0.489449,0.526135,0
-9.899156,-1.443730,-0.410672,-0.796940,0.005812,-0.039332,43.490559,-1.042048,16.244721,4635731680059981800.000000,0.738303,-0.083173,0.668442,0.034285,-9.454719,0.316774,-3.726070,-0.104659,0.095922,0.013290,35.098083,-15.821189,26.780848,4635727599304179700.000000,0.545251,-0.257748,0.766857,0.219540,-11.121839,4.904436,-3.223969,-1.567135,0.520188,1.302005,41.218266,20.264673,0.344555,4635728995705421800.000000,-0.471682,-0.516429,-0.491086,0.519281,0
-9.848043,-1.495967,-0.220879,-0.766937,0.051068,-0.033696,43.408434,-1.186304,16.185924,4635731680059981800.000000,0.737888,-0.085629,0.668483,0.036318,-9.382483,0.249546,-3.664407,-0.053048,0.079268,0.009175,35.096283,-15.662872,26.795250,4635727599304179700.000000,0.544939,-0.257897,0.767006,0.219619,-10.805188,4.574870,-3.232766,-1.639110,0.519517,1.382170,41.618654,19.800840,0.894542,4635728995705421800.000000,-0.477094,-0.517142,-0.492665,0.512081,0
-9.798137,-1.533668,-0.374981,-0.745671,0.012556,-0.005939,43.385113,-1.232948,16.091619,4635731680059981800.000000,0.737576,-0.087937,0.668412,0.038390,-9.271202,0.566810,-3.566746,-0.020272,0.058692,0.001259,35.096283,-15.710542,26.878518,4635727599304179700.000000,0.544734,-0.257977,0.767130,0.219598,-10.421010,4.252935,-2.785850,-1.683842,0.516083,1.454258,41.865429,19.323544,1.396251,4635728995705421800.000000,-0.482721,-0.517862,-0.494135,0.504609,0
-9.458748,-1.647929,-0.442802,-0.729650,-0.041341,0.013588,43.447213,-1.295050,16.206891,4635731680059981800.000000,0.737415,-0.090053,0.668189,0.040412,-9.211583,0.757871,-3.396246,-0.035145,0.046437,-0.022766,35.106690,-15.941687,26.976167,4635727599304179700.000000,0.544575,-0.258158,0.767187,0.219583,-10.005967,4.033479,-2.085005,-1.692952,0.518325,1.508416,42.047334,18.785717,1.954661,4635728995705421800.000000,-0.488432,-0.518633,-0.495466,0.496958,0
-9.249947,-1.595904,-0.031367,-0.687235,0.034020,0.000012,43.532665,-1.557936,16.411080,4635731680059981800.000000,0.737051,-0.092171,0.668182,0.042336,-9.256411,0.760462,-3.233969,-0.065768,0.041220,-0.051287,35.181331,-16.114766,26.990568,4635727599304179700.000000,0.544425,-0.258494,0.767174,0.219607,-9.634995,4.129932,-1.349045,-1.700701,0.523686,1.541484,42.155274,18.300104,2.388578,4635728995705421800.000000,-0.494170,-0.519419,-0.496707,0.489165,0
-9.234331,-1.544806,-0.064210,-0.631019,0.123955,-0.001752,43.618110,-1.763318,16.334727,4635731680059981800.000000,0.736453,-0.094143,0.668455,0.044071,-9.192571,0.756859,-3.075259,-0.078693,0.036947,-0.073756,35.048249,-15.930052,26.990568,4635727599304179700.000000,0.544295,-0.258927,0.767114,0.219625,-9.489225,4.058612,-0.950506,-1.710628,0.510261,1.562679,42.279737,17.736172,2.622910,4635728995705421800.000000,-0.499954,-0.520151,-0.497846,0.481289,0
-9.161172,-1.617965,-0.497962,-0.591969,0.156910,0.003105,43.632598,-1.753474,16.142752,4635731680059981800.000000,0.735773,-0.095985,0.668833,0.045696,-9.190373,0.465498,-3.010228,-0.071006,0.029033,-0.079638,35.085473,-15.675519,26.907323,4635727599304179700.000000,0.544204,-0.259355,0.767037,0.219615,-9.230013,3.422892,-0.723593,-1.678127,0.490008,1.580963,42.550212,17.028156,3.033878,4635728995705421800.000000,-0.505696,-0.520898,-0.498790,0.473440,0
-9.290822,-1.577029,-0.688013,-0.563026,0.179144,0.001168,43.460706,-1.786679,16.302269,4635731680059981800.000000,0.735038,-0.097743,0.669280,0.047223,-9.348258,0.331808,-3.013427,-0.054862,0.027772,-0.083753,35.304393,-15.710522,26.809665,4635727599304179700.000000,0.544139,-0.259757,0.766968,0.219544,-8.683375,2.540681,-0.608457,-1.549554,0.483640,1.589779,42.829040,16.333591,3.602555,4635728995705421800.000000,-0.511143,-0.521874,-0.499402,0.465809,0
-9.483915,-1.372948,-0.645942,-0.545348,0.169560,0.005433,43.282013,-1.922000,16.524249,4635731680059981800.000000,0.734332,-0.099434,0.669699,0.048717,-9.396097,0.171715,-3.160906,-0.042324,0.016846,-0.080742,35.132321,-15.795974,26.795250,4635727599304179700.000000,0.544119,-0.260112,0.766888,0.219452,-8.098605,1.851970,-0.571378,-1.345457,0.490320,1.604294,43.082296,15.735885,4.034640,4635728995705421800.000000,-0.516117,-0.523284,-0.499559,0.458517,0
-9.498503,-1.270713,-0.658057,-0.529133,0.157218,0.019119,43.300711,-2.027481,16.586523,4635731680059981800.000000,0.733660,-0.101035,0.670085,0.050213,-9.306073,0.052862,-3.196535,-0.024205,0.003121,-0.073739,34.888222,-15.735766,26.868072,4635727507801022500.000000,0.544156,-0.260391,0.766801,0.219333,-7.629902,1.603271,-0.396651,-1.118281,0.503703,1.607690,43.255109,15.258621,4.245258,4635728995705421800.000000,-0.520535,-0.525176,-0.499265,0.451628,0
-9.431931,-1.390416,-0.777850,-0.514371,0.154881,0.044455,43.324074,-2.112936,16.589861,4635731680059981800.000000,0.732992,-0.102519,0.670474,0.051747,-9.258626,0.161453,-3.260755,-0.018632,-0.009855,-0.066262,35.133006,-15.723135,26.974325,4635727491929997300.000000,0.544233,-0.260621,0.766698,0.219228,-7.397985,1.386208,-0.216647,-0.895434,0.515387,1.592866,43.440115,14.686403,4.538207,4635728995705421800.000000,-0.524379,-0.527507,-0.498577,0.445178,0
-9.403039,-1.520296,-0.782419,-0.502038,0.146345,0.066308,43.208775,-2.198380,16.660815,4635731680059981800.000000,0.732345,-0.103895,0.670846,0.053309,-9.201199,0.297540,-3.313194,-0.023620,-0.022672,-0.062426,35.254555,-15.795953,26.907348,4635727491929997300.000000,0.544343,-0.260838,0.766566,0.219160,-7.171780,1.150144,-0.141928,-0.690092,0.531307,1.564554,43.620137,14.013522,4.846478,4635728995705421800.000000,-0.527654,-0.530228,-0.497576,0.439156,0
-9.390833,-1.532605,-0.698125,-0.486410,0.155547,0.075446,43.165379,-2.337028,16.696388,4635731680059981800.000000,0.731674,-0.105199,0.671251,0.054851,-9.119374,0.213392,-3.154012,-0.020927,-0.030937,-0.062863,35.121586,-15.808587,26.809709,4635727491929997300.000000,0.544482,-0.261044,0.766416,0.219092,-6.997492,1.119693,-0.194580,-0.514737,0.539247,1.519989,43.719707,13.475668,5.237108,4635728995705421800.000000,-0.530416,-0.533228,-0.496343,0.433555,0
-9.458432,-1.517058,-0.609336,-0.469320,0.178068,0.086217,43.218581,-2.442515,16.770666,4635731680059981800.000000,0.730947,-0.106356,0.671741,0.056293,-9.169128,0.382535,-3.000284,-0.019385,-0.033865,-0.067571,35.169090,-15.808587,26.878458,4635727491929997300.000000,0.544636,-0.261258,0.766257,0.219012,-6.928820,1.265423,-0.254445,-0.392626,0.537176,1.461842,43.877320,13.001538,5.610513,4635728995705421800.000000,-0.532781,-0.536350,-0.494991,0.428319,0
-9.494019,-1.540317,-0.656885,-0.454559,0.152982,0.097482,43.300685,-2.519093,16.868317,4635731680059981800.000000,0.730285,-0.107507,0.672147,0.057822,-9.273577,0.591871,-3.030612,-0.044709,-0.036911,-0.082923,35.389759,-15.735779,26.809700,4635727491929997300.000000,0.544787,-0.261575,0.766050,0.218981,-6.815133,1.421371,-0.263251,-0.317994,0.527526,1.384201,44.256075,12.524284,5.862629,4635728995705421800.000000,-0.534838,-0.539437,-0.493637,0.423412,0
-9.506226,-1.514877,-0.648151,-0.440673,0.134014,0.105836,43.208818,-2.477079,16.965974,4635731680059981800.000000,0.729678,-0.108581,0.672502,0.059339,-9.321030,0.435402,-3.029245,-0.072792,-0.039205,-0.089091,35.290703,-15.650345,26.712062,4635727491929997300.000000,0.544920,-0.261975,0.765806,0.219028,-6.659843,1.234357,-0.370042,-0.256202,0.507835,1.307529,44.389523,11.950131,5.977476,4635728995705421800.000000,-0.536641,-0.542450,-0.492284,0.418833,0
-9.615971,-1.705450,-0.572717,-0.417476,0.170951,0.116417,43.165379,-2.515757,16.992706,4635731680059981800.000000,0.728973,-0.109560,0.672977,0.060803,-9.284858,0.350847,-3.048235,-0.096016,-0.040431,-0.093364,35.194392,-15.637684,26.780786,4635727674873335800.000000,0.545035,-0.262439,0.765533,0.219141,-6.402760,0.697285,-0.373457,-0.162980,0.498491,1.227861,44.278162,11.278441,6.183072,4635728995705421800.000000,-0.538096,-0.545473,-0.490911,0.414630,0
-9.647191,-1.782281,-0.664581,-0.397757,0.182755,0.127390,43.227436,-2.716444,17.001571,4635731680059981800.000000,0.728238,-0.110456,0.673494,0.062244,-9.194429,0.237811,-3.051851,-0.091148,-0.044229,-0.096727,35.316931,-15.710481,26.961644,4635727706678362100.000000,0.545170,-0.262899,0.765252,0.219234,-6.205537,0.236514,-0.248324,-0.058174,0.494351,1.154793,44.328540,10.842442,6.363119,4635728995705421800.000000,-0.539179,-0.548559,-0.489500,0.410802,0
-9.697035,-1.693637,-0.681436,-0.370585,0.163746,0.127987,43.197644,-2.907390,17.084692,4635731680059981800.000000,0.727566,-0.111266,0.673958,0.063623,-9.231959,0.157343,-2.999859,-0.061519,-0.050321,-0.092652,35.340431,-15.650347,26.824194,4635727706678362100.000000,0.545353,-0.263274,0.764988,0.219249,-6.041900,0.250625,-0.021752,-0.010714,0.476728,1.070954,44.546722,10.582685,6.462673,4635728995705421800.000000,-0.540032,-0.551537,-0.488147,0.407290,0
-9.628439,-1.624745,-0.689138,-0.341933,0.118231,0.130213,43.000276,-2.892133,17.114779,4635731680059981800.000000,0.727033,-0.111965,0.674291,0.064944,-9.324189,0.115294,-2.990814,-0.062981,-0.056730,-0.088221,35.278044,-15.710471,26.545693,4635727523756978200.000000,0.545551,-0.263631,0.764713,0.219286,-6.077019,0.600792,0.286850,-0.068615,0.436849,0.967358,44.572269,10.106644,6.601117,4635728995705421800.000000,-0.540912,-0.554094,-0.487029,0.403975,0
-9.541836,-1.646832,-0.536275,-0.320370,0.115244,0.139914,42.933437,-2.868740,17.114779,4635731680059981800.000000,0.726514,-0.112570,0.674624,0.066234,-9.265876,0.224247,-3.053203,-0.087745,-0.053131,-0.084859,35.267189,-15.858312,26.346300,4635727491929997300.000000,0.545707,-0.264038,0.764427,0.219405,-5.904206,0.766472,0.482172,-0.167529,0.364774,0.837740,44.658494,9.643890,6.894100,4635728995705421800.000000,-0.541939,-0.556035,-0.486207,0.400912,0
-9.530639,-1.722255,-0.431769,-0.287182,0.152983,0.136927,42.871389,-2.983972,17.194555,4635731680059981800.000000,0.725904,-0.113093,0.675078,0.067404,-9.180433,0.192163,-3.292791,-0.079124,-0.055978,-0.077106,35.412745,-15.809053,26.319162,4635727491929997300.000000,0.545874,-0.264398,0.764151,0.219518,-5.530393,-0.026273,0.381933,-0.174948,0.330497,0.714264,44.681003,9.289459,7.156586,4635728995705421800.000000,-0.542839,-0.557644,-0.485599,0.398187,0
-9.533982,-1.789981,-0.450509,-0.251830,0.160133,0.142343,42.794800,-3.213588,17.295561,4635731680059981800.000000,0.725287,-0.113495,0.675564,0.068488,-9.178156,-0.149584,-3.218257,-0.035060,-0.066619,-0.063103,35.427695,-15.588445,26.391939,4635727491929997300.000000,0.546111,-0.264603,0.763906,0.219534,-4.650545,-1.766246,-0.585155,-0.046425,0.210578,0.538760,44.702730,9.144126,7.223755,4635728995705421800.000000,-0.543387,-0.558985,-0.484910,0.396394,0
-9.525120,-1.620588,-0.348672,-0.219982,0.148780,0.156124,42.889951,-3.336965,17.393203,4635731680059981800.000000,0.724724,-0.113646,0.676049,0.069408,-9.387902,-0.103559,-3.031992,-0.014126,-0.072000,-0.054516,35.425884,-15.552232,26.487786,4635727491929997300.000000,0.546380,-0.264728,0.763678,0.219508,-6.438044,-5.760771,2.235383,0.062799,0.125733,0.341199,44.764549,9.046124,7.126095,4635728995705421800.000000,-0.543523,-0.560032,-0.484307,0.395465,0
-9.548359,-1.470587,-0.154540,-0.181254,0.172406,0.161773,42.933437,-3.295006,17.490856,4635731680059981800.000000,0.724098,-0.113781,0.676600,0.070343,-9.340961,0.184798,-3.065387,-0.029940,-0.074453,-0.052498,35.425884,-15.697751,26.585426,4635727400504133600.000000,0.546637,-0.264880,0.763432,0.219540,-6.936902,-5.730543,3.856078,0.156384,0.025389,0.093334,44.764549,8.861793,7.028438,4635728978956389400.000000,-0.543235,-0.560625,-0.483900,0.395520,0
-9.584984,-1.334123,-0.177422,-0.142694,0.188857,0.156155,42.818225,-3.218409,17.517624,4635731680059981800.000000,0.723446,-0.113815,0.677209,0.071138,-9.232912,0.211153,-3.263354,-0.044936,-0.082955,-0.052339,35.498642,-15.785498,26.693476,4635727384555814900.000000,0.546905,-0.265059,0.763152,0.219630,-5.499972,-6.461499,3.767998,0.316880,-0.076487,-0.207420,44.737907,8.973089,6.930789,4635728888331239400.000000,-0.542280,-0.560806,-0.483700,0.396816,0
-9.860843,-1.063604,-0.198665,-0.113067,0.216009,0.123576,42.836766,-3.251504,17.659397,4635731602121913300.000000,0.722740,-0.113857,0.677892,0.071736,-9.289355,0.020415,-3.327184,-0.030626,-0.097118,-0.035967,35.511337,-15.734009,26.616243,4635727384555814900.000000,0.547218,-0.265139,0.762872,0.219727,-5.537037,-9.862019,5.107164,0.602086,-0.282811,-0.697264,44.591740,9.301899,6.848353,4635728888331239400.000000,-0.540260,-0.560297,-0.483702,0.400273,0
-10.306781,-0.746232,-0.257338,-0.104971,0.164134,0.098976,43.037391,-3.395624,17.783823,4635731572685799400.000000,0.722190,-0.113932,0.678409,0.072266,-9.374799,-0.178512,-3.363803,0.012245,-0.108433,-0.015833,35.365819,-15.577619,26.516779,4635727384555814900.000000,0.547596,-0.265048,0.762627,0.219746,-8.044573,-13.314129,8.119074,0.549554,-0.254404,-1.283753,44.552895,9.717265,6.833131,4635728888331239400.000000,-0.537314,-0.558521,-0.485212,0.404867,0
-10.525919,-0.437726,-0.174463,-0.110880,0.077433,0.081594,43.051188,-3.619666,17.748589,4635731572685799400.000000,0.721887,-0.114055,0.678652,0.072809,-9.491431,0.000350,-3.327668,0.045601,-0.119114,0.007190,35.267677,-15.479475,26.419122,4635727384555814900.000000,0.548024,-0.264797,0.762413,0.219723,-10.339640,-10.544461,2.450922,0.629987,0.082773,-1.449040,44.371705,10.277951,6.764004,4635728888331239400.000000,-0.533198,-0.557137,-0.487707,0.409194,0
-10.541687,-0.097117,0.211201,-0.117099,0.116192,0.038151,42.853927,-3.624626,17.725149,4635731572685799400.000000,0.721484,-0.114331,0.678990,0.073220,-9.530355,0.130166,-3.372383,0.029285,-0.133433,0.020686,35.462858,-15.466780,26.321462,4635727384555814900.000000,0.548467,-0.264528,0.762166,0.219799,-13.234781,0.421956,-5.409287,1.387651,0.072743,-1.185121,44.225519,10.875809,6.819032,4635728888331239400.000000,-0.527767,-0.557927,-0.488250,0.414476,0
-10.650136,-0.141720,0.465812,-0.123990,0.160078,-0.000527,42.724946,-3.486037,17.796010,4635731572685799400.000000,0.720966,-0.114743,0.679440,0.073506,-9.596337,0.063348,-3.516554,0.013814,-0.147476,0.024250,35.644625,-15.466780,26.317347,4635727384555814900.000000,0.548933,-0.264269,0.761877,0.219948,-17.763070,6.153920,-5.273176,1.415219,-0.095085,-1.005715,44.224720,11.330175,6.680649,4635728888331239400.000000,-0.522895,-0.558822,-0.487932,0.419787,0
-10.826542,-0.257318,0.388712,-0.153166,0.032075,-0.002638,42.763496,-3.619629,17.760809,4635731650591032300.000000,0.720796,-0.115215,0.679494,0.073935,-9.929350,0.225478,-3.519365,0.030843,-0.166816,0.032750,35.597294,-15.466780,26.308770,4635727384555814900.000000,0.549472,-0.263927,0.761568,0.220083,-16.969607,3.827770,-2.722660,0.818670,-0.255008,-1.083006,44.272453,11.719679,6.387701,4635728888331239400.000000,-0.519578,-0.557956,-0.488468,0.424408,0
-10.903368,0.108941,0.527806,-0.184351,-0.094401,-0.003875,42.848950,-3.748635,17.808213,4635731680059981800.000000,0.720969,-0.115748,0.679157,0.074512,-10.027225,0.318708,-3.307890,0.033271,-0.185294,0.037818,35.584579,-15.394035,26.306953,4635727384555814900.000000,0.550067,-0.263547,0.761225,0.220242,-13.808323,-3.044772,1.188539,0.514169,-0.072983,-1.077026,44.202437,12.046571,6.155524,4635728888331239400.000000,-0.516595,-0.556748,-0.489908,0.427961,0
-10.851427,0.628308,0.925835,-0.192267,-0.018225,-0.022389,42.872402,-3.586111,17.959001,4635731680059981800.000000,0.720928,-0.116372,0.679039,0.075010,-9.743570,0.578956,-3.198855,0.002203,-0.197994,0.027544,35.657309,-15.454057,26.234225,4635727567330247700.000000,0.550678,-0.263258,0.760811,0.220490,-12.501229,-2.450539,1.680703,0.344920,-0.022795,-1.068357,43.896448,12.413595,6.268380,4635728905041620000.000000,-0.513905,-0.555270,-0.491727,0.431024,0
-10.907677,0.777923,0.801850,-0.222490,0.025238,-0.010241,42.925541,-3.462592,17.864214,4635731680059981800.000000,0.720747,-0.117060,0.679047,0.075603,-9.536744,0.632973,-3.321276,-0.032312,-0.209749,0.021997,35.607657,-15.601923,26.138336,4635727599304179700.000000,0.551292,-0.263055,0.760333,0.220847,-13.049415,-0.402594,0.162243,0.111799,-0.130786,-0.994923,43.675107,12.732039,6.387736,4635728995705421800.000000,-0.512097,-0.553238,-0.493553,0.433693,0
-11.026383,0.683869,0.584060,-0.265691,-0.090292,-0.003204,42.883659,-3.619587,17.615792,4635731680059981800.000000,0.720867,-0.117829,0.678697,0.076403,-9.499171,0.447644,-3.365622,-0.037385,-0.226049,0.016814,35.596786,-15.771031,26.040669,4635727599304179700.000000,0.551957,-0.262865,0.759806,0.221226,-13.784339,0.121274,-0.291645,0.156302,-0.192814,-0.907545,43.588839,13.135966,6.109947,4635728995705421800.000000,-0.510464,-0.551360,-0.494956,0.436402,0
-10.856237,0.390192,0.873623,-0.282367,-0.212070,-0.030324,42.860191,-3.801753,17.683721,4635731680059981800.000000,0.721330,-0.118689,0.677960,0.077232,-9.590930,0.352671,-3.317260,-0.028288,-0.237681,0.014203,35.742343,-15.869157,25.870233,4635727599304179700.000000,0.552670,-0.262651,0.759257,0.221583,-13.394527,-0.309245,0.458160,0.241713,-0.128821,-0.919558,43.554933,13.598758,5.943107,4635728995705421800.000000,-0.508473,-0.549746,-0.496360,0.439160,0
-10.354068,0.124721,1.302098,-0.266305,-0.193360,-0.054537,42.807059,-3.845332,17.737356,4635731680059981800.000000,0.721756,-0.119575,0.677272,0.077934,-9.503259,0.310617,-3.214636,-0.002141,-0.246543,0.015705,35.830071,-15.809055,26.009420,4635727599304179700.000000,0.553438,-0.262364,0.758713,0.221871,-12.897369,-0.393688,0.915803,0.177255,-0.075795,-0.894711,43.480872,13.977972,5.947975,4635728995705421800.000000,-0.506557,-0.548135,-0.497930,0.441603,0
-10.007214,-0.231198,1.371781,-0.233989,-0.121711,-0.056717,42.902071,-3.854188,17.462833,4635731680059981800.000000,0.721994,-0.120395,0.676807,0.078504,-9.381185,0.294788,-2.959215,0.043983,-0.251449,0.018751,35.913713,-15.650825,26.111168,4635727599304179700.000000,0.554269,-0.261956,0.758202,0.222024,-12.188762,-0.181050,0.985335,0.097490,-0.049019,-0.845771,43.459180,14.268805,6.030457,4635728995705421800.000000,-0.504851,-0.546500,-0.499585,0.443710,0
-9.821731,-0.527730,1.248780,-0.197197,-0.088304,-0.065615,43.122714,-3.919514,17.288100,4635731680059981800.000000,0.722158,-0.121144,0.676448,0.078931,-9.311101,0.313769,-2.678473,0.079469,-0.249354,0.012859,36.061528,-15.625476,25.884747,4635727599304179700.000000,0.555136,-0.261487,0.757722,0.222050,-11.736761,-1.212479,0.615816,0.097084,-0.022345,-0.775173,43.395423,14.417188,6.015282,4635729012390035500.000000,-0.503215,-0.545053,-0.501129,0.445602,0
-9.671898,-0.722100,1.146564,-0.155942,-0.053106,-0.084147,43.189793,-3.881023,17.323237,4635731602193404900.000000,0.722250,-0.121830,0.676199,0.079166,-9.281253,0.442121,-2.418525,0.080746,-0.237055,-0.001893,36.157842,-15.625476,25.593616,4635727599304179700.000000,0.555979,-0.261072,0.757254,0.222023,-11.591951,-1.698416,0.497546,0.226494,0.031534,-0.738196,43.369948,14.611885,5.915737,4635729103079604200.000000,-0.501236,-0.544049,-0.502458,0.447559,0
-9.596226,-0.893019,0.946006,-0.121734,-0.041658,-0.106768,43.003864,-3.733587,17.275891,4635731728437644300.000000,0.722334,-0.122477,0.675985,0.079226,-9.236046,0.495066,-2.422024,0.068287,-0.228626,-0.016097,36.097770,-15.625476,25.550095,4635727599304179700.000000,0.556795,-0.260738,0.756779,0.221994,-11.338553,-0.752907,0.369556,0.295319,0.069927,-0.694787,43.249540,15.002522,5.809662,4635729103079604200.000000,-0.499097,-0.543345,-0.503634,0.449478,0
-9.503134,-0.931117,0.569075,-0.121745,-0.076517,-0.093083,42.933437,-3.633517,17.249062,4635731787434164200.000000,0.722512,-0.123069,0.675674,0.079340,-9.249583,0.303041,-2.366917,0.073500,-0.219331,-0.016340,36.012336,-15.552727,25.633237,4635727416478217200.000000,0.557586,-0.260402,0.756328,0.221937,-11.101325,0.418397,0.053847,0.251951,0.073795,-0.637533,43.005401,15.368507,5.737480,4635729103079604200.000000,-0.497150,-0.542674,-0.504765,0.451175,0
-9.472945,-0.830383,0.460527,-0.133494,-0.117610,-0.088550,43.110491,-3.728476,17.319882,4635731787434164200.000000,0.722798,-0.123673,0.675236,0.079526,-9.180457,0.258169,-2.345635,0.068404,-0.199713,-0.010566,36.072387,-15.612779,25.564605,4635727384555814900.000000,0.558304,-0.260077,0.755924,0.221889,-10.493820,0.028950,-0.381745,0.220353,0.080608,-0.586752,42.799156,15.564439,5.737480,4635729103079604200.000000,-0.495352,-0.542053,-0.505851,0.452680,0
-9.349007,-0.926271,0.508145,-0.139047,-0.163035,-0.071908,43.124468,-3.772088,17.205077,4635731787434164200.000000,0.723202,-0.124235,0.674667,0.079803,-9.198937,0.090075,-2.395784,0.070021,-0.189264,-0.005067,36.022730,-15.625476,25.550095,4635727384555814900.000000,0.558986,-0.259740,0.755552,0.221836,-9.872474,-0.754115,-0.819509,0.208272,0.083978,-0.530579,42.799156,15.564439,5.752621,4635729103079604200.000000,-0.493677,-0.541528,-0.506837,0.454034,0
-8.762157,-1.180155,0.604573,-0.130634,-0.140621,-0.039601,42.980433,-3.718984,17.080597,4635731787434164200.000000,0.723537,-0.124686,0.674185,0.080140,-9.162813,-0.126025,-2.332112,0.082319,-0.181629,0.005730,36.074193,-15.552730,25.466957,4635727384555814900.000000,0.559646,-0.259348,0.755219,0.221762,-9.493384,-0.741336,-1.381049,0.185443,0.085104,-0.495753,42.772658,15.625006,5.848388,4635729103079604200.000000,-0.492114,-0.541029,-0.507787,0.455263,0
-8.521991,-1.239663,0.856029,-0.092264,-0.039608,-0.025262,42.871488,-3.698843,17.053741,4635731787434164200.000000,0.723602,-0.125018,0.674027,0.080364,-9.020453,-0.085950,-2.257053,0.067106,-0.170514,0.012024,36.157830,-15.540025,25.535574,4635727384555814900.000000,0.560249,-0.258982,0.754905,0.221738,-9.342449,-0.301679,-1.900950,0.108909,0.062788,-0.469215,42.639610,16.004287,5.905449,4635729103079604200.000000,-0.490819,-0.540384,-0.508774,0.456324,0
-8.490858,-1.268351,0.727551,-0.051163,0.026892,-0.009559,42.971897,-3.751948,17.124549,4635731787434164200.000000,0.723502,-0.125163,0.674099,0.080441,-8.872163,-0.073244,-2.173425,0.046814,-0.152401,0.015545,36.170536,-15.685500,25.716352,4635727567352178700.000000,0.560770,-0.258668,0.754618,0.221766,-9.347938,0.192573,-2.084159,0.007950,0.012470,-0.443745,42.726098,16.272469,5.807791,4635729103079604200.000000,-0.489904,-0.539489,-0.509790,0.457231,0
-8.404494,-1.308328,0.549641,-0.020456,0.048814,0.018959,43.133942,-3.834039,17.222203,4635731787434164200.000000,0.723341,-0.125182,0.674254,0.080549,-8.839977,-0.187530,-2.139931,0.035612,-0.137723,0.022386,36.315990,-15.845993,25.755804,4635727599304179700.000000,0.561225,-0.258373,0.754361,0.221830,-9.248400,0.187417,-1.680503,-0.075416,-0.003054,-0.420505,42.846955,16.283815,5.740400,4635729103079604200.000000,-0.489253,-0.538441,-0.510880,0.457946,0
-8.347732,-1.283005,0.468468,0.000345,0.055436,0.050225,43.124492,-3.857539,17.249062,4635731631771232300.000000,0.723163,-0.125054,0.674453,0.080689,-8.806988,-0.332214,-2.188249,0.035999,-0.120199,0.033500,36.486909,-15.724155,25.258869,4635727599304179700.000000,0.561616,-0.258058,0.754158,0.221900,-9.153663,-0.135303,-1.346289,-0.129729,-0.014878,-0.402665,42.725608,16.368390,5.822931,4635729103079604200.000000,-0.488781,-0.537297,-0.512008,0.458534,0
-8.470380,-1.145694,0.540157,0.026245,0.080613,0.075007,43.042404,-3.795601,17.319847,4635731572685799400.000000,0.722919,-0.124782,0.674750,0.080814,-8.822319,-0.343624,-2.238896,0.045409,-0.104767,0.047068,36.294136,-15.553248,24.922285,4635727599304179700.000000,0.561955,-0.257692,0.754014,0.221955,-9.135786,-0.222644,-1.072209,-0.109953,-0.017318,-0.375224,42.430891,16.528108,5.822931,4635729103079604200.000000,-0.488320,-0.536246,-0.513030,0.459112,0
-8.671152,-1.054435,0.529517,0.056628,0.097465,0.096660,43.080812,-3.710164,17.275951,4635731572685799400.000000,0.722636,-0.124361,0.675119,0.080907,-8.909069,-0.237911,-2.266941,0.042453,-0.087997,0.052771,36.048196,-15.538207,24.951416,4635727599304179700.000000,0.562234,-0.257331,0.753912,0.222014,-9.105853,-0.276842,-0.908867,-0.041516,-0.000241,-0.351573,42.299673,16.748706,5.822931,4635729103079604200.000000,-0.487715,-0.535415,-0.513902,0.459750,0
-8.816758,-0.993397,0.441940,0.086831,0.088795,0.124990,43.042417,-3.810486,17.319832,4635731572685799400.000000,0.722383,-0.123768,0.675487,0.081006,-9.058674,-0.043113,-2.322524,0.018931,-0.071816,0.059771,36.084564,-15.612750,25.213486,4635727599304179700.000000,0.562429,-0.257018,0.753834,0.222147,-9.173426,-0.091857,-0.783026,0.022160,0.006090,-0.338260,42.396450,16.896059,5.851259,4635729103079604200.000000,-0.486978,-0.534754,-0.514634,0.460481,0
-9.044997,-0.923511,0.388511,0.115966,0.078965,0.141259,43.018890,-3.919467,17.284793,4635731572685799400.000000,0.722167,-0.123041,0.675842,0.081082,-9.155034,0.102076,-2.362782,0.004954,-0.056703,0.055430,36.305078,-15.687813,25.267507,4635727599304179700.000000,0.562566,-0.256765,0.753774,0.222297,-9.221388,0.095919,-0.659200,0.083672,0.016188,-0.322898,42.543820,16.956953,6.021159,4635729103079604200.000000,-0.486111,-0.534268,-0.515233,0.461290,0
-9.331203,-0.876814,0.343051,0.140157,0.069168,0.157356,43.018890,-3.881078,17.261269,4635731650482162700.000000,0.721984,-0.122191,0.676184,0.081140,-9.282029,0.018192,-2.389013,0.020475,-0.041750,0.063565,36.414156,-15.626004,25.186219,4635727599304179700.000000,0.562665,-0.256464,0.753771,0.222402,-9.327466,0.231062,-0.649759,0.114403,0.019734,-0.313628,42.578282,16.906375,6.088597,4635729103079604200.000000,-0.485185,-0.533870,-0.515758,0.462138,0
-9.553410,-0.760599,0.250005,0.171099,0.056939,0.173966,42.903918,-3.857539,17.332019,4635731680059981800.000000,0.721846,-0.121194,0.676508,0.081163,-9.457842,0.062320,-2.319944,0.057126,-0.029524,0.071519,36.489213,-15.405535,25.244373,4635727599304179700.000000,0.562758,-0.256064,0.753840,0.222397,-9.486495,0.298638,-0.581181,0.140568,0.031374,-0.322523,42.320953,17.002254,5.992834,4635729103079604200.000000,-0.484158,-0.533528,-0.516276,0.463032,0
-9.784125,-0.569873,0.228578,0.197544,0.035607,0.187668,42.860191,-3.910609,17.500446,4635731680059981800.000000,0.721776,-0.120070,0.676783,0.081163,-9.464379,0.260201,-2.255267,0.077562,-0.020501,0.063546,36.427431,-15.369121,25.340209,4635727599304179700.000000,0.562851,-0.255649,0.753940,0.222299,-10.057470,0.257900,-0.420369,0.116243,0.014041,-0.350100,42.029089,17.225762,5.920590,4635729103079604200.000000,-0.483167,-0.533042,-0.516865,0.463967,0
-10.037105,-0.238538,0.293851,0.222589,0.045865,0.189651,42.975169,-3.930784,17.545401,4635731680059981800.000000,0.721688,-0.118867,0.677097,0.081092,-9.377636,0.469569,-2.214999,0.071022,-0.003775,0.050137,36.425072,-15.576875,25.282063,4635727599304179700.000000,0.562897,-0.255307,0.754059,0.222173,-10.595138,-0.270118,-0.088449,0.108864,0.006506,-0.337758,41.968164,17.443492,5.918704,4635729103079604200.000000,-0.482232,-0.532553,-0.517425,0.464878,0
-10.364172,0.175217,0.184750,0.244353,0.028353,0.189062,43.018890,-3.992684,17.480139,4635731680059981800.000000,0.721659,-0.117597,0.677365,0.080968,-9.311151,0.375878,-2.292624,0.056707,0.008928,0.038071,36.489205,-15.613269,25.186241,4635727599304179700.000000,0.562898,-0.255048,0.754182,0.222049,-10.691000,-1.064120,-0.386257,0.206829,0.026382,-0.304814,42.030090,17.505417,5.908383,4635729103079604200.000000,-0.481100,-0.532368,-0.517760,0.465888,0
-10.709362,0.558282,0.240403,0.239113,-0.020237,0.173586,42.965828,-3.963175,17.385838,4635731680059981800.000000,0.721769,-0.116368,0.677476,0.080835,-9.426676,0.104745,-2.494152,0.073560,0.015225,0.039043,36.572839,-15.540565,25.337845,4635727599304179700.000000,0.562898,-0.254752,0.754335,0.221869,-10.888109,-1.301336,-0.805593,0.228645,0.038462,-0.275409,42.030090,17.505417,5.895186,4635729103079604200.000000,-0.479949,-0.532313,-0.518011,0.466858,0
-10.883137,0.738785,0.537212,0.217196,-0.013584,0.135976,42.821846,-3.881091,17.358927,4635731680059981800.000000,0.721860,-0.115323,0.677579,0.080657,-9.583554,0.009105,-2.661957,0.137797,0.019657,0.060424,36.523270,-15.745933,25.450076,4635727599304179700.000000,0.562931,-0.254243,0.754581,0.221532,-10.965122,-1.038433,-0.661981,0.195455,0.051523,-0.260455,42.041401,17.529924,5.777687,4635729103079604200.000000,-0.478871,-0.532248,-0.518319,0.467697,0
-10.993000,0.777909,0.581730,0.191082,0.006265,0.092183,42.774742,-3.795642,17.420825,4635731680059981800.000000,0.721896,-0.114487,0.677712,0.080412,-9.794138,0.072688,-2.716781,0.195720,0.013026,0.077718,36.501961,-15.784172,25.547714,4635727599304179700.000000,0.563030,-0.253537,0.754883,0.221060,-11.010017,-0.810280,-0.608486,0.165542,0.057264,-0.244183,42.088260,17.701795,5.499807,4635729103079604200.000000,-0.477879,-0.532168,-0.518659,0.468425,0
-11.032128,0.701692,0.269741,0.165926,-0.020267,0.054579,42.898535,-3.833985,17.444380,4635731680059981800.000000,0.722018,-0.113732,0.677753,0.080039,-9.982713,0.230821,-2.732635,0.202199,0.012658,0.080111,36.427451,-15.638803,25.479234,4635727599304179700.000000,0.563135,-0.252807,0.755192,0.220573,-10.758308,-0.608393,-0.600048,0.128005,0.049300,-0.221177,41.981169,17.919571,5.364798,4635729103079604200.000000,-0.477030,-0.532047,-0.519005,0.469044,0
-11.026651,0.600676,0.149855,0.159154,-0.066084,0.023974,42.998694,-4.096256,17.391332,4635731524525888500.000000,0.722266,-0.113155,0.677625,0.079708,-9.854299,0.526360,-2.661765,0.170985,0.017361,0.081020,36.206988,-15.550960,25.288103,4635727599304179700.000000,0.563191,-0.252152,0.755483,0.220182,-10.491737,-0.471416,-0.627323,0.112888,0.049049,-0.200720,41.848861,17.992807,5.573278,4635729103079604200.000000,-0.476256,-0.531940,-0.519333,0.469589,0
-10.828808,0.405790,0.261407,0.150646,-0.068988,0.005193,42.903970,-3.886583,17.424175,4635731465311617000.000000,0.722524,-0.112649,0.677477,0.079337,-9.671240,0.926711,-2.628244,0.115603,0.008167,0.089354,36.180917,-15.674981,25.184448,4635727599304179700.000000,0.563209,-0.251593,0.755711,0.219994,-10.347081,-0.508946,-0.765421,0.096537,0.042891,-0.180018,41.870481,18.079224,5.795662,4635729103079604200.000000,-0.475571,-0.531832,-0.519636,0.470070,0
-10.586772,0.209215,0.358222,0.130388,-0.053555,0.003389,42.267947,-3.117965,17.488577,4635731465311617000.000000,0.722729,-0.112225,0.677366,0.079024,-9.581558,1.061473,-2.655737,0.020516,0.024577,0.085342,36.525344,-15.771393,25.171665,4635727599304179700.000000,0.563080,-0.251284,0.755885,0.220079,-10.080375,-0.482644,-1.020750,0.078871,0.042310,-0.164079,41.906056,18.224749,5.669734,4635729103079604200.000000,-0.474957,-0.531722,-0.519935,0.470483,0
-10.266467,0.026120,0.449137,0.109985,-0.042175,0.010459,41.450121,-2.683133,17.576124,4635731465311617000.000000,0.722889,-0.111847,0.677285,0.078784,-9.601750,0.607058,-2.609303,0.002615,0.031406,0.076208,36.585587,-15.711498,25.254723,4635727599304179700.000000,0.562919,-0.251052,0.756050,0.220192,-9.840977,-0.427186,-1.033789,0.065236,0.034016,-0.154796,41.723854,18.297992,5.432294,4635729103079604200.000000,-0.474410,-0.531588,-0.520225,0.470866,0
-9.930140,-0.086281,0.476089,0.089985,-0.039521,0.014364,41.047639,-2.851011,17.620752,4635731465311617000.000000,0.723031,-0.111519,0.677208,0.078611,-9.596846,0.244636,-2.527511,0.004861,0.035678,0.082945,36.377970,-15.698721,25.352371,4635727599304179700.000000,0.562740,-0.250797,0.756233,0.220309,-9.705793,-0.270377,-0.863866,0.061135,0.033937,-0.147649,41.530563,18.384418,5.475612,4635729103079604200.000000,-0.473886,-0.531462,-0.520506,0.471226,0
-9.662385,-0.260131,0.387698,0.074329,-0.061951,0.027329,41.448725,-2.827076,17.335800,4635731620805722100.000000,0.723224,-0.111195,0.677064,0.078531,-9.460088,0.278353,-2.514725,0.004433,0.039950,0.083475,36.196128,-15.698721,25.522674,4635727599304179700.000000,0.562547,-0.250546,0.756426,0.220424,-9.624965,-0.157819,-0.779385,0.072327,0.038453,-0.142140,41.629266,18.507301,5.728171,4635729103079604200.000000,-0.473337,-0.531378,-0.520761,0.471589,0
-9.480120,-0.502999,0.451237,0.073591,-0.080551,0.035911,41.742146,-2.491620,17.136261,4635731680059981800.000000,0.723467,-0.110842,0.676867,0.078489,-9.322138,0.334499,-2.608149,-0.009352,0.042406,0.078774,36.170536,-15.698721,25.633138,4635727416695902200.000000,0.562336,-0.250344,0.756608,0.220569,-9.502896,-0.259378,-0.787945,0.099613,0.039940,-0.134906,41.747305,18.420845,5.782406,4635729086474287100.000000,-0.472739,-0.531367,-0.520950,0.471994,0
-9.321428,-0.582586,0.541324,0.080184,-0.079744,0.047438,41.618019,-2.733965,17.332360,4635731680059981800.000000,0.723707,-0.110437,0.676680,0.078461,-9.125592,0.196496,-2.718006,-0.002668,0.045450,0.081608,36.170536,-15.636444,25.647755,4635727384555814900.000000,0.562120,-0.250120,0.756805,0.220697,-9.388387,-0.528886,-0.906225,0.140378,0.049882,-0.123488,41.591516,18.286690,5.612528,4635728995705421800.000000,-0.472051,-0.531480,-0.521052,0.472442,0
-9.127398,-0.745021,0.464334,0.081474,-0.088027,0.072148,41.969339,-3.407795,17.375779,4635731680059981800.000000,0.723962,-0.109956,0.676480,0.078509,-8.980345,-0.005542,-2.672183,0.029810,0.046839,0.090421,36.180915,-15.760405,25.564721,4635727384555814900.000000,0.561925,-0.249793,0.757045,0.220741,-9.326456,-0.832991,-0.990687,0.206037,0.060807,-0.111893,41.552229,18.311219,5.543161,4635728995705421800.000000,-0.471217,-0.531768,-0.521021,0.472986,0
-9.061264,-0.743833,0.568644,0.071128,-0.058613,0.088616,42.834673,-3.966854,17.155687,4635731680059981800.000000,0.724124,-0.109469,0.676372,0.078622,-9.001746,-0.005488,-2.598947,0.078836,0.047907,0.100033,36.110097,-15.929463,25.477450,4635727384555814900.000000,0.561768,-0.249323,0.757342,0.220651,-9.298157,-0.894802,-1.021760,0.270766,0.068206,-0.089792,41.664755,18.445387,5.630499,4635728995705421800.000000,-0.470266,-0.532245,-0.520826,0.473609,0
-8.969528,-0.870458,0.551885,0.061108,-0.035106,0.102685,43.104340,-4.101687,17.210706,4635731680059981800.000000,0.724246,-0.108674,0.676388,0.078466,-9.060946,-0.062259,-2.536087,0.117390,0.046251,0.109645,36.097290,-15.882441,25.464643,4635727384555814900.000000,0.561648,-0.248730,0.757681,0.220465,-9.165970,-0.794471,-1.171111,0.312324,0.079208,-0.071149,41.589632,18.456699,5.699867,4635728995705421800.000000,-0.469235,-0.532864,-0.520529,0.474261,0
-8.873971,-0.848243,0.383550,0.085034,-0.039480,0.116092,42.927629,-4.039839,17.331952,4635731680059981800.000000,0.724352,-0.108064,0.676356,0.078603,-9.090856,0.009775,-2.433535,0.121929,0.044114,0.109271,36.097290,-15.869624,25.547662,4635727384555814900.000000,0.561540,-0.248125,0.758018,0.220265,-9.397301,-0.944026,-1.352146,0.333349,0.079946,-0.056092,41.541890,18.543141,5.610645,4635728995705421800.000000,-0.468185,-0.533558,-0.520157,0.474927,0
-8.982878,-0.535207,0.400272,0.096611,-0.064369,0.116541,42.975036,-4.078074,17.297089,4635731680059981800.000000,0.724533,-0.107410,0.676253,0.078721,-9.001116,0.211213,-2.448199,0.088171,0.047426,0.099871,36.035026,-16.014911,25.645324,4635727384555814900.000000,0.561394,-0.247633,0.758321,0.220146,-10.021474,-1.316330,-1.229982,0.332908,0.077888,-0.012055,41.700582,18.677326,5.517746,4635728995705421800.000000,-0.467226,-0.534341,-0.519683,0.475510,0
-9.130637,-0.109287,0.506752,0.087154,-0.057950,0.102994,43.080716,-4.278339,17.273476,4635731680059981800.000000,0.724695,-0.106832,0.676158,0.078828,-9.026150,0.441277,-2.474439,0.034132,0.051698,0.088283,36.013673,-15.895275,25.732587,4635727384555814900.000000,0.561190,-0.247307,0.758573,0.220166,-10.172383,-1.015022,-0.958581,0.285986,0.074533,0.024165,41.821583,18.666023,5.517746,4635728995705421800.000000,-0.466450,-0.535104,-0.519213,0.475927,0
-9.423892,0.171186,0.510629,0.061677,-0.058522,0.080495,42.989522,-4.345836,17.414790,4635731680059981800.000000,0.724854,-0.106394,0.676044,0.078940,-9.209870,0.610977,-2.571487,-0.023391,0.054155,0.073809,36.074095,-15.734736,25.828422,4635727384555814900.000000,0.560931,-0.247163,0.758762,0.220331,-9.911431,-0.894908,-0.655432,0.224865,0.091287,0.043313,41.713526,18.590895,5.519630,4635728995705421800.000000,-0.465811,-0.535821,-0.518854,0.476136,0
-9.804370,0.337914,0.562321,0.022499,-0.069384,0.058248,42.945644,-4.292849,17.327496,4635731680059981800.000000,0.725034,-0.106131,0.675874,0.079097,-9.448504,0.614035,-2.712469,-0.063818,0.044490,0.077921,36.022835,-15.783553,25.760072,4635727384555814900.000000,0.560658,-0.247092,0.758896,0.220644,-9.822213,-0.855277,-0.638552,0.186267,0.093173,0.067385,41.517380,18.518631,5.514884,4635728995705421800.000000,-0.465302,-0.536519,-0.518521,0.476211,0
-10.018392,0.298944,0.621282,-0.010184,-0.059497,0.054658,42.936813,-4.210769,17.202821,4635731680059981800.000000,0.725174,-0.105978,0.675721,0.079327,-9.640774,0.755617,-2.941953,-0.107557,0.031832,0.087213,35.876967,-15.796380,25.662416,4635727384555814900.000000,0.560371,-0.247083,0.758970,0.221130,-9.702946,-0.494799,-0.649787,0.179359,0.089480,0.087923,41.553147,18.507336,5.430412,4635728995705421800.000000,-0.464857,-0.537240,-0.518148,0.476239,0
-10.041236,0.074255,0.608288,-0.032842,-0.043656,0.070227,42.995263,-4.187140,17.246474,4635731680059981800.000000,0.725253,-0.105851,0.675617,0.079659,-9.606015,0.511530,-3.071979,-0.096136,0.029908,0.089564,35.842767,-15.651133,25.647755,4635727567064865800.000000,0.560100,-0.247037,0.759052,0.221588,-9.565926,-0.265596,-0.615105,0.158325,0.091362,0.100815,41.738026,18.432210,5.421969,4635728995705421800.000000,-0.464479,-0.537952,-0.517791,0.476192,0
-9.937343,-0.158960,0.598163,-0.044635,-0.024840,0.095929,43.018890,-4.248957,17.202826,4635731680059981800.000000,0.725266,-0.105695,0.675576,0.080094,-9.553525,0.100808,-2.963991,-0.027576,0.020831,0.106063,35.986166,-15.625476,25.647755,4635727599304179700.000000,0.559913,-0.246770,0.759192,0.221876,-9.612873,0.053454,-0.721205,0.143381,0.077401,0.095390,41.651606,18.373110,5.447352,4635728995705421800.000000,-0.464155,-0.538595,-0.517449,0.476154,0
-9.900204,-0.369855,0.439210,-0.035408,0.007045,0.117519,43.018890,-4.325575,17.246462,4635731680059981800.000000,0.725186,-0.105462,0.675644,0.080555,-9.546189,0.109235,-2.724145,0.016654,0.016504,0.118028,36.011841,-15.770702,25.730740,4635727599304179700.000000,0.559774,-0.246359,0.759376,0.222057,-9.660777,-0.103264,-0.806648,0.148634,0.077971,0.083312,41.541832,18.469840,5.528073,4635728995705421800.000000,-0.463793,-0.539222,-0.517124,0.476150,0
-9.926693,-0.418429,0.157688,0.001473,0.014000,0.125155,42.904103,-4.469451,17.352943,4635731680059981800.000000,0.725099,-0.105100,0.675748,0.080935,-9.442456,0.391780,-2.581896,0.029692,0.018745,0.114187,35.949600,-15.858620,25.745413,4635727416820899800.000000,0.559644,-0.245931,0.759573,0.222185,-9.759358,0.047025,-0.910910,0.137626,0.066554,0.065312,41.713695,18.579629,5.517746,4635728995705421800.000000,-0.463444,-0.539767,-0.516838,0.476181,0
-9.972143,-0.264955,-0.015048,0.045561,-0.030445,0.115226,42.807218,-4.640349,17.250904,4635731680059981800.000000,0.725159,-0.104624,0.675727,0.081187,-9.341129,0.698799,-2.625794,0.011008,0.023765,0.103239,35.938595,-15.869624,25.662427,4635727384555814900.000000,0.559489,-0.245586,0.759752,0.222341,-9.807264,0.310827,-1.131597,0.136065,0.069843,0.020279,41.907058,18.434102,5.517746,4635728995705421800.000000,-0.463003,-0.540218,-0.516664,0.476289,0
-9.879717,-0.083931,0.198359,0.066950,-0.043909,0.099500,42.901715,-4.625846,17.058981,4635731680059981800.000000,0.725271,-0.104124,0.675666,0.081336,-9.326456,0.723910,-2.719766,-0.005227,0.031827,0.092400,36.011191,-15.942220,25.575158,4635727384555814900.000000,0.559302,-0.245321,0.759925,0.222515,-9.913360,0.366241,-1.341846,0.128997,0.078468,-0.046512,41.785903,18.370263,5.519626,4635728995705421800.000000,-0.462426,-0.540529,-0.516669,0.476491,0
-9.742061,0.042828,0.354772,0.067408,0.019068,0.077299,42.998612,-4.487430,16.996086,4635731835355031600.000000,0.725215,-0.103700,0.675786,0.081385,-9.471642,0.606163,-2.755199,-0.021996,0.034020,0.080811,36.024048,-16.027668,25.562302,4635727384555814900.000000,0.559102,-0.245133,0.760075,0.222714,-9.953704,0.543733,-1.061987,0.104592,0.081179,-0.095891,41.517380,18.395645,5.543110,4635728995705421800.000000,-0.461800,-0.540691,-0.516840,0.476729,0
-9.854958,-0.023861,0.042974,0.076267,0.038864,0.058911,42.957095,-4.381701,17.063328,4635731894808346600.000000,0.725113,-0.103304,0.675962,0.081339,-9.569952,0.668918,-2.748503,-0.038178,0.029644,0.074506,36.024048,-16.040527,25.645265,4635727384555814900.000000,0.558905,-0.244999,0.760193,0.222953,-9.761216,0.758722,-0.647924,0.073290,0.080850,-0.128181,41.539931,18.629461,5.600371,4635728995705421800.000000,-0.461181,-0.540722,-0.517144,0.476963,0
-10.071312,-0.211109,-0.094280,0.080884,-0.015140,0.045206,42.942265,-4.472804,17.099192,4635731894808346600.000000,0.725169,-0.102916,0.675969,0.081265,-9.520589,0.683615,-2.757036,-0.046034,0.030655,0.065536,35.878861,-15.967935,25.649592,4635727384555814900.000000,0.558705,-0.244912,0.760297,0.223195,-9.655117,0.555906,-0.587833,0.069430,0.079700,-0.153978,41.639453,18.847292,5.517746,4635728995705421800.000000,-0.460521,-0.540688,-0.517512,0.477240,0
-10.114489,-0.383324,0.202485,0.077317,-0.029069,0.034706,42.883849,-4.516739,17.102571,4635731894808346600.000000,0.725266,-0.102566,0.675929,0.081176,-9.509567,0.642133,-2.821095,-0.046999,0.030069,0.061367,35.718328,-16.027668,25.481829,4635727384555814900.000000,0.558509,-0.244840,0.760394,0.223431,-9.597836,0.075122,-0.616943,0.098845,0.083973,-0.167288,41.469489,18.896121,5.504600,4635728995705421800.000000,-0.459760,-0.540690,-0.517859,0.477596,0
-10.028290,-0.338992,0.290912,0.077383,-0.008168,0.035134,42.860191,-4.516739,17.031959,4635731817170139100.000000,0.725304,-0.102227,0.675950,0.081086,-9.468085,0.520711,-2.852858,-0.034295,0.020834,0.058162,35.767040,-16.040527,25.462806,4635727384555814900.000000,0.558359,-0.244741,0.760478,0.223629,-9.684226,-0.175600,-0.748404,0.134997,0.086767,-0.171561,41.261964,18.799404,5.462340,4635728995705421800.000000,-0.458902,-0.540756,-0.518148,0.478032,0
-9.971387,-0.225758,0.174867,0.079519,-0.008018,0.038634,42.798417,-4.516739,17.004913,4635731787434164200.000000,0.725341,-0.101872,0.675975,0.081001,-9.357046,0.427920,-2.825425,-0.009362,0.014690,0.057680,35.914697,-16.040527,25.464643,4635727384555814900.000000,0.558254,-0.244579,0.760571,0.223752,-9.714267,-0.113641,-0.933370,0.155210,0.080606,-0.178296,41.224378,18.665119,5.655759,4635728995705421800.000000,-0.457998,-0.540834,-0.518400,0.478538,0
-9.934766,-0.248268,0.178406,0.087833,0.003990,0.044155,42.660017,-4.578513,17.004913,4635731787434164200.000000,0.725345,-0.101480,0.676041,0.080903,-9.369770,0.290625,-2.788804,0.017341,0.012071,0.062216,35.731217,-16.185692,25.464643,4635727475758798800.000000,0.558180,-0.244338,0.760687,0.223805,-9.767798,0.031877,-1.115542,0.153408,0.070089,-0.199409,41.369932,18.678245,5.780722,4635728995705421800.000000,-0.457078,-0.540842,-0.518682,0.479103,0
-9.924619,-0.259738,0.160019,0.095426,0.003436,0.040525,42.668993,-4.602191,16.934314,4635731787434164200.000000,0.725355,-0.101076,0.676106,0.080774,-9.333820,0.227097,-2.689990,0.054924,0.009028,0.071184,35.559684,-16.138867,25.537208,4635727491929997300.000000,0.558146,-0.243978,0.760840,0.223762,-9.783754,0.245024,-1.229157,0.127120,0.059656,-0.228325,41.418802,18.774946,5.602281,4635729028688132100.000000,-0.456182,-0.540715,-0.519061,0.479689,0
-9.915794,-0.185757,0.137664,0.091024,-0.016692,0.033820,42.989333,-4.540417,16.907253,4635731787434164200.000000,0.725441,-0.100544,0.676128,0.080481,-9.295362,0.250827,-2.694151,0.078116,0.003104,0.079889,35.597938,-15.991238,25.715930,4635727491929997300.000000,0.558146,-0.243531,0.761010,0.223672,-9.790395,0.432937,-1.322204,0.084975,0.043392,-0.270236,41.309000,18.956109,5.529953,4635729210453786600.000000,-0.455331,-0.540384,-0.519587,0.480300,0
-9.832988,-0.123397,0.107807,0.078618,-0.032765,0.028184,43.157290,-4.454965,16.969028,4635731787434164200.000000,0.725551,-0.100206,0.676074,0.080369,-9.300199,0.370379,-2.718568,0.070295,0.000322,0.082993,35.681555,-16.029477,25.745413,4635727491929997300.000000,0.558144,-0.243090,0.761169,0.223617,-9.605467,0.243411,-1.184175,0.044867,0.024483,-0.284778,41.102325,19.238811,5.558059,4635729210453786600.000000,-0.454582,-0.539907,-0.520189,0.480894,0
-9.802545,-0.056924,0.124131,0.069366,-0.037089,0.015122,43.001110,-4.493054,17.001530,4635731787434164200.000000,0.725673,-0.099932,0.675997,0.080246,-9.250211,0.587590,-2.763715,0.048407,0.000907,0.080594,35.767009,-16.258212,25.672852,4635727400752784400.000000,0.558120,-0.242708,0.761306,0.223625,-9.362051,-0.273156,-1.038596,0.033277,0.030564,-0.301297,41.126681,19.361909,5.713065,4635729177496844300.000000,-0.453812,-0.539383,-0.520863,0.481479,0
-9.767251,-0.063092,0.196045,0.064205,-0.044334,0.011454,42.942260,-4.516739,17.066676,4635731787434164200.000000,0.725815,-0.099682,0.675896,0.080130,-9.292828,0.550025,-2.750351,0.014934,0.001975,0.078297,35.852454,-16.224330,25.742880,4635727475722087400.000000,0.558060,-0.242412,0.761412,0.223733,-9.586479,-0.466804,-0.967231,0.037949,0.039423,-0.312050,41.236685,19.311137,5.698087,4635728995705421800.000000,-0.452990,-0.538862,-0.521567,0.482074,0
-9.718417,-0.126191,0.299153,0.062249,-0.043910,0.021787,42.998592,-4.578510,17.169785,4635731709815981100.000000,0.725951,-0.099410,0.675799,0.080052,-9.343494,0.412767,-2.788119,-0.002175,0.002136,0.077068,35.792809,-16.211432,25.830164,4635727491929997300.000000,0.557984,-0.242160,0.761501,0.223892,-9.771463,-0.290131,-0.915555,0.066939,0.071802,-0.339907,41.064881,19.408722,5.630383,4635728995705421800.000000,-0.451976,-0.538399,-0.522336,0.482711,0
-9.696062,-0.040603,0.311952,0.058092,-0.045814,0.023319,43.018890,-4.655134,17.270821,4635731680059981800.000000,0.726090,-0.099147,0.675695,0.079993,-9.381964,0.421730,-2.754038,-0.011528,-0.000584,0.078720,35.645165,-16.356532,25.770524,4635727491929997300.000000,0.557906,-0.241922,0.761577,0.224087,-9.931211,-0.330577,-0.881864,0.113630,0.091120,-0.358406,40.858177,19.651883,5.728039,4635728995705421800.000000,-0.450776,-0.538021,-0.523087,0.483440,0
-9.789747,0.044122,0.269887,0.058156,-0.059353,0.004672,43.195379,-4.498947,17.218471,4635731680059981800.000000,0.726274,-0.098927,0.675544,0.079877,-9.356407,0.510155,-2.736304,-0.011911,-0.001975,0.081763,35.621204,-16.444507,25.674725,4635727491929997300.000000,0.557829,-0.241674,0.761652,0.224292,-9.860944,-0.302214,-0.690214,0.119315,0.093583,-0.356020,40.869394,19.923361,5.808854,4635728995705421800.000000,-0.449562,-0.537663,-0.523824,0.484170,0
-9.809312,-0.080143,0.335770,0.057204,-0.067949,-0.005225,43.315980,-4.316578,17.038019,4635731680059981800.000000,0.726486,-0.098730,0.675362,0.079732,-9.309419,0.514556,-2.796635,-0.006309,-0.003950,0.086781,35.621204,-16.528119,25.742865,4635727400780502000.000000,0.557759,-0.241395,0.761733,0.224492,-9.651331,-0.523840,-0.685390,0.101327,0.095728,-0.355865,40.918328,19.982632,5.770456,4635728995705421800.000000,-0.448383,-0.537274,-0.524600,0.484854,0
-9.749605,-0.275455,0.392692,0.048119,-0.059393,-0.001777,43.168636,-4.387295,16.989322,4635731680059981800.000000,0.726668,-0.098557,0.675204,0.079623,-9.281315,0.533437,-2.735162,-0.003527,-0.007900,0.083054,35.559025,-16.613573,25.757622,4635727384555814900.000000,0.557707,-0.241117,0.761803,0.224679,-9.711384,-0.697791,-0.852550,0.072488,0.086442,-0.344193,40.821654,19.934591,5.615406,4635728995705421800.000000,-0.447311,-0.536837,-0.525390,0.485474,0
-9.755771,-0.276660,0.394021,0.048722,-0.039331,-0.003860,42.980813,-4.431287,17.063293,4635731680059981800.000000,0.726794,-0.098395,0.675107,0.079498,-9.329429,0.713255,-2.701530,-0.010457,-0.013984,0.075902,35.475434,-16.553959,25.591852,4635727384555814900.000000,0.557675,-0.240873,0.761846,0.224878,-9.825968,-0.562532,-0.970984,0.042996,0.079293,-0.340652,40.687275,20.104488,5.630360,4635729028589006800.000000,-0.446327,-0.536337,-0.526216,0.486036,0
-9.907096,-0.221062,0.355343,0.060240,-0.033113,-0.020782,42.995202,-4.316583,17.081541,4635731680059981800.000000,0.726914,-0.098244,0.675025,0.079284,-9.369744,0.837893,-2.728917,-0.032599,-0.014048,0.066612,35.524667,-16.333829,25.479422,4635727384555814900.000000,0.557629,-0.240710,0.761858,0.225125,-9.876781,-0.507981,-0.938101,0.009557,0.074116,-0.346407,40.685406,20.338296,5.726150,4635729210453786600.000000,-0.445416,-0.535750,-0.527113,0.486547,0
-9.952419,-0.313394,0.218295,0.076440,-0.057043,-0.030563,43.133580,-4.096145,17.139913,4635731680059981800.000000,0.727111,-0.098056,0.674873,0.078995,-9.406366,0.864878,-2.744818,-0.059886,-0.018418,0.055185,35.473589,-16.369404,25.630405,4635727384555814900.000000,0.557581,-0.240642,0.761822,0.225436,-9.792324,-0.569893,-0.918417,-0.026509,0.069189,-0.348707,40.650770,20.543190,5.785433,4635729210453786600.000000,-0.444591,-0.535081,-0.528077,0.486993,0
-9.913746,-0.486343,0.303232,0.099705,-0.063137,-0.037448,43.124653,-4.204881,17.101856,4635731680059981800.000000,0.727337,-0.097820,0.674707,0.078628,-9.453343,0.742419,-2.757025,-0.064995,-0.020133,0.051595,35.524660,-16.454847,25.659962,4635727384555814900.000000,0.557536,-0.240596,0.761774,0.225758,-9.686942,-0.728442,-0.870461,-0.066114,0.061299,-0.348152,40.516373,20.532852,5.713065,4635729210453786600.000000,-0.443872,-0.534322,-0.529105,0.487367,0
-9.917848,-0.519482,0.459878,0.113762,-0.042655,-0.043381,43.104340,-4.510783,17.025226,4635731680059981800.000000,0.727511,-0.097577,0.674603,0.078208,-9.450378,0.668437,-2.789953,-0.057905,-0.020295,0.055804,35.680789,-16.529946,25.659962,4635727384555814900.000000,0.557495,-0.240520,0.761737,0.226066,-9.790338,-1.004609,-0.889273,-0.096536,0.057680,-0.327606,40.540654,20.545927,5.726139,4635729210453786600.000000,-0.443269,-0.533543,-0.530140,0.487642,0
-9.951081,-0.468607,0.403474,0.127234,-0.039880,-0.048721,43.042596,-4.540445,17.066659,4635731680059981800.000000,0.727685,-0.097311,0.674509,0.077735,-9.479607,0.669559,-2.805854,-0.052080,-0.025733,0.054799,35.706654,-16.468519,25.659962,4635727384555814900.000000,0.557478,-0.240429,0.761692,0.226359,-9.784735,-1.170909,-0.873330,-0.108274,0.056863,-0.310277,40.652657,20.618303,5.828398,4635729210453786600.000000,-0.442728,-0.532779,-0.531159,0.487861,0
-9.917139,-0.513417,0.330940,0.146818,-0.070214,-0.054062,42.957146,-4.340330,17.019802,4635731680059981800.000000,0.727953,-0.096985,0.674328,0.077197,-9.454076,0.629973,-2.807703,-0.053990,-0.028516,0.050850,35.571992,-16.528090,25.659962,4635727384555814900.000000,0.557471,-0.240352,0.761634,0.226652,-9.766780,-1.225482,-0.879638,-0.131444,0.051033,-0.287018,40.480055,20.627635,6.008766,4635729210453786600.000000,-0.442299,-0.532010,-0.532161,0.487998,0
-9.750275,-0.572403,0.467322,0.169722,-0.071919,-0.056315,42.995174,-4.334327,16.851595,4635731680059981800.000000,0.728235,-0.096603,0.674147,0.076596,-9.562475,0.674371,-2.849137,-0.064446,-0.032466,0.046577,35.475447,-16.613542,25.577092,4635727384555814900.000000,0.557470,-0.240309,0.761553,0.226972,-9.826102,-1.135593,-1.088325,-0.154603,0.041998,-0.269853,40.222384,20.716667,6.091494,4635729210453786600.000000,-0.441974,-0.531218,-0.533155,0.488070,0
-9.639764,-0.709421,0.533737,0.200166,-0.040582,-0.050439,42.957157,-4.358043,16.656283,4635731680059981800.000000,0.728439,-0.096122,0.674073,0.075915,-9.644964,0.725049,-2.929043,-0.082540,-0.039457,0.042305,35.535017,-16.698994,25.479433,4635727384555814900.000000,0.557478,-0.240315,0.761434,0.227346,-9.738787,-0.829403,-1.111729,-0.192287,0.028942,-0.249130,40.306825,20.947748,6.104557,4635729210453786600.000000,-0.441804,-0.530374,-0.534154,0.488049,0
-9.672348,-0.845049,0.431298,0.227877,-0.019877,-0.037263,42.933437,-4.119930,16.804905,4635731524919557100.000000,0.728591,-0.095526,0.674075,0.075187,-9.531782,0.691020,-2.973053,-0.086358,-0.048745,0.040752,35.620452,-16.639443,25.464643,4635727384555814900.000000,0.557512,-0.240326,0.761288,0.227739,-9.637408,-0.643091,-1.200902,-0.255301,0.008649,-0.243300,40.406676,21.069131,6.163892,4635729210453786600.000000,-0.441828,-0.529386,-0.535231,0.487921,0
-9.692678,-0.852476,0.240714,0.255056,-0.047660,-0.029254,43.048083,-3.843244,17.076856,4635731465311617000.000000,0.728843,-0.094686,0.674022,0.074279,-9.395655,0.611125,-2.906116,-0.076553,-0.054734,0.044214,35.778390,-16.771463,25.392154,4635727384555814900.000000,0.557572,-0.240297,0.761141,0.228114,-9.547036,-0.851968,-1.312634,-0.311632,-0.010830,-0.233613,40.246116,21.045220,6.061656,4635729210453786600.000000,-0.442039,-0.528274,-0.536363,0.487690,0
-9.657411,-0.868761,0.262463,0.291309,-0.072160,-0.010799,43.092133,-3.833806,17.151402,4635731465311617000.000000,0.729158,-0.093789,0.673896,0.073454,-9.292430,0.536021,-2.789585,-0.059364,-0.060075,0.044862,35.938953,-16.859529,25.296336,4635727384555814900.000000,0.557665,-0.240221,0.760998,0.228441,-9.613840,-1.433505,-1.427245,-0.323354,-0.023989,-0.218896,40.103183,21.325313,5.926007,4635729210453786600.000000,-0.442334,-0.527146,-0.537461,0.487435,0
-9.617400,-0.764324,0.354690,0.326971,-0.063793,-0.000416,43.092133,-3.919252,16.878104,4635731465311617000.000000,0.729459,-0.092763,0.673809,0.072564,-9.267272,0.452435,-2.657179,-0.051176,-0.060884,0.048486,35.890528,-16.798148,25.281532,4635727475633855500.000000,0.557766,-0.240114,0.760865,0.228752,-9.601431,-1.718556,-1.489303,-0.290519,-0.028659,-0.211258,40.115388,21.351994,6.134319,4635729210453786600.000000,-0.442582,-0.526085,-0.538466,0.487247,0
-9.642495,-0.640883,0.246173,0.366555,-0.077264,0.000297,43.092133,-3.828369,16.702435,4635731465311617000.000000,0.729810,-0.091622,0.673690,0.071583,-9.255064,0.429111,-2.564311,-0.047485,-0.058166,0.052759,35.742936,-16.723046,25.364377,4635727491929997300.000000,0.557857,-0.239987,0.760746,0.229058,-9.706748,-1.576210,-1.446478,-0.242362,-0.038707,-0.203039,40.112702,21.166601,6.372264,4635729210453786600.000000,-0.442762,-0.525110,-0.539336,0.487174,0
-9.700133,-0.619186,0.274657,0.400493,-0.102896,-0.002314,43.092133,-3.660879,16.807543,4635731465311617000.000000,0.730251,-0.090324,0.673507,0.070450,-9.315346,0.437615,-2.478857,-0.046092,-0.053149,0.057938,35.718861,-16.784424,25.462037,4635727491929997300.000000,0.557929,-0.239846,0.760645,0.229367,-9.692891,-1.204197,-1.193639,-0.203383,-0.033855,-0.197607,40.014219,21.264047,6.344339,4635729210453786600.000000,-0.442857,-0.524227,-0.540122,0.487166,0
-9.673021,-0.534432,0.349258,0.422212,-0.110019,-0.010917,43.030432,-3.675094,16.787907,4635731465311617000.000000,0.730714,-0.089036,0.673297,0.069291,-9.409282,0.429113,-2.486602,-0.055895,-0.041468,0.065995,35.718861,-16.859507,25.394026,4635727491929997300.000000,0.557946,-0.239713,0.760569,0.229714,-9.515605,-0.963569,-1.088548,-0.187506,-0.030579,-0.196468,39.858218,21.471778,6.218921,4635729210453786600.000000,-0.442911,-0.523383,-0.540880,0.487185,0
-9.673685,-0.500504,0.410295,0.443456,-0.108477,-0.016200,43.006683,-3.875135,16.707878,4635731465311617000.000000,0.731179,-0.087697,0.673094,0.068055,-9.486240,0.375489,-2.511018,-0.054056,-0.031368,0.074541,35.718861,-16.870632,25.296359,4635727491929997300.000000,0.557925,-0.239558,0.760527,0.230064,-9.309254,-0.933932,-0.953222,-0.180720,-0.020478,-0.190293,39.822181,21.522696,6.412379,4635729210453786600.000000,-0.442940,-0.522585,-0.541628,0.487184,0
-9.618784,-0.465254,0.347947,0.473594,-0.100172,-0.014006,43.182933,-3.942991,16.608208,4635731465311617000.000000,0.731636,-0.086191,0.672931,0.066659,-9.404183,0.252339,-2.442254,-0.034384,-0.021755,0.091239,35.656745,-16.870632,25.281532,4635727491929997300.000000,0.557877,-0.239314,0.760543,0.230382,-9.500034,-1.197954,-0.909743,-0.154179,-0.008311,-0.190385,39.965177,21.460615,6.552701,4635729210453786600.000000,-0.442883,-0.521860,-0.542344,0.487217,0
-9.612644,-0.222543,0.343831,0.502081,-0.092575,-0.005878,43.312519,-3.705048,16.639342,4635731465311617000.000000,0.732069,-0.084644,0.672792,0.065278,-9.283965,0.283705,-2.336098,-0.008330,-0.009424,0.106679,35.511033,-17.088040,25.281532,4635727491929997300.000000,0.557801,-0.238972,0.760628,0.230640,-9.610697,-1.326083,-1.031805,-0.130010,-0.001068,-0.185858,39.930663,21.484782,6.455052,4635729210453786600.000000,-0.442765,-0.521204,-0.543014,0.487279,0
-9.698742,-0.063785,0.380451,0.517217,-0.077685,-0.009373,43.274598,-3.437150,16.583796,4635731620330354700.000000,0.732465,-0.083057,0.672698,0.063831,-9.255067,0.355094,-2.267643,0.006598,-0.001136,0.117104,35.341982,-17.126987,25.364355,4635727491929997300.000000,0.557703,-0.238571,0.760757,0.230867,-9.771500,-1.255256,-1.101826,-0.116265,0.000071,-0.185532,39.796135,21.630465,6.387137,4635729210453786600.000000,-0.442616,-0.520576,-0.543657,0.487370,0
-9.694058,-0.027812,0.364205,0.527897,-0.075718,0.010607,43.250832,-3.307569,16.623723,4635731680059981800.000000,0.732849,-0.081380,0.672617,0.062411,-9.253212,0.449034,-2.248018,0.004922,0.009058,0.121282,35.316017,-16.992417,25.379192,4635727491929997300.000000,0.557567,-0.238170,0.760912,0.231099,-9.811839,-1.429624,-0.922990,-0.112920,0.008686,-0.182095,39.820299,21.705568,6.497806,4635729210453786600.000000,-0.442446,-0.519979,-0.544302,0.487442,0
-9.618792,0.072509,0.424505,0.537037,-0.059174,0.004578,43.312508,-3.345470,16.791878,4635731680059981800.000000,0.733188,-0.079699,0.672584,0.060944,-9.211816,0.619114,-2.297906,-0.012027,0.020642,0.121769,35.388460,-16.968290,25.296401,4635727400903485400.000000,0.557378,-0.237817,0.761078,0.231375,-9.861724,-1.677458,-0.990391,-0.096737,0.021525,-0.172390,39.967833,21.766862,6.638174,4635729194115077100.000000,-0.442231,-0.519459,-0.544915,0.487505,0
-9.727194,0.101055,0.575037,0.540186,-0.024583,-0.028825,43.274601,-3.307562,16.978391,4635731680059981800.000000,0.733436,-0.078110,0.672642,0.059354,-9.235431,0.729789,-2.462444,-0.030349,0.030581,0.119958,35.401470,-17.175283,25.281532,4635727384555814900.000000,0.557140,-0.237523,0.761247,0.231694,-9.821654,-1.473647,-1.105568,-0.079159,0.023569,-0.167467,40.014278,21.678758,6.527512,4635729135757022200.000000,-0.441984,-0.518988,-0.545486,0.487593,0
-9.645987,0.018373,0.305434,0.558212,-0.037011,-0.051084,43.189164,-3.345458,16.967661,4635731680059981800.000000,0.733725,-0.076530,0.672656,0.057655,-9.292747,0.786046,-2.686934,-0.049412,0.036572,0.118727,35.401470,-17.212439,25.447110,4635727384555814900.000000,0.556865,-0.237282,0.761410,0.232065,-9.633768,-1.312828,-0.930683,-0.058865,0.031858,-0.158597,39.845235,21.546860,6.374122,4635729317827969000.000000,-0.441691,-0.518590,-0.546011,0.487694,0
-9.647878,-0.346979,0.297638,0.580467,-0.047472,-0.056315,43.103709,-3.307575,16.802920,4635731680059981800.000000,0.734048,-0.074900,0.672637,0.055887,-9.374480,0.679649,-2.856780,-0.046001,0.038291,0.123092,35.463559,-17.140000,25.476851,4635727384555814900.000000,0.556583,-0.237021,0.761584,0.232433,-9.520704,-1.289202,-0.864084,-0.034999,0.045487,-0.148079,39.723675,21.643440,6.397465,4635729317827969000.000000,-0.441337,-0.518287,-0.546490,0.487800,0
-9.721118,-0.546562,0.368235,0.609537,-0.023401,-0.045050,43.141590,-3.107609,16.739748,4635731680059981800.000000,0.734305,-0.073154,0.672698,0.054065,-9.449576,0.586770,-2.891294,-0.009553,0.023062,0.128432,35.692002,-17.054556,25.394074,4635727384555814900.000000,0.556381,-0.236644,0.761764,0.232714,-9.582811,-1.338031,-0.799835,0.009120,0.062346,-0.138628,39.796135,21.800280,6.497765,4635729317827969000.000000,-0.440869,-0.518121,-0.546890,0.487952,0
-9.811977,-0.582557,0.202255,0.653142,-0.047029,-0.030570,43.341553,-2.916321,16.859672,4635731680059981800.000000,0.734639,-0.071146,0.672705,0.052080,-9.398649,0.563400,-2.872458,0.025770,0.017578,0.137395,35.803506,-17.248498,25.389540,4635727475576439800.000000,0.556222,-0.236151,0.761973,0.232908,-9.584667,-1.377581,-0.923762,0.053263,0.072284,-0.130083,39.785000,21.924496,6.667882,4635729317827969000.000000,-0.440300,-0.518076,-0.547199,0.488167,0
-9.900828,-0.621190,0.231177,0.702750,-0.097584,-0.012059,43.524040,-2.815887,16.836784,4635731680059981800.000000,0.735114,-0.068997,0.672560,0.050107,-9.397839,0.675345,-2.837702,0.059040,0.011659,0.141575,35.754447,-17.430526,25.391399,4635727491929997300.000000,0.556111,-0.235562,0.762206,0.233012,-9.613566,-1.343119,-1.041339,0.082247,0.081761,-0.120890,39.698779,21.924496,6.752548,4635729317827969000.000000,-0.439665,-0.518124,-0.547446,0.488411,0
-9.898196,-0.502670,0.532793,0.727517,-0.099825,-0.001785,43.506567,-2.672188,16.598211,4635731602589264900.000000,0.735593,-0.066741,0.672410,0.048097,-9.358314,0.809636,-2.790731,0.081290,0.003439,0.140253,35.598423,-17.394507,25.308625,4635727491929997300.000000,0.556048,-0.234917,0.762439,0.233050,-9.711529,-1.234498,-1.069463,0.081111,0.078718,-0.108559,39.562339,21.924496,6.733227,4635729317827969000.000000,-0.439064,-0.518192,-0.547664,0.488636,0
-9.879190,-0.398830,0.617170,0.738617,-0.060387,0.000000,43.421120,-2.633399,16.446158,4635731572685799400.000000,0.735957,-0.064457,0.672378,0.046052,-9.288796,0.861140,-2.731560,0.082573,0.001231,0.136306,35.355113,-17.238503,25.448925,4635727400931215400.000000,0.555997,-0.234280,0.762663,0.233077,-9.665635,-1.418379,-1.138690,0.073797,0.075771,-0.098459,39.564968,21.913369,6.567583,4635729317827969000.000000,-0.438506,-0.518263,-0.547869,0.488832,0
-9.928633,-0.387237,0.443032,0.773661,-0.057787,-0.007706,43.397320,-2.627992,16.489415,4635731572685799400.000000,0.736317,-0.062089,0.672351,0.043887,-9.277626,0.897762,-2.670524,0.075911,0.001068,0.129318,35.181527,-17.212439,25.714797,4635727384555814900.000000,0.555947,-0.233680,0.762874,0.233109,-9.590224,-1.641352,-1.305104,0.068848,0.068457,-0.085480,39.613348,21.862371,6.567583,4635729317827969000.000000,-0.438002,-0.518339,-0.548042,0.489008,0
-9.860961,-0.469902,0.369622,0.821606,-0.102026,-0.003746,43.335668,-2.386796,16.639919,4635731572685799400.000000,0.736805,-0.059550,0.672192,0.041606,-9.287972,1.037839,-2.537068,0.061192,0.000163,0.118220,35.229741,-17.429693,25.436913,4635727384555814900.000000,0.555896,-0.233148,0.763058,0.233163,-9.622376,-1.685386,-1.339432,0.075458,0.063831,-0.070297,39.452797,21.959706,6.567583,4635729334128021500.000000,-0.437525,-0.518453,-0.548160,0.489182,0
-9.659662,-0.544529,0.595156,0.856094,-0.107480,0.001243,43.373504,-2.118889,16.678715,4635731572685799400.000000,0.737306,-0.056884,0.672015,0.039237,-9.320870,1.010317,-2.483689,0.043359,0.002716,0.109186,35.253120,-17.603286,25.224010,4635727384555814900.000000,0.555828,-0.232689,0.763221,0.233251,-9.576163,-1.739337,-1.148912,0.101741,0.069659,-0.048515,39.344897,22.145319,6.567583,4635729425202151400.000000,-0.437022,-0.518676,-0.548188,0.489363,0
-9.568603,-0.156493,0.833306,0.868754,-0.058153,-0.023289,43.450151,-1.989206,16.534426,4635731650136452100.000000,0.737667,-0.054255,0.671977,0.036746,-9.388521,0.949286,-2.478103,0.035159,0.007730,0.103357,35.244638,-17.493015,25.433997,4635727384555814900.000000,0.555741,-0.232272,0.763381,0.233345,-9.594264,-1.646902,-0.950326,0.134239,0.079175,-0.030520,39.587169,22.083193,6.552770,4635729425202151400.000000,-0.436464,-0.519019,-0.548128,0.489565,0
-9.637639,-0.044024,0.741460,0.873622,-0.042901,-0.037735,43.417735,-2.027025,16.418361,4635731680059981800.000000,0.737978,-0.051661,0.671975,0.034200,-9.472108,0.991690,-2.571199,0.025130,0.013976,0.100732,35.377246,-17.396387,25.559603,4635727384555814900.000000,0.555628,-0.231893,0.763544,0.233460,-9.501406,-1.729405,-0.934415,0.181885,0.094615,-0.013106,39.770966,22.118375,6.455110,4635729408914983900.000000,-0.435803,-0.519519,-0.547961,0.489811,0
-9.729879,-0.307499,0.595592,0.881745,-0.059198,-0.026428,43.397320,-1.998030,16.385741,4635731680059981800.000000,0.738325,-0.049010,0.671916,0.031673,-9.464464,0.856191,-2.660377,0.016258,0.024910,0.105836,35.546285,-17.383343,25.502102,4635727384555814900.000000,0.555466,-0.231528,0.763728,0.233604,-9.422667,-1.802590,-0.901497,0.231373,0.112449,0.005796,39.663301,22.315134,6.401884,4635729317827969000.000000,-0.435032,-0.520188,-0.547684,0.490096,0
-9.709703,-0.473264,0.614355,0.885197,-0.039740,-0.001337,43.450133,-1.915982,16.382336,4635731602635103200.000000,0.738604,-0.046282,0.671914,0.029210,-9.336625,0.716333,-2.714792,0.033054,0.022179,0.114055,35.427575,-17.383343,25.395974,4635727384555814900.000000,0.555321,-0.231096,0.763930,0.233717,-9.647165,-1.535931,-0.907779,0.266357,0.127012,0.022398,39.466534,22.280007,6.552793,4635729317827969000.000000,-0.434186,-0.520987,-0.547324,0.490399,0
