Accelerometer-X,Accelerometer-Y,Accelerometer-Z,Gyroscope-X,Gyroscope-Y,Gyroscope-Z,Magnetometer-X,Magnetometer-Y,Magnetometer-Z,Barometer-pressure,Orientation-S,Orientation-X,Orientation-Y,Orientation-Z,Accelerometer-X,Accelerometer-Y,Accelerometer-Z,Gyroscope-X,Gyroscope-Y,Gyroscope-Z,Magnetometer-X,Magnetometer-Y,Magnetometer-Z,Barometer-pressure,Orientation-S,Orientation-X,Orientation-Y,Orientation-Z,Accelerometer-X,Accelerometer-Y,Accelerometer-Z,Gyroscope-X,Gyroscope-Y,Gyroscope-Z,Magnetometer-X,Magnetometer-Y,Magnetometer-Z,Barometer-pressure,Orientation-S,Orientation-X,Orientation-Y,Orientation-Z,jump
-9.790958,-0.126272,0.797915,-0.126429,-0.010790,0.000000,43.555393,2.489689,15.186009,4635731894808346600.000000,-0.748525,-0.023240,-0.659489,0.065150,-9.486385,1.180418,-1.998118,-0.041828,-0.011068,-0.065157,36.597794,-22.083193,18.652912,4635727384555814900.000000,0.497067,-0.329242,0.720322,0.354485,-9.701533,-1.178615,-0.655848,-0.016316,-0.009320,-0.014954,39.246803,23.051879,2.663617,4635729425202151400.000000,-0.394002,-0.543185,-0.471684,0.572038,0
-9.851375,-0.191744,0.738109,-0.121822,-0.026054,0.000313,43.541445,2.407826,15.186009,4635731894808346600.000000,-0.748595,-0.022889,-0.659453,0.064833,-9.521774,0.971676,-2.031558,-0.034307,-0.016471,-0.062016,36.669598,-22.221670,18.652912,4635727384555814900.000000,0.497166,-0.329483,0.720147,0.354480,-9.696032,-1.198471,-0.659200,-0.015248,-0.009613,-0.014954,39.361898,23.071993,2.769601,4635729425202151400.000000,-0.394001,-0.543107,-0.471730,0.572074,0
-9.797758,-0.183111,0.831316,-0.130237,-0.031755,0.002945,43.653675,2.356029,15.186009,4635731894808346600.000000,-0.748682,-0.022518,-0.659401,0.064485,-9.496130,0.845490,-2.033508,-0.019802,-0.016642,-0.056334,36.768700,-22.515368,18.658041,4635727249220277200.000000,0.497275,-0.329679,0.719999,0.354445,-9.692678,-1.217386,-0.668052,-0.016503,-0.009613,-0.013405,39.414351,23.071993,2.961553,4635729425202151400.000000,-0.395368,-0.541905,-0.473068,0.571165,0
-9.643242,-0.190260,0.930731,-0.139355,-0.016282,0.007477,43.657249,2.331007,15.214605,4635731894808346600.000000,-0.748728,-0.022136,-0.659399,0.064096,-9.491506,0.979545,-2.021301,-0.007262,-0.017817,-0.054924,36.666136,-22.590274,18.701017,4635727062433267700.000000,0.497410,-0.329828,0.719875,0.354367,-9.666117,-1.158764,-0.680261,-0.020964,-0.008839,-0.013592,39.240631,23.125115,2.944399,4635729425202151400.000000,-0.395383,-0.541822,-0.473126,0.571186,0
-9.589960,-0.193230,0.850341,-0.142506,-0.014251,0.009666,43.665882,2.270577,15.312261,4635731894808346600.000000,-0.748724,-0.022228,-0.659388,0.064235,-9.513473,1.130161,-1.993712,-0.007798,-0.017154,-0.056441,36.519424,-22.390570,18.750572,4635727062433267700.000000,0.497545,-0.329984,0.719751,0.354286,-9.638350,-1.170701,-0.683615,-0.023980,-0.010869,-0.010787,39.111585,23.145237,2.855598,4635729425202151400.000000,-0.395415,-0.541735,-0.473181,0.571200,0
-9.607226,-0.165842,0.813431,-0.141308,-0.015605,0.014016,43.712331,2.317026,15.352744,4635731894808346600.000000,-0.748770,-0.021857,-0.659388,0.063820,-9.474898,1.061553,-1.980774,-0.021577,-0.011023,-0.056783,36.584126,-22.205997,18.709553,4635727062433267700.000000,0.497641,-0.330180,0.719617,0.354239,-9.622789,-1.290337,-0.701318,-0.023018,-0.011750,-0.007290,39.203177,23.092128,2.832118,4635729425202151400.000000,-0.395454,-0.541654,-0.473225,0.571213,0
-9.635810,-0.175965,0.866129,-0.144877,-0.002709,0.011124,43.774556,2.454284,15.255085,4635731894808346600.000000,-0.748780,-0.021475,-0.659429,0.063407,-9.476120,1.017611,-1.981505,-0.023734,-0.008994,-0.055544,36.714011,-22.156437,18.570875,4635727062433267700.000000,0.497720,-0.330395,0.719479,0.354208,-9.663689,-1.312905,-0.716881,-0.020882,-0.013299,-0.004085,39.255654,23.071993,2.894076,4635729425202151400.000000,-0.395500,-0.541580,-0.473254,0.571228,0
-9.744184,-0.151551,0.780681,-0.152927,-0.002683,0.011489,43.607231,2.464709,15.161002,4635731894808346600.000000,-0.748791,-0.021064,-0.659472,0.062967,-9.466600,1.074252,-1.912171,-0.019953,-0.009165,-0.055544,36.725732,-22.156437,18.457594,4635727062433267700.000000,0.497803,-0.330603,0.719346,0.354168,-9.689321,-1.368143,-0.675986,-0.017972,-0.012337,-0.001656,39.197058,23.125094,2.917569,4635729269513452500.000000,-0.395543,-0.541517,-0.473272,0.571242,0
-9.832023,-0.127138,0.727381,-0.156887,-0.013000,0.015710,43.473545,2.225946,15.104130,4635731894808346600.000000,-0.748831,-0.020650,-0.659483,0.062504,-9.449744,1.017867,-1.865777,-0.023328,-0.006303,-0.055095,36.785764,-22.228199,18.580615,4635727062433267700.000000,0.497883,-0.330800,0.719224,0.354119,-9.683828,-1.329696,-0.623801,-0.010896,-0.008652,-0.000294,39.173557,23.145237,2.855621,4635729210453786600.000000,-0.395566,-0.541478,-0.473277,0.571260,0
-9.804036,-0.113439,0.762512,-0.159779,-0.016022,0.014642,43.468171,1.915972,15.169920,4635731894808346600.000000,-0.748880,-0.020224,-0.659486,0.062036,-9.495408,0.909204,-1.885068,-0.022773,-0.003204,-0.051335,36.963289,-22.327341,18.750572,4635727062433267700.000000,0.497940,-0.331007,0.719106,0.354085,-9.733569,-1.253094,-0.592671,-0.008545,-0.006703,-0.000774,39.288603,22.977091,2.832118,4635729210453786600.000000,-0.395578,-0.541446,-0.473280,0.571279,0
-9.778130,-0.132784,0.823539,-0.162227,-0.012898,0.014511,43.605420,1.926927,15.275953,4635731894808346600.000000,-0.748919,-0.019790,-0.659499,0.061562,-9.504437,0.846205,-1.917799,-0.018050,-0.002307,-0.045203,36.905113,-22.219606,18.709530,4635727062433267700.000000,0.497992,-0.331186,0.719006,0.354048,-9.736018,-1.206402,-0.594804,-0.007771,-0.005635,-0.002617,39.217220,23.081421,2.761328,4635729210453786600.000000,-0.395583,-0.541415,-0.473287,0.571300,0
-9.785270,-0.169406,0.856015,-0.165432,-0.006590,0.017272,43.662312,2.149654,15.112535,4635731894808346600.000000,-0.748942,-0.019356,-0.659531,0.061070,-9.502490,0.869198,-1.963445,-0.014954,-0.001966,-0.040481,36.684668,-22.004292,18.647782,4635727062433267700.000000,0.498041,-0.331344,0.718918,0.354010,-9.711606,-1.178631,-0.633552,-0.010574,-0.006115,-0.003204,38.996613,23.198320,2.805236,4635729210453786600.000000,-0.395593,-0.541376,-0.473301,0.571318,0
-9.795404,-0.206029,0.822963,-0.167699,-0.013362,0.020920,43.632254,2.245586,14.933800,4635731894808346600.000000,-0.748984,-0.018923,-0.659543,0.060561,-9.504438,0.991266,-2.008377,-0.015403,-0.005449,-0.037834,36.621494,-21.948196,18.722779,4635727152671901700.000000,0.498097,-0.331487,0.718827,0.353982,-9.669499,-1.216145,-0.673533,-0.009427,-0.005635,-0.004753,39.053263,22.997311,2.832118,4635729210453786600.000000,-0.395596,-0.541338,-0.473317,0.571339,0
-9.753142,-0.242650,0.805689,-0.168324,-0.025555,0.022431,43.580429,2.138720,15.088570,4635731863410352100.000000,-0.749060,-0.018488,-0.659516,0.060046,-9.507616,1.031275,-2.055972,-0.015125,-0.008545,-0.038453,36.676168,-22.100303,18.841151,4635727277181632500.000000,0.498169,-0.331616,0.718734,0.353949,-9.664903,-1.303722,-0.683615,-0.006223,-0.005341,-0.003018,39.215322,22.913296,2.761343,4635729210453786600.000000,-0.395595,-0.541309,-0.473321,0.571363,0
-9.674835,-0.293543,0.837806,-0.166713,-0.029366,0.022743,43.605410,2.001449,15.270896,4635731787434164200.000000,-0.749146,-0.018059,-0.659477,0.059534,-9.526902,0.993928,-2.042539,-0.019719,-0.007648,-0.039799,36.719143,-22.313679,18.766184,4635727277181632500.000000,0.498234,-0.331760,0.718634,0.353925,-9.677110,-1.286373,-0.692461,-0.006115,-0.006115,-0.002910,39.250164,23.081386,2.592909,4635729210453786600.000000,-0.395596,-0.541279,-0.473324,0.571388,0
-9.631641,-0.350446,0.926261,-0.155719,-0.015923,0.022562,43.712274,1.915997,15.210424,4635731787434164200.000000,-0.749164,-0.018002,-0.659467,0.059434,-9.513467,1.047166,-2.034737,-0.034055,-0.004165,-0.043004,36.835373,-22.305088,18.611882,4635727277181632500.000000,0.498278,-0.331937,0.718522,0.353925,-9.698162,-1.234187,-0.669285,-0.012601,-0.008731,-0.003204,39.237955,23.207157,2.539140,4635729210453786600.000000,-0.395616,-0.541231,-0.473339,0.571408,0
-9.653050,-0.334671,0.912927,-0.144594,-0.007526,0.019046,43.803169,1.834116,15.238970,4635731787434164200.000000,-0.749187,-0.017632,-0.659491,0.058987,-9.505665,1.121130,-2.078436,-0.044072,-0.001068,-0.048003,36.855601,-22.053874,18.514227,4635727186968766500.000000,0.498295,-0.332179,0.718382,0.353957,-9.713730,-1.220740,-0.685733,-0.017276,-0.011935,-0.003204,39.305347,23.177623,2.671804,4635729210453786600.000000,-0.395653,-0.541168,-0.473360,0.571425,0
-9.719156,-0.306690,0.832166,-0.135918,-0.011881,0.016647,43.701388,1.828659,15.308084,4635731787434164200.000000,-0.749221,-0.017282,-0.659499,0.058573,-9.528855,1.078888,-2.099673,-0.045033,-0.000620,-0.051891,36.684709,-21.912289,18.457594,4635727062433267700.000000,0.498315,-0.332435,0.718237,0.353984,-9.717093,-1.264960,-0.678134,-0.018932,-0.011270,-0.004752,39.394161,23.095537,2.934504,4635729210453786600.000000,-0.397038,-0.539981,-0.474666,0.570503,0
-9.743012,-0.284338,0.895268,-0.129197,-0.006179,0.018471,43.580429,1.940977,15.251000,4635731787434164200.000000,-0.749238,-0.016964,-0.659522,0.058176,-9.511520,0.980498,-2.079164,-0.039756,-0.002243,-0.049477,36.590714,-21.948180,18.498612,4635727062433267700.000000,0.498352,-0.332653,0.718108,0.353990,-9.699406,-1.299465,-0.662563,-0.016905,-0.009908,-0.007662,39.293892,23.071993,2.882570,4635729210453786600.000000,-0.397059,-0.539915,-0.474699,0.570524,0
-9.720659,-0.292978,0.946554,-0.120473,0.001200,0.018603,43.626788,1.866089,15.087802,4635731818801034200.000000,-0.749235,-0.016676,-0.659567,0.057802,-9.517867,0.947051,-2.035464,-0.030592,-0.006238,-0.047447,36.664442,-21.997740,18.637280,4635727062433267700.000000,0.498411,-0.332839,0.717987,0.353977,-9.719207,-1.306192,-0.641514,-0.013701,-0.007292,-0.006224,39.184903,23.125050,2.619890,4635729210453786600.000000,-0.397072,-0.539863,-0.474725,0.570542,0
-9.718599,-0.289411,0.910482,-0.108098,-0.001692,0.017715,43.764095,1.663219,15.055850,4635731894808346600.000000,-0.749234,-0.016462,-0.659598,0.057510,-9.546189,0.965599,-1.993718,-0.023393,-0.009271,-0.047170,36.823128,-21.925978,18.786453,4635727062433267700.000000,0.498481,-0.333021,0.717863,0.353959,-9.711613,-1.253131,-0.643628,-0.014365,-0.006409,-0.007662,39.161350,23.145237,2.609888,4635729210453786600.000000,-0.397080,-0.539809,-0.474758,0.570560,0
-9.678411,-0.277204,0.938463,-0.095461,-0.003517,0.017978,43.824577,1.636344,15.153506,4635731894808346600.000000,-0.749245,-0.016205,-0.659623,0.057159,-9.530812,1.031762,-1.944889,-0.021640,-0.012198,-0.047724,36.951069,-21.857593,18.718128,4635727062433267700.000000,0.498563,-0.333196,0.717735,0.353938,-9.713729,-1.224105,-0.638150,-0.014954,-0.006409,-0.007771,39.170193,23.092180,2.778284,4635729210453786600.000000,-0.397090,-0.539754,-0.474792,0.570576,0
-9.629586,-0.264997,0.960819,-0.084288,-0.006769,0.013082,43.849537,1.718223,15.219066,4635731894808346600.000000,-0.749259,-0.016007,-0.659634,0.056897,-9.514692,1.069127,-1.942185,-0.028432,-0.010576,-0.051548,37.000641,-21.905206,18.555252,4635727107508524000.000000,0.498636,-0.333400,0.717595,0.353928,-9.681728,-1.229582,-0.643626,-0.014180,-0.007183,-0.008251,39.120508,23.071993,2.902849,4635729210453786600.000000,-0.397099,-0.539698,-0.474824,0.570597,0
-9.598585,-0.263487,0.984269,-0.070270,-0.007202,0.005113,43.885070,1.773639,15.238950,4635731894808346600.000000,-0.749272,-0.015833,-0.659641,0.056700,-9.511528,1.031303,-2.013464,-0.030766,-0.007925,-0.052959,36.928910,-21.912289,18.678217,4635727169807450100.000000,0.498700,-0.333615,0.717455,0.353917,-9.677104,-1.250630,-0.638151,-0.010018,-0.006703,-0.008545,39.153358,23.125038,2.991663,4635729210453786600.000000,-0.397096,-0.539649,-0.474848,0.570625,0
-9.632180,-0.255816,1.054914,-0.063200,0.013271,-0.002581,43.803189,1.828624,15.361556,4635731894808346600.000000,-0.749229,-0.015629,-0.659712,0.056504,-9.492236,0.958053,-2.006683,-0.020532,-0.009890,-0.054133,36.798989,-21.912289,18.807236,4635727169807450100.000000,0.498787,-0.333809,0.717325,0.353876,-9.689312,-1.213158,-0.634785,-0.006224,-0.007956,-0.007772,39.226604,23.145237,2.873773,4635729210453786600.000000,-0.397090,-0.539605,-0.474859,0.570662,0
-9.717620,-0.191755,1.005561,-0.066849,0.024608,-0.000756,43.726393,1.990862,15.462689,4635731894808346600.000000,-0.749155,-0.015423,-0.659818,0.056295,-9.500523,0.874565,-1.974884,-0.018541,-0.011301,-0.053474,36.792358,-21.943031,18.586611,4635727169807450100.000000,0.498877,-0.333998,0.717195,0.353834,-9.666159,-1.196326,-0.643625,-0.006888,-0.011639,-0.007477,39.246803,23.145237,2.687312,4635729210453786600.000000,-0.397092,-0.539552,-0.474864,0.570706,0
-9.749619,-0.190239,0.924199,-0.069921,0.012373,0.000312,43.665882,2.061988,15.311568,4635731894808346600.000000,-0.749115,-0.015210,-0.659887,0.056078,-9.506406,0.853756,-2.074497,-0.014086,-0.012475,-0.045549,36.872680,-21.985533,18.400918,4635727169807450100.000000,0.498965,-0.334154,0.717078,0.353798,-9.620698,-1.258202,-0.682350,-0.010571,-0.010497,-0.005930,39.131888,23.092200,2.636799,4635729210453786600.000000,-0.397105,-0.539498,-0.474877,0.570737,0
-9.666220,-0.214651,0.919118,-0.074949,0.016380,0.002315,43.665882,1.844783,15.087826,4635731894808346600.000000,-0.749061,-0.015022,-0.659969,0.055879,-9.485152,0.893102,-2.047244,0.001621,-0.015402,-0.041038,36.951049,-22.021394,18.580544,4635727169807450100.000000,0.499079,-0.334256,0.716987,0.353726,-9.633748,-1.308299,-0.695822,-0.007882,-0.012708,-0.003794,39.096945,23.010108,2.778248,4635729210453786600.000000,-0.397121,-0.539448,-0.474875,0.570775,0
-9.624517,-0.228378,0.909951,-0.079222,0.021496,0.007523,43.690819,1.611377,15.055812,4635731894808346600.000000,-0.748995,-0.014836,-0.660067,0.055652,-9.495397,0.858444,-1.946099,0.000411,-0.014229,-0.039417,37.000641,-22.106842,18.750572,4635727169807450100.000000,0.499190,-0.334347,0.716904,0.353652,-9.652688,-1.291883,-0.660467,-0.006409,-0.013886,-0.003204,39.162184,22.933507,2.902828,4635729210453786600.000000,-0.397137,-0.539399,-0.474867,0.570817,0
-9.625033,-0.216172,0.852480,-0.082559,0.022966,0.014376,43.726406,1.657674,15.124972,4635731894808346600.000000,-0.748927,-0.014660,-0.660170,0.055395,-9.489081,0.871075,-1.963427,-0.005513,-0.012198,-0.036317,36.964790,-22.018158,18.668628,4635727169807450100.000000,0.499276,-0.334458,0.716814,0.353610,-9.664894,-1.308291,-0.638154,-0.008729,-0.011566,-0.003204,39.176927,23.028191,2.859073,4635729210453786600.000000,-0.397154,-0.539351,-0.474867,0.570850,0
-9.703876,-0.211087,0.771599,-0.082692,0.024566,0.017224,43.616023,1.819932,15.149901,4635731894808346600.000000,-0.748855,-0.014491,-0.660278,0.055128,-9.445373,0.938006,-1.946871,-0.009202,-0.011473,-0.036765,36.951039,-21.790987,18.555252,4635727259902287900.000000,0.499356,-0.334575,0.716721,0.353574,-9.694781,-1.336078,-0.643624,-0.004199,-0.009135,-0.000884,39.058650,23.178061,2.832118,4635729288200839200.000000,-0.397162,-0.539322,-0.474856,0.570882,0
-9.815267,-0.219733,0.659200,-0.079933,-0.002939,0.015577,43.494976,1.916048,15.185495,4635731894808346600.000000,-0.748858,-0.014319,-0.660299,0.054875,-9.459961,0.936815,-1.878751,-0.020055,-0.009165,-0.036937,37.000641,-21.813076,18.555252,4635727384555814900.000000,0.499415,-0.334718,0.716616,0.353566,-9.704885,-1.263268,-0.638154,-0.006003,-0.007772,-0.000773,39.067891,23.165451,2.832118,4635729317827969000.000000,-0.397171,-0.539293,-0.474851,0.570908,0
-9.872229,-0.233977,0.694808,-0.076283,-0.026259,0.014909,43.519902,1.880451,15.149898,4635731894808346600.000000,-0.748925,-0.014152,-0.660247,0.054636,-9.519806,0.925794,-1.884273,-0.026531,-0.007649,-0.036317,36.934088,-21.912289,18.514298,4635727384555814900.000000,0.499458,-0.334877,0.716506,0.353579,-9.704885,-1.206437,-0.625948,-0.006704,-0.007477,-0.002615,39.202987,23.260117,2.752585,4635729317827969000.000000,-0.397176,-0.539260,-0.474852,0.570934,0
-9.867141,-0.261444,0.795511,-0.074459,-0.022789,0.008368,43.630261,1.916061,15.267375,4635731894808346600.000000,-0.748980,-0.013974,-0.660206,0.054422,-9.528863,0.975804,-1.935858,-0.025980,-0.005513,-0.036317,36.836823,-21.840621,18.457594,4635727294501711900.000000,0.499496,-0.335038,0.716401,0.353586,-9.722561,-1.222838,-0.622578,-0.003316,-0.004384,-0.003204,39.237963,23.365796,2.660388,4635729317827969000.000000,-0.398442,-0.538176,-0.476056,0.570072,0
-9.875790,-0.258381,0.815870,-0.072145,-0.011616,0.005341,43.726426,1.809267,15.380834,4635731894808346600.000000,-0.748989,-0.013988,-0.660194,0.054441,-9.532013,0.963989,-1.913412,-0.022155,-0.002929,-0.034973,36.901407,-21.813056,18.539504,4635727169807450100.000000,0.499531,-0.335189,0.716309,0.353580,-9.738136,-1.197604,-0.640249,-0.005229,-0.003204,-0.004751,39.128562,23.274518,2.636799,4635729317827969000.000000,-0.398431,-0.538151,-0.476065,0.570095,0
-9.868673,-0.310769,0.781274,-0.065248,-0.014197,0.004718,43.619624,1.696829,15.263358,4635731894808346600.000000,-0.749019,-0.013830,-0.660178,0.054263,-9.546189,0.812392,-1.907503,-0.011785,-0.001068,-0.030425,37.036469,-21.943000,18.734808,4635727169807450100.000000,0.499567,-0.335308,0.716243,0.353551,-9.723838,-1.139943,-0.664663,-0.011820,-0.003978,-0.006887,39.035095,23.053986,2.645634,4635729317827969000.000000,-0.398431,-0.538110,-0.476094,0.570110,0
-9.815795,-0.325551,0.795505,-0.054878,-0.012775,0.002582,43.553440,1.671924,15.124972,4635731894808346600.000000,-0.749044,-0.013700,-0.660163,0.054122,-9.530834,0.730474,-1.933888,0.003135,-0.002412,-0.024464,37.086090,-21.949703,18.766334,4635727169807450100.000000,0.499619,-0.335377,0.716203,0.353492,-9.681753,-1.149586,-0.680242,-0.019297,-0.008911,-0.008250,39.067871,22.933530,2.649007,4635729317827969000.000000,-0.398454,-0.538041,-0.476135,0.570124,0
-9.707962,-0.252799,0.833660,-0.046200,-0.006232,0.000135,43.715672,1.611377,15.210328,4635731894808346600.000000,-0.749045,-0.013668,-0.660166,0.054098,-9.494215,0.785590,-1.956329,0.005686,-0.005168,-0.020467,37.050270,-21.869378,18.530097,4635727169807450100.000000,0.499676,-0.335425,0.716167,0.353437,-9.677097,-1.248044,-0.692449,-0.023682,-0.012227,-0.007772,39.202949,23.028139,2.640172,4635729317827969000.000000,-0.398495,-0.537959,-0.476180,0.570135,0
-9.631168,-0.229926,0.831645,-0.039169,-0.003516,-0.002447,43.811897,1.661153,15.414395,4635731894808346600.000000,-0.749046,-0.013538,-0.660178,0.053972,-9.467829,0.873004,-1.998062,-0.000376,-0.006857,-0.020570,36.964831,-21.791028,18.319010,4635727169807450100.000000,0.499730,-0.335485,0.716118,0.353404,-9.680470,-1.352446,-0.660487,-0.019930,-0.012818,-0.006704,39.246803,23.071993,2.778137,4635729240128903200.000000,-0.398532,-0.537883,-0.476213,0.570154,0
-9.556382,-0.202429,0.809244,-0.030624,-0.006761,-0.003827,43.701558,1.778725,15.352411,4635731894808346600.000000,-0.749054,-0.013434,-0.660177,0.053880,-9.445391,0.920671,-2.000851,-0.008922,-0.005239,-0.023326,36.950998,-21.741385,18.303200,4635727124811573200.000000,0.499770,-0.335575,0.716055,0.353390,-9.671637,-1.414771,-0.629325,-0.009656,-0.011272,-0.004090,39.193800,23.010157,2.832118,4635729210453786600.000000,-0.398548,-0.537833,-0.476218,0.570185,0
-9.518219,-0.223288,0.839226,-0.023012,-0.010329,-0.006274,43.630200,1.723859,15.222631,4635731894808346600.000000,-0.749069,-0.013380,-0.660164,0.053854,-9.424115,0.989135,-1.970506,-0.020151,-0.001689,-0.026805,37.067127,-21.741385,18.400849,4635727062433267700.000000,0.499789,-0.335704,0.715978,0.353397,-9.668263,-1.401768,-0.622578,-0.002545,-0.007590,-0.000113,39.058735,23.101364,2.761457,4635729210453786600.000000,-0.398551,-0.537812,-0.476204,0.570215,0
-9.523785,-0.253267,0.876923,-0.016739,-0.001163,-0.008545,43.772661,1.661139,15.247512,4635731894808346600.000000,-0.749059,-0.013330,-0.660178,0.053839,-9.459904,1.033350,-1.987825,-0.028840,-0.001068,-0.030355,37.159336,-21.705596,18.457594,4635727062433267700.000000,0.499799,-0.335861,0.715885,0.353421,-9.668263,-1.338651,-0.622578,-0.003387,-0.005636,0.003387,39.006030,23.198230,2.734458,4635729210453786600.000000,-0.398560,-0.537801,-0.476187,0.570233,0
-9.601051,-0.319403,0.820983,-0.007882,0.004232,-0.009167,43.803251,1.803608,15.308084,4635731894808346600.000000,-0.749035,-0.013286,-0.660207,0.053826,-9.540247,0.945913,-2.002014,-0.027050,-0.002410,-0.030976,37.123543,-21.620141,18.416687,4635727062433267700.000000,0.499818,-0.336014,0.715792,0.353439,-9.712424,-1.300735,-0.622578,-0.000409,-0.005341,0.006591,39.064478,23.112496,2.734458,4635729055081424900.000000,-0.398569,-0.537802,-0.476156,0.570252,0
-9.740410,-0.343357,0.786829,-0.000757,-0.001690,-0.010371,43.701599,1.809343,15.283216,4635731894808346600.000000,-0.749026,-0.013258,-0.660216,0.053835,-9.593038,0.923802,-2.002014,-0.024120,-0.005615,-0.030976,37.038090,-21.606277,18.359934,4635727062433267700.000000,0.499850,-0.336155,0.715696,0.353453,-9.755803,-1.293985,-0.631412,0.001841,-0.002249,0.007477,39.149945,23.010152,2.734458,4635728995705421800.000000,-0.398569,-0.537816,-0.476123,0.570266,0
-9.848274,-0.310288,0.830103,0.000000,-0.003515,-0.008681,43.580429,1.647094,15.197764,4635731894808346600.000000,-0.749021,-0.013270,-0.660219,0.053879,-9.612339,0.931727,-2.007127,-0.022157,-0.006582,-0.030976,37.029334,-21.758187,18.400836,4635727062433267700.000000,0.499888,-0.336292,0.715601,0.353463,-9.748252,-1.249809,-0.652455,0.000590,-0.001841,0.006704,39.111711,23.101397,2.663778,4635728995705421800.000000,-0.398570,-0.537828,-0.476095,0.570278,0
-9.896651,-0.300083,0.869181,0.000933,-0.004273,-0.005476,43.605297,1.575660,15.162048,4635731894808346600.000000,-0.749017,-0.013294,-0.660219,0.053916,-9.588761,0.882900,-2.039782,-0.014927,-0.007130,-0.027845,37.050307,-21.935866,18.416697,4635727062433267700.000000,0.499932,-0.336403,0.715519,0.353459,-9.741508,-1.250618,-0.659200,0.000000,-0.004456,0.007182,39.026260,23.260092,2.636799,4635728995705421800.000000,-0.398578,-0.537833,-0.476063,0.570294,0
-9.852476,-0.317392,0.992801,0.002894,0.002876,-0.002894,43.687194,1.743006,15.190663,4635731894808346600.000000,-0.748995,-0.013332,-0.660241,0.053950,-9.541078,0.823851,-2.029258,-0.000769,-0.010061,-0.021263,36.964862,-21.949755,18.359934,4635727062433267700.000000,0.499996,-0.336461,0.715462,0.353430,-9.741508,-1.283865,-0.676868,-0.000773,-0.005341,0.008250,39.064491,23.242094,2.707471,4635728995705421800.000000,-0.398592,-0.537837,-0.476030,0.570309,0
-9.726861,-0.324495,1.001677,0.002758,0.023402,-0.004311,43.717819,1.834219,15.169582,4635731894808346600.000000,-0.748914,-0.013399,-0.660326,0.054019,-9.539093,0.806830,-1.960281,0.009887,-0.010234,-0.017711,36.950967,-21.935860,18.400824,4635727062433267700.000000,0.500069,-0.336486,0.715424,0.353377,-9.688506,-1.267484,-0.692448,-0.008025,-0.007660,0.011637,39.149941,23.227314,2.805127,4635728995705421800.000000,-0.398635,-0.537830,-0.476002,0.570308,0
-9.628090,-0.345358,0.808355,0.008933,0.028491,-0.011478,43.644575,1.757424,15.393308,4635731894808346600.000000,-0.748822,-0.013399,-0.660428,0.054050,-9.541078,0.888312,-1.927629,0.010855,-0.009166,-0.016643,36.964862,-21.919088,18.416704,4635727062433267700.000000,0.500139,-0.336508,0.715392,0.353323,-9.659430,-1.257362,-0.678155,-0.013773,-0.012410,0.014364,39.235394,23.168853,2.893953,4635728995705421800.000000,-0.398706,-0.537808,-0.475973,0.570303,0
-9.622984,-0.350464,0.688721,0.025266,0.016218,-0.015712,43.592636,1.742987,15.572657,4635731832347338800.000000,-0.748762,-0.013437,-0.660488,0.054141,-9.528871,0.952177,-1.927922,0.006930,-0.008098,-0.016917,36.915188,-21.755289,18.359934,4635727107385094100.000000,0.500201,-0.336540,0.715356,0.353278,-9.673721,-1.283860,-0.706737,-0.018818,-0.016204,0.014954,39.312004,23.092242,2.785081,4635728995705421800.000000,-0.398798,-0.537770,-0.475949,0.570295,0
-9.624541,-0.338257,0.696257,0.039870,0.002621,-0.014022,43.635236,1.855525,15.418202,4635731680059981800.000000,-0.748738,-0.013523,-0.660502,0.054269,-9.506445,0.926629,-1.982709,0.008123,-0.009265,-0.018159,36.950956,-21.691701,18.441690,4635727169807450100.000000,0.500279,-0.336554,0.715326,0.353216,-9.706968,-1.293985,-0.684908,-0.021068,-0.016318,0.016500,39.323421,23.071993,2.593144,4635728995705421800.000000,-0.398899,-0.537730,-0.475927,0.570280,0
-9.596576,-0.326050,0.781710,0.046552,0.013243,-0.011439,43.763976,1.809373,15.213974,4635731680059981800.000000,-0.748686,-0.013637,-0.660548,0.054405,-9.485152,0.896250,-1.969368,0.014507,-0.011303,-0.018606,37.067067,-21.807811,18.555252,4635727169807450100.000000,0.500364,-0.336569,0.715293,0.353148,-9.708261,-1.293985,-0.636079,-0.020590,-0.019113,0.016318,39.328877,23.133818,2.671622,4635728995705421800.000000,-0.400241,-0.536650,-0.477066,0.569405,0
-9.577701,-0.310296,0.806830,0.052724,0.030219,-0.010371,43.803289,1.647156,15.279401,4635731680059981800.000000,-0.748587,-0.013774,-0.660645,0.054550,-9.495371,0.913566,-1.940977,0.009415,-0.007552,-0.017886,37.164445,-21.935845,18.437743,4635727169807450100.000000,0.500429,-0.336600,0.715260,0.353093,-9.704885,-1.285154,-0.631409,-0.020295,-0.019522,0.019113,39.279267,23.095627,2.863549,4635728995705421800.000000,-0.400353,-0.536610,-0.477031,0.569394,0
-9.602116,-0.289429,0.737979,0.065331,0.028492,-0.008061,43.680365,1.575605,15.446339,4635731680059981800.000000,-0.748493,-0.013956,-0.660734,0.054721,-9.489136,0.886901,-1.930762,0.005439,-0.002311,-0.016469,37.171543,-21.985533,18.315344,4635727169807450100.000000,0.500470,-0.336644,0.715233,0.353047,-9.643078,-1.264118,-0.643615,-0.020295,-0.020772,0.020295,39.206031,23.071993,2.988206,4635729073369397200.000000,-0.400470,-0.536569,-0.476991,0.569384,0
-9.605237,-0.284319,0.813216,0.068051,0.029574,-0.003030,43.457498,1.742968,15.455274,4635731680059981800.000000,-0.748393,-0.014203,-0.660824,0.054933,-9.465845,0.809674,-1.911455,0.007204,-0.001068,-0.016197,37.130683,-21.919137,18.489613,4635727169807450100.000000,0.500510,-0.336684,0.715213,0.352993,-9.619433,-1.310344,-0.638162,-0.015659,-0.023681,0.022613,39.176934,23.010180,2.812132,4635729103079604200.000000,-0.400587,-0.536533,-0.476930,0.569385,0
-9.598986,-0.289430,0.859211,0.068225,0.052276,0.003104,43.385949,1.855525,15.308084,4635731680059981800.000000,-0.748231,-0.014473,-0.660985,0.055126,-9.488268,0.796597,-1.909463,0.003106,-0.001068,-0.014507,37.038131,-21.755330,18.571190,4635727169807450100.000000,0.500542,-0.336727,0.715190,0.352954,-9.654752,-1.304118,-0.625955,-0.013886,-0.021477,0.024272,39.173557,23.048348,2.663821,4635729103079604200.000000,-0.400701,-0.536509,-0.476864,0.569383,0
-9.700183,-0.287864,0.752901,0.071739,0.059261,0.011612,43.553293,1.855525,15.336457,4635731680059981800.000000,-0.748053,-0.014779,-0.661166,0.055301,-9.489140,0.807682,-1.916562,-0.000447,-0.001068,-0.012545,36.988434,-21.655933,18.416739,4635727169807450100.000000,0.500567,-0.336771,0.715164,0.352930,-9.641776,-1.285156,-0.622578,-0.011568,-0.016432,0.028430,39.226534,23.019016,2.636799,4635729103079604200.000000,-0.400809,-0.536510,-0.476793,0.569367,0
-9.771037,-0.301638,0.694255,0.077253,0.045173,0.013265,43.641055,1.880352,15.434116,4635731680059981800.000000,-0.747909,-0.015145,-0.661301,0.055533,-9.470950,0.788375,-1.891031,-0.000621,-0.000175,-0.008448,37.059920,-21.691676,18.441633,4635727169807450100.000000,0.500590,-0.336788,0.715153,0.352902,-9.693446,-1.246460,-0.604919,-0.008364,-0.016499,0.029908,39.193827,23.051723,2.778067,4635729103079604200.000000,-0.400913,-0.536518,-0.476710,0.569355,0
-9.760809,-0.292978,0.716690,0.085178,0.044068,0.011750,43.534323,1.965804,15.475029,4635731680059981800.000000,-0.747771,-0.015489,-0.661431,0.055746,-9.500468,0.811906,-1.845315,0.002680,0.001515,-0.005341,37.128703,-21.807754,18.596095,4635727169807450100.000000,0.500609,-0.336791,0.715155,0.352868,-9.734749,-1.224120,-0.606991,-0.006705,-0.016318,0.027591,39.058792,23.071993,2.832118,4635729103079604200.000000,-0.401008,-0.536525,-0.476629,0.569349,0
-9.778130,-0.285885,0.708029,0.092517,0.036729,0.010508,43.471380,1.955505,15.434112,4635731680059981800.000000,-0.747652,-0.015851,-0.661537,0.055983,-9.511564,0.874940,-1.851532,0.005069,0.003030,-0.006234,37.050354,-21.935819,18.612069,4635727169807450100.000000,0.500626,-0.336798,0.715161,0.352825,-9.706197,-1.229568,-0.601542,-0.002547,-0.011388,0.027476,39.014862,23.071993,2.761495,4635729103079604200.000000,-0.401083,-0.536550,-0.476546,0.569341,0
-9.760404,-0.279198,0.729300,0.099648,0.031769,0.007167,43.638724,1.782281,15.531763,4635731742425401300.000000,-0.747544,-0.016233,-0.661626,0.056259,-9.502465,0.882926,-1.900361,0.004545,0.005166,-0.007030,36.964903,-21.919164,18.432724,4635727169807450100.000000,0.500638,-0.336810,0.715169,0.352780,-9.657367,-1.303570,-0.606991,0.000477,-0.008068,0.032406,39.244383,22.957231,2.805081,4635729103079604200.000000,-0.401157,-0.536598,-0.476451,0.569324,0
-9.727729,-0.322911,0.777729,0.102577,0.035697,0.007029,43.705247,1.803552,15.572700,4635731894808346600.000000,-0.747430,-0.016579,-0.661727,0.056492,-9.519777,0.854518,-1.954293,0.009536,0.006856,-0.004622,36.879454,-21.719638,18.338847,4635727169807450100.000000,0.500637,-0.336829,0.715182,0.352737,-9.643848,-1.304127,-0.619197,0.002613,-0.007477,0.036498,39.508787,22.860336,2.823291,4635729025441396700.000000,-0.402502,-0.535597,-0.477538,0.568407,0
-9.764351,-0.362677,0.747795,0.110675,0.030769,0.009786,43.543004,1.855525,15.475040,4635731894808346600.000000,-0.747325,-0.016994,-0.661810,0.056782,-9.539085,0.869828,-1.994910,0.015226,0.006137,-0.002583,36.896078,-21.570482,18.450490,4635727169807450100.000000,0.500648,-0.336822,0.715208,0.352677,-9.643848,-1.267506,-0.622578,0.003977,-0.008249,0.037385,39.452833,22.954793,2.758126,4635729150974700500.000000,-0.403832,-0.534606,-0.478603,0.567498,0
-9.776158,-0.343380,0.699367,0.120288,0.020260,0.013748,43.375652,1.855525,15.405743,4635731894808346600.000000,-0.747249,-0.017447,-0.661857,0.057087,-9.535984,0.870731,-2.012219,0.017537,0.004719,-0.002312,37.131300,-21.672531,18.381058,4635727169807450100.000000,0.500664,-0.336809,0.715234,0.352614,-9.661501,-1.266189,-0.613751,0.007362,-0.009317,0.040474,39.343713,23.113489,2.663848,4635729210453786600.000000,-0.405120,-0.533659,-0.479610,0.566622,0
-9.741508,-0.320936,0.718661,0.129900,0.013404,0.016642,43.263039,1.905137,15.434092,4635731894808346600.000000,-0.747193,-0.017937,-0.661880,0.057410,-9.526877,0.821901,-2.021326,0.018605,0.004448,-0.000622,37.396571,-21.814631,18.274483,4635727169807450100.000000,0.500680,-0.336787,0.715263,0.352551,-9.703565,-1.340172,-0.636846,0.012406,-0.008069,0.045519,39.381823,23.157444,2.698576,4635729210453786600.000000,-0.406383,-0.532749,-0.480574,0.565755,0
-9.745051,-0.340231,0.773001,0.139204,0.011164,0.019089,43.309107,2.051235,15.584907,4635731894808346600.000000,-0.747141,-0.018462,-0.661894,0.057751,-9.549289,0.798584,-2.014221,0.019673,0.002758,0.000893,37.386889,-21.784015,18.310199,4635727169807450100.000000,0.500703,-0.336754,0.715294,0.352489,-9.699444,-1.384879,-0.646992,0.021608,-0.005933,0.052404,39.405499,23.042720,2.731076,4635729210453786600.000000,-0.407609,-0.531895,-0.481478,0.564908,0
-9.746630,-0.355594,0.852939,0.146198,0.018984,0.021053,43.471333,2.087081,15.812515,4635731894808346600.000000,-0.747068,-0.019016,-0.661930,0.058105,-9.550195,0.815893,-2.009119,0.023420,0.002583,0.003476,37.107023,-21.741385,18.359934,4635727169807450100.000000,0.500733,-0.336692,0.715340,0.352412,-9.692678,-1.321045,-0.629343,0.027656,-0.005341,0.056792,39.352548,22.936973,2.663860,4635729210453786600.000000,-0.407674,-0.532046,-0.481271,0.564896,0
-9.722219,-0.326059,0.871851,0.151261,0.031319,0.017506,43.613881,2.001643,15.796853,4635731894808346600.000000,-0.746949,-0.019693,-0.662000,0.058613,-9.506469,0.840307,-1.996912,0.025986,0.002758,0.005341,36.884576,-21.812810,18.359934,4635727259556496400.000000,0.500764,-0.336619,0.715392,0.352332,-9.719147,-1.285162,-0.613755,0.027296,-0.005341,0.057680,39.332253,22.860360,2.777963,4635729210453786600.000000,-0.407742,-0.532198,-0.481062,0.564882,0
-9.715509,-0.338640,0.840353,0.160875,0.036765,0.008512,43.644634,1.965766,15.588854,4635731894808346600.000000,-0.746825,-0.020223,-0.662089,0.059000,-9.500455,0.849417,-1.974504,0.021714,0.002583,0.005341,36.872548,-21.876582,18.400742,4635727384555814900.000000,0.500789,-0.336556,0.715437,0.352264,-9.711657,-1.290599,-0.610370,0.028248,-0.006885,0.057680,39.394007,22.892983,2.823296,4635729210453786600.000000,-0.407810,-0.532347,-0.480848,0.564874,0
-9.741508,-0.390637,0.798605,0.171418,0.033389,0.002895,43.589094,2.076014,15.585312,4635731894808346600.000000,-0.746708,-0.020770,-0.662166,0.059436,-9.521774,0.857612,-1.963385,0.018780,0.002758,0.005341,36.945790,-21.755433,18.498396,4635727384555814900.000000,0.500820,-0.336477,0.715489,0.352191,-9.722527,-1.241060,-0.628012,0.031927,-0.005933,0.055365,39.347138,23.089713,2.687597,4635729210453786600.000000,-0.408991,-0.531540,-0.481694,0.564059,0
-9.727345,-0.380015,0.795437,0.184235,0.032248,0.001207,43.555643,2.193792,15.495209,4635731894808346600.000000,-0.746588,-0.021390,-0.662234,0.059955,-9.521774,0.884032,-1.977599,0.018159,0.002136,0.006233,37.059817,-21.655933,18.473670,4635727250009547800.000000,0.500841,-0.336415,0.715530,0.352135,-9.755762,-1.185459,-0.617144,0.033113,-0.005341,0.052160,39.320045,23.095701,2.495672,4635729210453786600.000000,-0.409032,-0.531691,-0.481484,0.564066,0
-9.713920,-0.350474,0.815942,0.196123,0.041519,-0.000758,43.519759,2.160343,15.214448,4635731894808346600.000000,-0.746441,-0.022044,-0.662328,0.060513,-9.531970,0.860552,-1.967403,0.019497,0.003028,0.007031,37.230708,-21.722208,18.359934,4635727062433267700.000000,0.500859,-0.336352,0.715576,0.352078,-9.765923,-1.163090,-0.601550,0.032341,-0.002254,0.046640,39.381789,22.904404,2.512044,4635729210453786600.000000,-0.409056,-0.531837,-0.481293,0.564074,0
-9.762383,-0.355965,0.752959,0.206664,0.039458,-0.000929,43.626440,2.099673,15.096510,4635731894808346600.000000,-0.746298,-0.022730,-0.662412,0.061100,-9.551287,0.807700,-1.953184,0.023147,0.004273,0.007747,37.330238,-21.850316,18.365033,4635727062433267700.000000,0.500870,-0.336297,0.715622,0.352020,-9.739461,-1.124422,-0.606983,0.032044,-0.003384,0.043319,39.467243,22.901794,2.609703,4635729210453786600.000000,-0.410156,-0.531050,-0.482127,0.563304,0
-9.746638,-0.397715,0.690692,0.219482,0.022647,-0.002275,43.696658,2.078440,15.409121,4635731894808346600.000000,-0.746196,-0.023473,-0.662440,0.061758,-9.553299,0.813871,-1.953184,0.025190,0.003827,0.010505,37.228290,-21.900082,18.407824,4635727062433267700.000000,0.500881,-0.336229,0.715675,0.351963,-9.702842,-1.146151,-0.601551,0.032044,-0.001958,0.042726,39.429215,22.978419,2.566244,4635729210453786600.000000,-0.411221,-0.530289,-0.482936,0.562551,0
-9.718687,-0.393825,0.743408,0.231370,0.012430,-0.000310,43.546644,2.005202,15.714816,4635731894808346600.000000,-0.746125,-0.024224,-0.662432,0.062408,-9.520707,0.827021,-1.963378,0.025013,0.003204,0.012642,36.979063,-21.869502,18.539139,4635727062433267700.000000,0.500898,-0.336138,0.715737,0.351900,-9.675040,-1.194979,-0.615801,0.033588,0.001247,0.042726,39.352583,22.822368,2.609692,4635729210453786600.000000,-0.411226,-0.530438,-0.482757,0.562560,0
-9.706826,-0.341807,0.805344,0.240673,0.024567,-0.000759,43.476385,2.020387,15.699284,4635731894808346600.000000,-0.746017,-0.025012,-0.662460,0.063090,-9.485152,0.810785,-1.972503,0.022960,0.004988,0.014332,36.829735,-21.826838,18.612139,4635727062433267700.000000,0.500905,-0.336048,0.715801,0.351845,-9.685902,-1.155619,-0.622578,0.035724,0.001365,0.039639,39.446901,22.701685,2.566247,4635729055313361900.000000,-0.411219,-0.530585,-0.482581,0.562578,0
-9.748578,-0.327666,0.730510,0.247980,0.022093,0.000000,43.626388,2.185125,15.459377,4635731894808346600.000000,-0.745913,-0.025847,-0.662476,0.063816,-9.490248,0.812800,-1.970488,0.020564,0.007477,0.016738,36.936749,-21.821742,18.432950,4635727152079243300.000000,0.500897,-0.335960,0.715871,0.351798,-9.683860,-1.117653,-0.622578,0.033231,0.000297,0.037682,39.490952,22.795988,2.539140,4635728995705421800.000000,-0.412231,-0.529848,-0.483371,0.561854,0
-9.769458,-0.278834,0.685214,0.250705,0.014166,-0.001547,43.693157,2.163909,15.441440,4635731863706681300.000000,-0.745834,-0.026624,-0.662468,0.064488,-9.517738,0.764933,-1.992883,0.026889,0.007477,0.021901,37.116658,-21.784063,18.343787,4635727277181632500.000000,0.500877,-0.335872,0.715944,0.351763,-9.645201,-1.172596,-0.640213,0.029730,-0.000772,0.038928,39.490952,22.840052,2.609680,4635728995705421800.000000,-0.413246,-0.529111,-0.484156,0.561126,0
-9.788735,-0.265358,0.673339,0.251184,0.009923,-0.004413,43.488522,2.182579,15.585319,4635731787434164200.000000,-0.745762,-0.027430,-0.662445,0.065212,-9.530907,0.728406,-1.993845,0.033113,0.007031,0.026973,37.123676,-21.741385,18.579856,4635727277181632500.000000,0.500866,-0.335740,0.716039,0.351710,-9.693364,-1.240413,-0.638175,0.031155,-0.002611,0.038750,39.490952,22.901774,2.636799,4635728995705421800.000000,-0.414245,-0.528384,-0.484920,0.560414,0
-9.821822,-0.317392,0.704494,0.256075,0.009754,-0.001827,43.259504,2.426727,15.544832,4635731787434164200.000000,-0.745690,-0.028258,-0.662420,0.065942,-9.504473,0.782331,-1.965392,0.032667,0.007746,0.031069,37.073883,-21.777046,18.669060,4635727277181632500.000000,0.500847,-0.335598,0.716140,0.351667,-9.725910,-1.213280,-0.634785,0.032816,-0.003976,0.039996,39.482133,22.863788,2.495736,4635728995705421800.000000,-0.415196,-0.527701,-0.485627,0.559742,0
-9.828563,-0.299720,0.692288,0.262484,0.002219,-0.001687,43.300314,2.504746,15.498590,4635731787434164200.000000,-0.745636,-0.029104,-0.662368,0.066690,-9.517734,0.817896,-1.975579,0.031153,0.010059,0.033289,37.109539,-21.821744,18.473754,4635727277181632500.000000,0.500815,-0.335458,0.716246,0.351630,-9.729300,-1.196326,-0.617153,0.029256,-0.002730,0.040590,39.487559,22.725442,2.379768,4635728995705421800.000000,-0.415213,-0.527830,-0.485457,0.559755,0
-9.760143,-0.259889,0.736616,0.267964,-0.006353,-0.004132,43.467668,2.224642,15.608448,4635731787434164200.000000,-0.745604,-0.029959,-0.662288,0.067462,-9.520724,0.853547,-1.979621,0.029908,0.011127,0.031153,37.159336,-21.784072,18.441422,4635727277181632500.000000,0.500781,-0.335328,0.716350,0.351591,-9.711668,-1.196326,-0.610370,0.028543,-0.000593,0.039818,39.376341,22.566747,2.356029,4635728995705421800.000000,-0.415226,-0.527961,-0.485295,0.559762,0
-9.663123,-0.250896,0.866726,0.271169,0.011693,-0.006409,43.605164,2.182550,15.654712,4635731787434164200.000000,-0.745517,-0.030853,-0.662261,0.068282,-9.480060,0.898256,-1.970484,0.029908,0.011304,0.030354,37.088046,-21.741385,18.595990,4635727277181632500.000000,0.500749,-0.335198,0.716454,0.351548,-9.704885,-1.187511,-0.601555,0.031154,0.000771,0.039521,39.279364,22.522659,2.426549,4635728995705421800.000000,-0.415229,-0.528099,-0.485129,0.559773,0
-9.715805,-0.200459,0.831391,0.274064,0.028671,-0.006409,43.711817,2.426698,15.544846,4635731787434164200.000000,-0.745390,-0.031682,-0.662289,0.069020,-9.493311,0.870774,-1.962325,0.029463,0.012018,0.032313,36.993525,-21.807575,18.612179,4635727277181632500.000000,0.500711,-0.335065,0.716562,0.351510,-9.731329,-1.157674,-0.589348,0.032816,0.004153,0.037979,39.373599,22.637248,2.515390,4635728995705421800.000000,-0.415219,-0.528244,-0.484970,0.559782,0
-9.806078,-0.179578,0.744652,0.278674,0.024399,-0.007027,43.799846,2.575446,15.495044,4635731787434164200.000000,-0.745271,-0.032530,-0.662301,0.069781,-9.526866,0.847402,-1.940977,0.029285,0.014331,0.034626,37.000641,-21.869534,18.595983,4635727277181632500.000000,0.500663,-0.334927,0.716678,0.351474,-9.732693,-1.112238,-0.603585,0.033113,0.003798,0.035071,39.408891,22.743057,2.468623,4635728995705421800.000000,-0.415202,-0.528384,-0.484815,0.559797,0
-9.790029,-0.167372,0.734056,0.286882,0.015800,-0.008854,43.693209,2.493533,15.564439,4635731787434164200.000000,-0.745174,-0.033396,-0.662284,0.070573,-9.544165,0.864701,-1.940977,0.031245,0.014063,0.036140,36.995549,-21.791196,18.688553,4635727277181632500.000000,0.500623,-0.334767,0.716804,0.351426,-9.702860,-1.098666,-0.627997,0.030028,0.003204,0.035723,39.405499,22.819688,2.511989,4635728995705421800.000000,-0.415194,-0.528518,-0.484665,0.559806,0
-9.708111,-0.165759,0.732750,0.288709,0.001518,-0.008686,43.605150,2.441481,15.536186,4635731787434164200.000000,-0.745115,-0.034258,-0.662221,0.071364,-9.538034,0.878933,-1.946068,0.030885,0.013709,0.037831,36.957889,-21.741385,18.702729,4635727277181632500.000000,0.500575,-0.334615,0.716925,0.351392,-9.692678,-1.133919,-0.634785,0.027298,0.005518,0.035546,39.414311,22.787173,2.680150,4635728995705421800.000000,-0.415187,-0.528652,-0.484526,0.559805,0
-9.634873,-0.193703,0.804073,0.289468,0.004634,-0.006409,43.711779,2.487377,15.491493,4635731818488020000.000000,-0.745048,-0.035126,-0.662166,0.072147,-9.499386,0.899296,-1.973547,0.025545,0.014509,0.037562,36.981366,-21.705750,18.688547,4635727277181632500.000000,0.500516,-0.334479,0.717039,0.351374,-9.710303,-1.182744,-0.643597,0.031330,0.002554,0.034478,39.470579,22.652250,2.663962,4635728995705421800.000000,-0.415174,-0.528784,-0.484374,0.559820,0
-9.589872,-0.216203,0.833634,0.290395,0.014787,-0.006100,43.753967,2.624890,15.580476,4635731894808346600.000000,-0.744951,-0.036004,-0.662142,0.072933,-9.490243,0.912492,-2.012194,0.020650,0.012550,0.035872,37.109514,-21.691564,18.702733,4635727277181632500.000000,0.500459,-0.334354,0.717139,0.351369,-9.664229,-1.178704,-0.629371,0.032342,0.001839,0.037264,39.490952,22.555247,2.434155,4635728995705421800.000000,-0.415168,-0.528922,-0.484213,0.559835,0
-9.600165,-0.189873,0.859963,0.295144,0.014839,-0.005959,43.534533,2.660915,15.681666,4635731894808346600.000000,-0.744852,-0.036902,-0.662116,0.073736,-9.492271,0.886051,-2.006072,0.019940,0.012017,0.035249,37.123711,-21.741385,18.571485,4635727277181632500.000000,0.500410,-0.334219,0.717242,0.351356,-9.617415,-1.163099,-0.649011,0.029731,0.000594,0.039224,39.429272,22.587734,2.285539,4635729150709822500.000000,-0.415174,-0.529056,-0.484052,0.559843,0
-9.586342,-0.157079,0.878637,0.302762,0.023358,-0.008404,43.442914,2.624888,15.727987,4635731863758217200.000000,-0.744721,-0.037859,-0.662110,0.074613,-9.469885,0.894201,-1.977599,0.024212,0.012550,0.034804,37.038260,-21.705760,18.457594,4635727277181632500.000000,0.500365,-0.334078,0.717352,0.351331,-9.624850,-1.186138,-0.641576,0.028840,0.000771,0.040292,39.405499,22.660980,2.328863,4635729210453786600.000000,-0.415184,-0.529192,-0.483891,0.559847,0
-9.609135,-0.186640,0.793193,0.309955,0.023165,-0.012225,43.519680,2.756210,15.618130,4635731787434164200.000000,-0.744589,-0.038813,-0.662102,0.075504,-9.463796,0.940998,-1.972511,0.022251,0.011127,0.032845,36.988434,-21.691553,18.539012,4635727277181632500.000000,0.500325,-0.333945,0.717453,0.351308,-9.640451,-1.205135,-0.625975,0.031923,0.001068,0.042131,39.520022,22.628498,2.417696,4635729210453786600.000000,-0.415191,-0.529336,-0.483719,0.559853,0
-9.654436,-0.209435,0.735973,0.321705,0.014002,-0.016640,43.555725,2.929777,15.568257,4635731787434164200.000000,-0.744481,-0.039760,-0.662063,0.076411,-9.510591,0.996943,-2.006094,0.012461,0.012640,0.029196,36.957907,-21.776999,18.693615,4635727277181632500.000000,0.500268,-0.333855,0.717532,0.351312,-9.696701,-1.199724,-0.613769,0.033113,0.000297,0.048121,39.625856,22.669772,2.441481,4635729210453786600.000000,-0.416143,-0.528688,-0.484410,0.559161,0
-9.705168,-0.258261,0.769349,0.332219,0.006718,-0.018776,43.519674,2.908608,15.665910,4635731787434164200.000000,-0.744390,-0.040727,-0.661998,0.077351,-9.551277,1.020334,-2.068139,0.006587,0.012550,0.024923,36.879573,-21.862452,18.786186,4635727277181632500.000000,0.500213,-0.333780,0.717602,0.351318,-9.734708,-1.161095,-0.619178,0.032342,0.000000,0.047120,39.649647,22.808062,2.511942,4635729210453786600.000000,-0.417079,-0.528047,-0.485091,0.558479,0
-9.790608,-0.264765,0.840683,0.340312,0.006551,-0.020295,43.555743,2.853006,15.654232,4635731787434164200.000000,-0.744296,-0.041715,-0.661929,0.078318,-9.558396,0.992866,-2.075258,0.008011,0.007566,0.022876,36.829735,-21.912289,18.800414,4635727277181632500.000000,0.500179,-0.333701,0.717661,0.351322,-9.767929,-1.182725,-0.596156,0.032815,0.001541,0.046701,39.543960,22.623270,2.609598,4635729210453786600.000000,-0.417093,-0.528204,-0.484909,0.558478,0
-9.847847,-0.198846,0.894946,0.349617,0.007977,-0.022455,43.470284,2.914877,15.341690,4635731787434164200.000000,-0.744188,-0.042774,-0.661858,0.079370,-9.563482,0.933871,-2.085430,0.016200,0.004539,0.023944,36.794136,-21.841089,18.664115,4635727277181632500.000000,0.500155,-0.333615,0.717719,0.351320,-9.769323,-1.169904,-0.594763,0.038507,0.001366,0.047769,39.441507,22.358721,2.504690,4635729210453786600.000000,-0.417098,-0.528373,-0.484710,0.558487,0
-9.839167,-0.189890,0.936168,0.355385,0.022646,-0.026537,43.434216,3.137853,15.145060,4635731787434164200.000000,-0.744035,-0.043843,-0.661829,0.080448,-9.575690,0.865713,-2.069161,0.026436,0.005074,0.025457,36.815481,-21.741385,18.548130,4635727277181632500.000000,0.500146,-0.333495,0.717798,0.351284,-9.748308,-1.115667,-0.633392,0.039819,0.002609,0.044213,39.470550,22.519707,2.453688,4635729210453786600.000000,-0.417089,-0.528539,-0.484519,0.558502,0
-9.825062,-0.150015,0.810308,0.357402,0.035700,-0.024116,43.470294,3.259377,15.397598,4635731818449364000.000000,-0.743846,-0.044930,-0.661838,0.081521,-9.557383,0.860618,-2.026429,0.032934,0.003649,0.026704,36.981301,-21.807499,18.636624,4635727277181632500.000000,0.500152,-0.333347,0.717891,0.351227,-9.697476,-1.081054,-0.646992,0.034898,0.000893,0.042726,39.543787,22.722592,2.515332,4635729210453786600.000000,-0.417995,-0.527905,-0.485194,0.557837,0
-9.783286,-0.148119,0.653779,0.367015,0.030479,-0.027795,43.409527,3.234697,15.503137,4635731894808346600.000000,-0.743665,-0.046035,-0.661826,0.082633,-9.537029,0.883009,-2.036599,0.038185,0.004273,0.028038,36.972186,-21.905166,18.786166,4635727277181632500.000000,0.500163,-0.333184,0.717994,0.351156,-9.706888,-1.039028,-0.638187,0.026949,-0.001541,0.038873,39.634641,22.599497,2.609586,4635729210453786600.000000,-0.418903,-0.527253,-0.485882,0.557175,0
-9.758873,-0.083303,0.606846,0.372927,0.019513,-0.030029,43.413051,3.177450,15.523432,4635731894808346600.000000,-0.743512,-0.047147,-0.661778,0.083771,-9.527891,0.844350,-2.015254,0.045129,0.002493,0.029908,36.728050,-21.876699,18.795349,4635727277181632500.000000,0.500185,-0.332999,0.718106,0.351071,-9.752316,-1.051839,-0.643591,0.019174,-0.004448,0.035074,39.600212,22.367556,2.363819,4635729210453786600.000000,-0.418932,-0.527349,-0.485747,0.557180,0
-9.727409,0.001633,0.633409,0.366021,0.015879,-0.023665,43.467554,3.231953,15.747808,4635731863806032900.000000,-0.743360,-0.048331,-0.661712,0.084955,-9.469906,0.814857,-1.990803,0.042552,0.001334,0.032576,36.687230,-21.862412,18.743446,4635727277181632500.000000,0.500203,-0.332810,0.718215,0.351000,-9.765923,-1.044435,-0.638188,0.014009,-0.006111,0.033410,39.567596,22.355755,2.117494,4635729210453786600.000000,-0.418973,-0.527429,-0.485624,0.557180,0
-9.692678,-0.020891,0.730810,0.354317,0.023401,-0.028862,43.576905,3.344829,15.727530,4635731787434164200.000000,-0.743201,-0.049342,-0.661683,0.085983,-9.473935,0.829049,-2.026429,0.042986,0.002760,0.036762,36.865303,-21.876722,18.786139,4635727277181632500.000000,0.500215,-0.332603,0.718336,0.350931,-9.757118,-1.037629,-0.625981,0.010507,-0.008720,0.030031,39.564194,22.428997,2.133486,4635729210453786600.000000,-0.419018,-0.527490,-0.485513,0.557185,0
-9.706771,-0.026300,0.728673,0.352016,0.033234,-0.034181,43.476620,3.369491,15.527817,4635731787434164200.000000,-0.743007,-0.050383,-0.661680,0.087073,-9.499403,0.919588,-1.955282,0.049227,0.004360,0.037830,36.844042,-21.791264,18.795368,4635727277181632500.000000,0.500219,-0.332402,0.718463,0.350857,-9.709694,-1.099260,-0.640186,0.011924,-0.007302,0.031151,39.572998,22.449415,2.301580,4635729210453786600.000000,-0.419060,-0.527559,-0.485399,0.557188,0
-9.752075,-0.075126,0.673289,0.346059,0.024095,-0.032640,43.205040,3.454937,15.637010,4635731787434164200.000000,-0.742838,-0.051406,-0.661650,0.088143,-9.495315,0.925779,-1.865688,0.038638,0.007922,0.038453,36.713797,-21.776954,18.779014,4635727277181632500.000000,0.500197,-0.332227,0.718582,0.350811,-9.675072,-1.149491,-0.638189,0.017439,-0.004868,0.032815,39.576401,22.334972,2.426455,4635729210453786600.000000,-0.419089,-0.527646,-0.485272,0.557194,0
-9.781650,-0.116908,0.729154,0.338583,0.024300,-0.027608,43.208315,3.491087,15.849915,4635731787434164200.000000,-0.742670,-0.052419,-0.661621,0.089177,-9.514648,0.859599,-1.895181,0.026796,0.010768,0.039342,36.701523,-21.826838,18.836023,4635727277181632500.000000,0.500156,-0.332064,0.718697,0.350789,-9.685869,-1.124492,-0.625982,0.021537,-0.005813,0.035423,39.585203,22.290718,2.585731,4635729210453786600.000000,-0.419117,-0.527744,-0.485128,0.557206,0
-9.790338,-0.113154,0.760146,0.331413,0.031408,-0.024567,43.561881,3.451408,15.626417,4635731787434164200.000000,-0.742485,-0.053410,-0.661615,0.090167,-9.506535,0.907364,-1.931802,0.028654,0.013441,0.041034,36.744286,-21.791278,18.795384,4635727277181632500.000000,0.500099,-0.331912,0.718815,0.350771,-9.657467,-1.119677,-0.613775,0.021661,-0.004868,0.037087,39.641426,22.405156,2.707222,4635729210453786600.000000,-0.419146,-0.527847,-0.484982,0.557213,0
-9.779777,-0.039915,0.718590,0.323465,0.022719,-0.024259,43.681154,3.528167,15.417951,4635731787434164200.000000,-0.742329,-0.054336,-0.661587,0.091094,-9.495310,0.938990,-1.963342,0.036941,0.014151,0.041213,36.744286,-21.741385,18.657100,4635727277181632500.000000,0.500059,-0.331727,0.718954,0.350718,-9.635048,-1.131882,-0.601569,0.019053,-0.003503,0.039695,39.705856,22.563824,2.523240,4635729210453786600.000000,-0.420060,-0.527191,-0.485669,0.556547,0
-9.732594,0.022768,0.758733,0.312023,0.023395,-0.021343,43.547100,3.613619,15.470755,4635731787434164200.000000,-0.742174,-0.055235,-0.661563,0.091981,-9.504488,0.943980,-1.952205,0.031873,0.018244,0.040145,36.779837,-21.776938,18.588756,4635727277181632500.000000,0.500000,-0.331564,0.719093,0.350672,-9.666845,-1.135288,-0.606964,0.022779,-0.001664,0.039820,39.775696,22.555305,2.230257,4635729210453786600.000000,-0.420880,-0.526617,-0.486272,0.555944,0
-9.698070,0.066429,0.758283,0.301342,0.033545,-0.015406,43.540735,3.720186,15.601062,4635731787434164200.000000,-0.741995,-0.056122,-0.661573,0.092818,-9.477044,1.056876,-1.952115,0.022969,0.021363,0.036411,36.829735,-21.791284,18.729097,4635727277181632500.000000,0.499919,-0.331447,0.719213,0.350650,-9.715676,-1.108884,-0.610370,0.027648,-0.000298,0.041062,39.804936,22.367639,2.289325,4635729210453786600.000000,-0.421677,-0.526067,-0.486852,0.555354,0
-9.745027,0.116904,0.657332,0.291585,0.019622,-0.013886,43.653675,3.882388,15.569392,4635731818384937000.000000,-0.741849,-0.057023,-0.661538,0.093678,-9.484079,1.120053,-2.007092,0.018782,0.020474,0.029378,36.829735,-21.741385,18.876651,4635727277181632500.000000,0.499847,-0.331356,0.719318,0.350625,-9.711700,-1.045864,-0.610370,0.028070,0.000000,0.040118,39.702738,22.241323,2.555030,4635729210453786600.000000,-0.421689,-0.526199,-0.486693,0.555358,0
-9.750197,0.130763,0.654247,0.285648,0.001521,-0.012654,43.629043,4.028660,15.519345,4635731894808346600.000000,-0.741753,-0.057905,-0.661448,0.094526,-9.528905,1.078356,-2.024377,0.013271,0.018338,0.024303,36.829735,-21.776928,18.893063,4635727277181632500.000000,0.499782,-0.331286,0.719404,0.350608,-9.704885,-1.025422,-0.627970,0.026232,0.000000,0.036441,39.600253,22.384673,2.566400,4635729055648383000.000000,-0.421697,-0.526321,-0.486548,0.555364,0
-9.734472,0.122074,0.764106,0.280433,0.005233,-0.009613,43.543596,4.064854,15.616997,4635731894808346600.000000,-0.741655,-0.058737,-0.661374,0.095301,-9.516697,1.019372,-2.048791,0.005965,0.017090,0.021987,36.799271,-21.897922,18.800481,4635727277181632500.000000,0.499713,-0.331238,0.719472,0.350610,-9.704885,-1.025422,-0.617185,0.024096,-0.001540,0.034479,39.514803,22.511014,2.407141,4635728995705421800.000000,-0.421708,-0.526432,-0.486408,0.555373,0
-9.741704,0.115042,0.800120,0.266695,0.013544,-0.010229,43.482769,3.979417,15.577521,4635731894808346600.000000,-0.741530,-0.059568,-0.661326,0.096082,-9.514644,0.930900,-2.083359,0.007118,0.015313,0.023140,36.786953,-21.997740,18.791187,4635727277181632500.000000,0.499649,-0.331185,0.719539,0.350616,-9.687288,-1.034221,-0.619169,0.020420,-0.002906,0.031871,39.490952,22.420482,2.356029,4635728995705421800.000000,-0.421723,-0.526528,-0.486281,0.555382,0
-9.809577,0.076561,0.702855,0.252826,-0.000940,-0.010211,43.503867,3.939674,15.279953,4635731863879633900.000000,-0.741448,-0.060353,-0.661239,0.096831,-9.506546,0.881954,-2.096653,0.010946,0.011929,0.026968,36.799279,-21.962208,18.802546,4635727277181632500.000000,0.499593,-0.331109,0.719609,0.350624,-9.706866,-1.099219,-0.622578,0.019997,-0.003974,0.030976,39.552539,22.376171,2.426417,4635728995705421800.000000,-0.421740,-0.526618,-0.486155,0.555394,0
-9.812892,0.034966,0.741338,0.243665,-0.006699,-0.007640,43.556015,4.041058,15.235043,4635731787434164200.000000,-0.741375,-0.061168,-0.661130,0.097610,-9.485152,0.913499,-2.075258,0.011930,0.008461,0.027064,36.786944,-21.912289,18.743439,4635727277181632500.000000,0.499549,-0.331025,0.719673,0.350633,-9.725891,-1.096689,-0.631375,0.020295,-0.005812,0.030207,39.576401,22.428955,2.515270,4635728995705421800.000000,-0.421758,-0.526704,-0.486026,0.555412,0
-9.771098,0.057521,0.793481,0.234522,0.000940,-0.010066,43.556015,4.187336,15.267750,4635731787434164200.000000,-0.741296,-0.061858,-0.661058,0.098263,-9.495301,0.932837,-2.075258,0.012014,0.005341,0.025455,36.829735,-21.912289,18.750572,4635727277181632500.000000,0.499518,-0.330939,0.719730,0.350642,-9.738096,-1.033683,-0.643581,0.019525,-0.004100,0.028369,39.576401,22.396640,2.477568,4635728995705421800.000000,-0.421770,-0.526788,-0.485907,0.555427,0
-9.767779,0.048830,0.775902,0.227644,0.006699,-0.008853,43.534919,4.174343,15.173606,4635731787434164200.000000,-0.741197,-0.062571,-0.661002,0.098937,-9.514642,0.980567,-2.065109,0.016106,0.005341,0.024484,36.763766,-21.912289,18.786094,4635727277181632500.000000,0.499500,-0.330836,0.719796,0.350629,-9.759099,-1.074783,-0.629401,0.021535,-0.003974,0.026233,39.576401,22.376171,2.383324,4635728995705421800.000000,-0.421772,-0.526871,-0.485788,0.555451,0
-9.799030,0.055860,0.721899,0.219116,-0.000939,-0.010228,43.461679,3.900430,15.172521,4635731787434164200.000000,-0.741120,-0.063251,-0.660925,0.099593,-9.531922,1.037629,-2.045770,0.016563,0.004897,0.020031,36.635521,-21.876771,18.795431,4635727366441092100.000000,0.499491,-0.330745,0.719856,0.350605,-9.739536,-1.098666,-0.613782,0.026279,-0.002733,0.024866,39.629175,22.376171,2.285665,4635728995705421800.000000,-0.421758,-0.526963,-0.485663,0.555483,0
-9.772771,0.080271,0.723929,0.213760,-0.009160,-0.012672,43.384933,3.720102,15.372992,4635731787434164200.000000,-0.741064,-0.063904,-0.660826,0.100244,-9.536043,1.062995,-2.079221,0.012818,0.003829,0.017271,36.616026,-21.791325,18.738363,4635727491929997300.000000,0.499478,-0.330679,0.719900,0.350596,-9.729300,-1.063488,-0.610370,0.029311,-0.000597,0.024567,39.649647,22.323403,2.258370,4635728995705421800.000000,-0.421732,-0.527065,-0.485535,0.555518,0
-9.722272,0.087116,0.772395,0.204000,-0.011912,-0.015877,43.345161,3.928014,15.443657,4635731787434164200.000000,-0.741018,-0.064517,-0.660722,0.100879,-9.501482,1.108813,-2.105857,0.016813,0.001873,0.015134,36.729856,-21.776897,18.819534,4635727491929997300.000000,0.499479,-0.330609,0.719942,0.350574,-9.729300,-1.014660,-0.619164,0.029908,0.000000,0.023798,39.596881,22.294131,2.328722,4635728995705421800.000000,-0.421702,-0.527168,-0.485409,0.555553,0
-9.694344,0.057523,0.716723,0.195908,-0.018644,-0.019081,43.443001,4.113529,15.271279,4635731787434164200.000000,-0.740989,-0.065092,-0.660602,0.101503,-9.508457,1.072350,-2.022466,0.019768,0.000000,0.011666,36.865247,-21.897861,18.938756,4635727491929997300.000000,0.499495,-0.330541,0.719979,0.350538,-9.694124,-1.001007,-0.604989,0.030678,0.000769,0.018882,39.629166,22.299512,2.356029,4635728995705421800.000000,-0.421658,-0.527263,-0.485293,0.555598,0
-9.664751,0.041804,0.722081,0.188447,-0.028387,-0.019211,43.559528,3.921562,15.238528,4635731787434164200.000000,-0.740989,-0.065641,-0.660454,0.102110,-9.543179,0.995935,-1.985682,0.008477,0.001775,0.006770,36.879680,-21.997740,18.905310,4635727491929997300.000000,0.499504,-0.330502,0.720003,0.350515,-9.671678,-1.044972,-0.606956,0.036362,0.002607,0.017860,39.763955,22.302925,2.285685,4635728995705421800.000000,-0.422394,-0.526672,-0.485929,0.555043,0
-9.659569,0.031441,0.777937,0.182623,-0.025912,-0.012349,43.543631,3.821445,15.308084,4635731787434164200.000000,-0.740987,-0.066191,-0.660314,0.102679,-9.476130,0.973585,-2.054795,0.004520,0.002498,0.005604,36.799306,-21.962239,18.802585,4635727491929997300.000000,0.499500,-0.330487,0.720015,0.350509,-9.659471,-1.062044,-0.601578,0.040761,0.004743,0.016620,39.746793,22.302925,2.188029,4635728995705421800.000000,-0.422314,-0.526790,-0.485802,0.555103,0
-9.685826,0.080442,0.809028,0.167362,-0.014178,-0.007623,43.482769,4.098866,15.301058,4635731787434164200.000000,-0.740957,-0.066712,-0.660215,0.103188,-9.437266,0.967392,-2.076379,0.016549,-0.001775,0.005702,36.720991,-21.912289,18.778937,4635727491929997300.000000,0.499526,-0.330440,0.720036,0.350472,-9.700014,-1.062044,-0.589371,0.047043,0.007649,0.014484,39.608599,22.355676,2.160710,4635728995705421800.000000,-0.422209,-0.526922,-0.485670,0.555173,0
-9.750369,0.148162,0.742813,0.153184,-0.011150,-0.004419,43.503838,4.333628,15.311761,4635731787434164200.000000,-0.740915,-0.067259,-0.660124,0.103715,-9.503371,0.973587,-2.041642,0.015414,-0.001610,0.003204,36.742034,-21.978213,18.881663,4635727491929997300.000000,0.499554,-0.330403,0.720053,0.350433,-9.708302,-1.053253,-0.603538,0.051442,0.009314,0.015424,39.572985,22.314632,2.231040,4635728995705421800.000000,-0.422094,-0.527067,-0.485529,0.555247,0
-9.799033,0.115051,0.718564,0.142956,-0.014032,-0.004287,43.559526,4.284467,15.384840,4635731787434164200.000000,-0.740901,-0.067663,-0.660040,0.104091,-9.510698,1.007949,-2.057981,0.013869,0.001693,0.003648,36.872364,-22.070986,18.986451,4635727402737138700.000000,0.499575,-0.330362,0.720079,0.350388,-9.722468,-1.032254,-0.627952,0.046185,0.008075,0.014484,39.690685,22.237971,2.188040,4635729150356200400.000000,-0.421990,-0.527198,-0.485400,0.555314,0
-9.790338,0.101170,0.727098,0.131208,-0.016357,-0.008999,43.543647,4.162724,15.365451,4635731787434164200.000000,-0.740895,-0.068010,-0.659956,0.104440,-9.460737,1.096599,-1.995072,0.017370,0.001512,0.000723,36.879696,-22.040564,19.079040,4635727277181632500.000000,0.499605,-0.330322,0.720107,0.350327,-9.729300,-0.990257,-0.643576,0.036871,0.005169,0.010040,39.779053,22.331760,2.090381,4635729210453786600.000000,-0.422644,-0.526648,-0.486002,0.554812,0
-9.790338,0.099340,0.690633,0.118539,-0.029921,-0.007477,43.479260,4.187287,15.239733,4635731787434164200.000000,-0.740921,-0.068373,-0.659828,0.104819,-9.511433,1.050039,-1.977397,0.007757,0.001693,-0.003829,36.799318,-22.033227,19.088445,4635727277181632500.000000,0.499628,-0.330316,0.720114,0.350284,-9.711722,-0.985381,-0.655781,0.028028,0.001196,0.007007,39.743400,22.437694,2.133363,4635729210453786600.000000,-0.423306,-0.526076,-0.486612,0.554314,0
-9.797357,0.066225,0.704520,0.103584,-0.032792,-0.007170,43.519697,4.272744,15.153202,4635731787434164200.000000,-0.740960,-0.068690,-0.659699,0.105157,-9.542252,1.020154,-2.037702,-0.000082,0.002399,-0.004535,36.791981,-22.078123,18.914733,4635727277181632500.000000,0.499639,-0.330330,0.720110,0.350263,-9.704885,-1.032746,-0.659200,0.024097,-0.000769,0.004102,39.670155,22.400098,2.231025,4635729210453786600.000000,-0.423245,-0.526127,-0.486542,0.554375,0
-9.825277,0.034797,0.681789,0.091087,-0.026704,-0.006716,43.616911,4.354677,15.283669,4635731787434164200.000000,-0.740975,-0.069034,-0.659586,0.105527,-9.485152,1.078377,-1.996942,-0.012081,0.006048,-0.009959,36.801365,-21.969541,18.704922,4635727277181632500.000000,0.499645,-0.330361,0.720103,0.350241,-9.731254,-1.023468,-0.641620,0.018885,-0.001837,0.000897,39.649647,22.376171,2.188052,4635729055828779000.000000,-0.423190,-0.526160,-0.486489,0.554432,0
-9.858389,0.003507,0.646992,0.084372,-0.028852,-0.007784,43.510423,4.431422,15.227555,4635731787434164200.000000,-0.741008,-0.069291,-0.659477,0.105813,-9.500370,0.958532,-2.050677,-0.021904,0.008545,-0.011403,36.678342,-21.791330,18.640705,4635727277181632500.000000,0.499617,-0.330451,0.720070,0.350263,-9.741508,-1.030792,-0.617208,0.018628,-0.000598,-0.000769,39.702377,22.376171,2.160710,4635728995705421800.000000,-0.423129,-0.526191,-0.486442,0.554489,0
-9.868775,0.012207,0.646992,0.076895,-0.035408,-0.008238,43.393812,4.513369,15.060290,4635731787434164200.000000,-0.741060,-0.069521,-0.659351,0.106081,-9.501488,0.860533,-2.095722,-0.013721,0.006770,-0.005078,36.550086,-21.812388,18.681278,4635727277181632500.000000,0.499596,-0.330503,0.720054,0.350277,-9.679991,-1.046417,-0.601582,0.021534,-0.000769,-0.000299,39.731677,22.323441,2.231016,4635728995705421800.000000,-0.423063,-0.526229,-0.486388,0.554552,0
-9.826818,0.033256,0.646992,0.068189,-0.038453,-0.006249,43.434226,4.519963,15.018756,4635731787434164200.000000,-0.741123,-0.069728,-0.659219,0.106321,-9.488158,0.847566,-2.043707,-0.009252,0.004716,-0.001873,36.637054,-21.912289,18.860068,4635727277181632500.000000,0.499584,-0.330531,0.720045,0.350285,-9.682418,-1.032262,-0.589376,0.024738,0.000470,-0.001538,39.735096,22.355649,2.319880,4635728995705421800.000000,-0.423738,-0.525610,-0.487046,0.554045,0
-9.765923,0.099480,0.643485,0.056441,-0.041215,-0.001363,43.556015,4.382323,15.088350,4635731787434164200.000000,-0.741200,-0.069911,-0.659082,0.106514,-9.494357,0.794417,-2.045774,-0.005539,0.005341,0.002218,36.895648,-21.912289,19.031342,4635727277181632500.000000,0.499573,-0.330532,0.720053,0.350285,-9.719039,-1.060569,-0.594742,0.034093,0.004144,-0.001367,39.787818,22.437678,2.212020,4635728995705421800.000000,-0.424347,-0.525050,-0.487652,0.553577,0
-9.765923,0.137788,0.648812,0.043157,-0.051442,0.003511,43.531468,4.345967,15.060297,4635731787434164200.000000,-0.741311,-0.070062,-0.658919,0.106658,-9.483086,0.901086,-2.003145,0.003204,0.005341,0.005341,36.892100,-22.013692,18.955289,4635727277181632500.000000,0.499561,-0.330523,0.720069,0.350276,-9.720514,-1.118185,-0.606950,0.044305,0.009954,-0.000299,39.808342,22.347394,2.090416,4635728995705421800.000000,-0.424888,-0.524555,-0.488206,0.553143,0
-9.751902,0.146489,0.708151,0.023309,-0.060123,0.006113,43.470562,4.452440,14.962650,4635731787434164200.000000,-0.741452,-0.070154,-0.658736,0.106743,-9.517641,0.995937,-1.963325,0.001430,0.005341,0.006228,36.756493,-22.156437,18.767108,4635727277181632500.000000,0.499550,-0.330506,0.720088,0.350269,-9.664373,-1.161649,-0.584010,0.059300,0.017132,0.000769,39.808342,22.188698,2.133345,4635728995705421800.000000,-0.424705,-0.524703,-0.488094,0.553242,0
-9.710085,0.146489,0.779579,-0.002473,-0.056898,0.014667,43.425008,4.520015,14.921065,4635731787434164200.000000,-0.741596,-0.070192,-0.658572,0.106729,-9.556329,0.938104,-1.962391,-0.003730,0.007559,0.007033,36.786909,-22.019559,18.688399,4635727277181632500.000000,0.499516,-0.330516,0.720099,0.350286,-9.608706,-1.207054,-0.547391,0.082539,0.027683,0.007218,39.808342,22.205729,2.160710,4635728995705421800.000000,-0.425140,-0.524334,-0.488573,0.552835,0
-9.692678,0.142985,0.798680,-0.026892,-0.043626,0.028247,43.332892,4.382344,14.966162,4635731787434164200.000000,-0.741716,-0.070198,-0.658457,0.106603,-9.524986,0.871794,-1.920702,-0.008364,0.012899,0.009513,36.763842,-21.862318,18.860013,4635727277181632500.000000,0.499464,-0.330520,0.720124,0.350305,-9.630160,-1.159243,-0.519555,0.105867,0.038663,0.013457,39.746844,22.396602,2.090428,4635728995705421800.000000,-0.425495,-0.524061,-0.488984,0.552456,0
-9.699685,0.141288,0.763757,-0.051142,-0.036475,0.040144,43.455179,4.370467,14.901736,4635731787434164200.000000,-0.741829,-0.070164,-0.658370,0.106371,-9.460737,0.899205,-1.871875,-0.006953,0.016022,0.012556,36.671040,-21.983242,19.031342,4635727277181632500.000000,0.499400,-0.330517,0.720162,0.350321,-9.608708,-1.196785,-0.565423,0.134448,0.050114,0.016491,39.722889,22.461622,2.063051,4635728995705421800.000000,-0.425757,-0.523885,-0.489330,0.552116,0
-9.710090,0.186709,0.723738,-0.069604,-0.041666,0.048530,43.653772,4.492324,14.945557,4635731787434164200.000000,-0.741937,-0.070275,-0.658254,0.106268,-9.501270,0.917629,-1.858518,-0.002761,0.015579,0.011125,36.706507,-22.078126,18.955342,4635727277181632500.000000,0.499346,-0.330509,0.720203,0.350322,-9.515970,-1.273439,-0.559606,0.165419,0.064935,0.024007,39.722889,22.461622,2.133317,4635728995705421800.000000,-0.425937,-0.523813,-0.489614,0.551794,0
-9.671665,0.270365,0.721937,-0.090977,-0.048224,0.052952,43.669181,4.422279,15.135682,4635731787434164200.000000,-0.742100,-0.070142,-0.658146,0.105884,-9.543197,0.918547,-1.890073,-0.000806,0.016727,0.010863,36.721027,-22.005122,18.924226,4635727277181632500.000000,0.499291,-0.330499,0.720249,0.350315,-9.625670,-1.188596,-0.505421,0.180256,0.074809,0.031314,39.670196,22.400146,2.160710,4635728995705421800.000000,-0.425443,-0.524370,-0.489260,0.551960,0
-9.612432,0.287681,0.657313,-0.113389,-0.058929,0.058151,43.580521,4.244676,15.203150,4635731787434164200.000000,-0.742310,-0.069901,-0.658018,0.105371,-9.521774,0.939970,-1.899288,0.005059,0.017010,0.010943,36.665972,-21.841347,19.031342,4635727277181632500.000000,0.499243,-0.330477,0.720305,0.350290,-9.812206,-1.050890,-0.549773,0.184959,0.077675,0.034649,39.702339,22.376171,2.020193,4635728995705421800.000000,-0.424940,-0.524949,-0.488892,0.552122,0
-9.619520,0.247648,0.586042,-0.127894,-0.084713,0.073725,43.616966,4.260470,15.002898,4635731787434164200.000000,-0.742592,-0.069701,-0.657806,0.104840,-9.526841,0.879178,-1.917478,0.018660,0.009010,0.012374,36.765219,-21.776847,18.950285,4635727277181632500.000000,0.499251,-0.330379,0.720380,0.350217,-9.837238,-1.101027,-0.626436,0.185858,0.079512,0.034481,39.775578,22.323482,1.965392,4635728995705421800.000000,-0.425035,-0.524998,-0.489100,0.551818,0
-9.708477,0.266858,0.710007,-0.154466,-0.093816,0.091256,43.531509,4.345926,15.027404,4635731787434164200.000000,-0.742914,-0.069462,-0.657571,0.104183,-9.518788,0.844131,-1.993704,0.041431,-0.000523,0.012636,36.915188,-21.897746,18.922127,4635727277181632500.000000,0.499299,-0.330259,0.720450,0.350117,-9.747932,-1.135288,-0.682116,0.179711,0.079343,0.038022,39.752229,22.241459,2.105886,4635728995705421800.000000,-0.424548,-0.525577,-0.488741,0.551960,0
-9.806128,0.303477,0.842227,-0.192759,-0.070483,0.092922,43.519559,4.312379,15.039354,4635731787434164200.000000,-0.743183,-0.069120,-0.657425,0.103410,-9.492295,0.885164,-2.055909,0.071862,-0.006489,0.012113,36.849341,-22.033197,19.160048,4635727277181632500.000000,0.499412,-0.330061,0.720555,0.349926,-9.734655,-0.994794,-0.660698,0.162714,0.074433,0.039521,39.673632,22.278940,2.230958,4635728995705421800.000000,-0.424111,-0.526119,-0.488408,0.552075,0
-9.872290,0.329600,0.735777,-0.222802,-0.067472,0.082688,43.641468,4.007278,14.920947,4635731787434164200.000000,-0.743448,-0.068658,-0.657303,0.102586,-9.475024,0.892954,-2.047858,0.097178,-0.012272,0.010056,36.751428,-22.012292,19.202776,4635727277181632500.000000,0.499580,-0.329807,0.720682,0.349663,-9.767847,-0.931190,-0.664552,0.143189,0.070329,0.037985,39.702324,22.417064,2.188131,4635728995705421800.000000,-0.424354,-0.526053,-0.488718,0.551677,0
-9.835587,0.312103,0.605081,-0.236523,-0.091725,0.064986,43.616972,3.857620,14.982144,4635731787434164200.000000,-0.743774,-0.068095,-0.657117,0.101785,-9.450610,1.065659,-2.041620,0.098032,-0.018681,0.006694,36.779731,-21.841396,18.990832,4635727277181632500.000000,0.499769,-0.329560,0.720789,0.349405,-9.743012,-1.015557,-0.715304,0.135486,0.065589,0.035081,39.837024,22.461622,2.090475,4635728995705421800.000000,-0.424586,-0.525982,-0.489017,0.551300,0
-9.772919,0.247573,0.561541,-0.241864,-0.114474,0.047598,43.556015,3.939566,15.084779,4635731787434164200.000000,-0.744157,-0.067457,-0.656866,0.101030,-9.456577,1.269294,-2.093432,0.077580,-0.024203,-0.007793,36.794292,-21.776829,19.014699,4635727277181632500.000000,0.499969,-0.329390,0.720835,0.349185,-9.729300,-1.058616,-0.767562,0.124600,0.060248,0.028035,39.828910,22.347489,2.133287,4635728995705421800.000000,-0.424829,-0.525873,-0.489339,0.550932,0
-9.779843,0.209312,0.614015,-0.251796,-0.139165,0.033556,43.601493,3.991821,14.903161,4635731787434164200.000000,-0.744603,-0.066740,-0.656546,0.100298,-9.495280,1.355022,-2.186933,0.060180,-0.028476,-0.026941,36.713903,-21.862283,19.129002,4635727277181632500.000000,0.500188,-0.329301,0.720823,0.348979,-9.738079,-0.983039,-0.746160,0.116860,0.051067,0.025636,39.746892,22.241477,2.090483,4635728995705421800.000000,-0.424507,-0.526251,-0.489101,0.551030,0
-9.729227,0.258141,0.790129,-0.275914,-0.126459,0.018914,43.690223,3.991821,14.624469,4635731787434164200.000000,-0.745013,-0.065914,-0.656279,0.099543,-9.550065,1.339835,-2.308992,0.055908,-0.034077,-0.042075,36.671040,-21.912289,19.007507,4635727277181632500.000000,0.500441,-0.329258,0.720773,0.348761,-9.706396,-0.943400,-0.635887,0.118432,0.050371,0.022563,39.670223,22.278919,2.063051,4635728995705421800.000000,-0.424177,-0.526623,-0.488865,0.551138,0
-9.685753,0.275488,0.864871,-0.302604,-0.080992,0.011287,43.632759,3.967336,14.680435,4635731787434164200.000000,-0.745303,-0.065002,-0.656165,0.098725,-9.597102,1.272842,-2.390568,0.049864,-0.040225,-0.055518,36.671040,-21.876855,18.795527,4635727277181632500.000000,0.500725,-0.329256,0.720684,0.348540,-9.683900,-0.975082,-0.580607,0.119633,0.057416,0.020595,39.649647,22.302925,2.273722,4635728995705421800.000000,-0.423825,-0.527010,-0.488643,0.551236,0
-9.757275,0.228444,0.720111,-0.319237,-0.061980,0.007477,43.662448,3.860910,14.795310,4635731787434164200.000000,-0.745542,-0.064036,-0.656116,0.097868,-9.522065,1.132599,-2.379547,0.051949,-0.047155,-0.066121,36.736848,-21.791401,18.778862,4635727277181632500.000000,0.501041,-0.329285,0.720563,0.348309,-9.759463,-0.927361,-0.591302,0.118865,0.059816,0.018759,39.772522,22.241487,2.417467,4635728995705421800.000000,-0.424096,-0.526838,-0.489034,0.550845,0
-9.781501,0.244211,0.626137,-0.336478,-0.089880,0.005335,43.739188,3.723195,14.734336,4635731787434164200.000000,-0.745860,-0.062999,-0.655988,0.096978,-9.431262,1.010238,-2.283085,0.069039,-0.060050,-0.074041,36.860104,-21.741385,18.876515,4635727277181632500.000000,0.501435,-0.329274,0.720432,0.348022,-9.790338,-0.859465,-0.694704,0.106277,0.053673,0.012015,39.811773,22.164815,2.239621,4635729150098492400.000000,-0.424346,-0.526655,-0.489415,0.550489,0
-9.622810,0.319171,0.713304,-0.352043,-0.084669,-0.004283,43.779184,3.616768,14.793775,4635731787434164200.000000,-0.746135,-0.062073,-0.655865,0.096282,-9.429176,1.034347,-2.161907,0.076386,-0.073858,-0.082585,36.837191,-21.741385,18.974169,4635727321695407100.000000,0.501893,-0.329252,0.720272,0.347713,-9.764008,-0.851087,-0.828986,0.083811,0.045128,0.006542,39.746906,22.144230,2.029063,4635729210453786600.000000,-0.424065,-0.526921,-0.489285,0.550566,0
-9.509567,0.354015,0.739384,-0.370049,-0.060419,-0.015566,43.726917,3.479060,14.941861,4635731787434164200.000000,-0.746379,-0.060827,-0.655850,0.095290,-9.421147,1.179606,-2.116940,0.065994,-0.082767,-0.095556,36.744286,-21.776796,18.990872,4635727384555814900.000000,0.502383,-0.329277,0.720061,0.347420,-9.683512,-0.828192,-0.901827,0.060014,0.037351,0.001501,39.608809,22.196882,2.047803,4635729210453786600.000000,-0.423841,-0.527117,-0.489207,0.550621,0
-9.534028,0.347026,0.664373,-0.392177,-0.057692,-0.016785,43.702458,3.442533,14.885952,4635731787434164200.000000,-0.746609,-0.059569,-0.655845,0.094308,-9.424988,1.329388,-2.113973,0.048204,-0.090503,-0.116108,36.850495,-21.826838,18.898280,4635727384555814900.000000,0.502901,-0.329390,0.719779,0.347148,-9.673606,-0.791571,-0.933105,0.033444,0.025267,-0.003839,39.625620,22.331550,2.136684,4635729210453786600.000000,-0.423687,-0.527228,-0.489179,0.550657,0
-9.598514,0.336589,0.592944,-0.417658,-0.081652,-0.015411,43.617006,3.524492,14.718587,4635731787434164200.000000,-0.746910,-0.058226,-0.655773,0.093257,-9.506258,1.349089,-2.089558,0.028351,-0.097904,-0.139425,37.096739,-21.756027,18.807768,4635727384555814900.000000,0.503438,-0.329623,0.719411,0.346910,-9.636595,-0.772499,-0.975070,0.006440,0.011381,-0.009948,39.702295,22.376171,2.090510,4635729210453786600.000000,-0.424168,-0.526747,-0.489741,0.550247,0
-9.596748,0.354015,0.624342,-0.439475,-0.103308,-0.013275,43.580465,3.506912,14.652377,4635731787434164200.000000,-0.747274,-0.056813,-0.655640,0.092145,-9.575661,1.296078,-2.085372,0.009126,-0.102176,-0.161778,37.197180,-21.585135,18.826427,4635727384555814900.000000,0.503997,-0.329950,0.718979,0.346684,-9.654530,-0.795388,-0.962478,-0.023332,-0.000968,-0.010982,39.722889,22.262109,2.001633,4635729210453786600.000000,-0.424176,-0.526683,-0.489813,0.550238,0
-9.581085,0.364495,0.659200,-0.461910,-0.111551,-0.011444,43.641468,3.332621,14.689040,4635731787434164200.000000,-0.747664,-0.055331,-0.655486,0.090967,-9.592924,1.286834,-2.114842,-0.007888,-0.109545,-0.180561,37.076339,-21.454691,18.933683,4635727384555814900.000000,0.504581,-0.330358,0.718480,0.346479,-9.738452,-0.805689,-0.917083,-0.035883,-0.007343,-0.011449,39.722889,22.164833,2.039014,4635729210453786600.000000,-0.424223,-0.526581,-0.489904,0.550218,0
-9.614210,0.408097,0.666184,-0.490596,-0.123145,-0.009459,43.617024,3.381509,14.755259,4635731787434164200.000000,-0.748090,-0.053761,-0.655305,0.089708,-9.612282,1.288929,-2.146408,-0.023101,-0.119525,-0.199162,36.945887,-21.447178,18.852784,4635727384555814900.000000,0.505207,-0.330826,0.717918,0.346285,-9.695734,-0.946066,-0.894574,-0.026638,-0.004707,-0.008679,39.670249,22.196871,2.133240,4635729210453786600.000000,-0.424251,-0.526507,-0.489973,0.550207,0
-9.652590,0.444691,0.697580,-0.523709,-0.132606,-0.007325,43.580455,3.479085,14.774474,4635731787434164200.000000,-0.748546,-0.052089,-0.655102,0.088353,-9.589095,1.246383,-2.160710,-0.036210,-0.126117,-0.214849,36.902981,-21.492180,18.657461,4635727384555814900.000000,0.505857,-0.331359,0.717301,0.346106,-9.694581,-1.036097,-0.856050,-0.032410,-0.007810,0.008642,39.649647,22.217474,2.160710,4635729210453786600.000000,-0.424338,-0.526451,-0.490011,0.550159,0
-9.704885,0.427259,0.753399,-0.561249,-0.142218,-0.011752,43.686869,3.323777,14.823248,4635731787434164200.000000,-0.749032,-0.050285,-0.654881,0.086910,-9.531023,1.115437,-2.145544,-0.033954,-0.131900,-0.225973,36.968702,-21.383919,18.623933,4635727384555814900.000000,0.506542,-0.331912,0.716659,0.345904,-9.661025,-1.023520,-0.842311,-0.063182,-0.015754,0.041051,39.711050,22.217474,2.160710,4635729210453786600.000000,-0.424583,-0.526389,-0.490034,0.550009,0
-9.680441,0.423767,0.837117,-0.596191,-0.139768,-0.018313,43.779211,3.064029,14.715086,4635731787434164200.000000,-0.749511,-0.048354,-0.654678,0.085392,-9.504512,0.960563,-2.108922,-0.018817,-0.139194,-0.235068,37.127398,-21.240881,18.819252,4635727384555814900.000000,0.507283,-0.332449,0.716010,0.345647,-9.573680,-1.223720,-0.824769,-0.102866,-0.027368,0.073528,39.735096,22.278871,2.230879,4635729210453786600.000000,-0.425013,-0.526296,-0.490057,0.549746,0
-9.598493,0.387131,0.953947,-0.628229,-0.123293,-0.021363,43.726917,3.027452,14.575640,4635731787434164200.000000,-0.749946,-0.046321,-0.654533,0.083792,-9.477143,0.883131,-2.057140,-0.007143,-0.145969,-0.239081,37.356838,-21.271208,18.817434,4635727384555814900.000000,0.508065,-0.332963,0.715356,0.345356,-9.598844,-1.569469,-0.809120,-0.132721,-0.043263,0.119106,39.673667,22.355582,2.188162,4635729210453786600.000000,-0.425644,-0.526207,-0.490020,0.549376,0
-9.539212,0.272043,1.067279,-0.655234,-0.111544,-0.021058,43.747848,3.109404,14.600059,4635731787434164200.000000,-0.750349,-0.044208,-0.654430,0.082114,-9.423264,0.829252,-1.988955,-0.002578,-0.148473,-0.242986,37.585345,-21.213063,18.567008,4635727384555814900.000000,0.508853,-0.333502,0.714685,0.345065,-9.645768,-1.812862,-0.840800,-0.160665,-0.066500,0.160401,39.763760,22.209389,2.020263,4635729210453786600.000000,-0.426479,-0.526099,-0.489914,0.548926,0
-9.497351,0.130784,1.107385,-0.676901,-0.086515,-0.023653,43.849010,3.165207,14.689004,4635731787434164200.000000,-0.750678,-0.042062,-0.654406,0.080419,-9.382439,0.798535,-1.943076,-0.009838,-0.148473,-0.248511,37.559614,-20.928464,18.445387,4635727384555814900.000000,0.509645,-0.334058,0.714002,0.344774,-9.656056,-2.192478,-0.836964,-0.153408,-0.072166,0.203159,39.922441,22.144230,2.035607,4635729210453786600.000000,-0.427946,-0.525596,-0.490204,0.548006,0
-9.443299,0.050573,1.088202,-0.683004,-0.046540,-0.039064,43.946650,3.125092,14.734335,4635731787434164200.000000,-0.750898,-0.039779,-0.654511,0.078646,-9.410660,0.805689,-1.928770,-0.027186,-0.149357,-0.252341,37.457366,-20.763545,18.404959,4635727251207748600.000000,0.510421,-0.334658,0.713286,0.344525,-9.787703,-2.135100,-0.865209,-0.115919,-0.079245,0.258003,39.967037,22.205665,2.133263,4635729210453786600.000000,-0.429465,-0.525258,-0.490273,0.547080,0
-9.471202,0.006975,1.089948,-0.688345,-0.023041,-0.061495,43.840271,2.978605,14.673299,4635731787434164200.000000,-0.751041,-0.037428,-0.654690,0.076926,-9.506205,0.790533,-1.964134,-0.045526,-0.151051,-0.257314,37.499884,-20.884351,18.307311,4635727062433267700.000000,0.511182,-0.335309,0.712532,0.344322,-9.997125,-1.571626,-0.756077,-0.115128,-0.097604,0.299085,39.914386,22.115601,2.230914,4635729210453786600.000000,-0.431119,-0.524957,-0.490222,0.546113,0
-9.497360,-0.095912,1.173654,-0.692770,-0.007172,-0.077059,43.702505,2.893156,14.648885,4635731756757666800.000000,-0.751124,-0.035079,-0.654914,0.075300,-9.600915,0.789273,-2.009170,-0.058196,-0.152561,-0.263022,37.580284,-20.949164,18.209654,4635727062433267700.000000,0.511943,-0.335992,0.711753,0.344139,-9.988691,-1.423317,-0.637821,-0.155724,-0.114361,0.336339,39.964004,21.842808,2.328578,4635729210453786600.000000,-0.432438,-0.525105,-0.489632,0.545457,0
-9.514793,-0.299933,1.232939,-0.692466,0.017850,-0.087282,43.665873,2.786792,14.615739,4635731680059981800.000000,-0.751129,-0.032710,-0.655212,0.073703,-9.653951,0.797690,-2.007065,-0.063279,-0.153371,-0.265785,37.688886,-20.828355,18.152409,4635727062433267700.000000,0.512698,-0.336701,0.710955,0.343972,-9.847174,-1.563315,-0.654242,-0.172139,-0.121635,0.372484,40.044100,21.648300,2.356029,4635729210453786600.000000,-0.433888,-0.525280,-0.488984,0.544717,0
-9.572341,-0.474328,1.300957,-0.682396,0.046384,-0.089420,43.751321,2.673421,14.685506,4635731680059981800.000000,-0.751049,-0.030376,-0.655591,0.072135,-9.673314,0.698363,-2.019272,-0.061180,-0.153187,-0.265711,37.847567,-20.657466,18.152409,4635727062433267700.000000,0.513453,-0.337408,0.710158,0.343800,-9.784995,-1.479758,-0.645083,-0.176879,-0.129747,0.413108,40.117346,21.659751,2.215635,4635729210453786600.000000,-0.435987,-0.525032,-0.488756,0.543484,0
-9.624652,-0.603362,1.328855,-0.665306,0.070494,-0.081486,43.833281,2.697817,14.713387,4635731680059981800.000000,-0.750897,-0.028123,-0.656034,0.070585,-9.640061,0.532498,-1.996122,-0.049798,-0.158233,-0.260739,37.940609,-20.521909,18.071590,4635727062433267700.000000,0.514235,-0.338057,0.709377,0.343604,-9.822000,-1.208917,-0.617237,-0.218302,-0.141663,0.451225,40.085298,21.627704,2.090519,4635729210453786600.000000,-0.437754,-0.525235,-0.488001,0.542545,0
-9.647353,-0.749851,1.320171,-0.648982,0.072031,-0.074467,43.885616,2.710082,14.783165,4635731680059981800.000000,-0.750738,-0.025921,-0.656472,0.069034,-9.557559,0.444517,-1.902679,-0.032377,-0.165821,-0.253262,37.975963,-20.436462,17.916686,4635727151280443400.000000,0.515053,-0.338637,0.708614,0.343384,-9.961982,-1.114309,-0.601598,-0.299938,-0.172134,0.492911,40.126106,21.326383,2.071824,4635729210453786600.000000,-0.439853,-0.525302,-0.487281,0.541428,0
-9.581079,-0.833608,1.271284,-0.621820,0.047915,-0.070801,43.840309,2.493872,14.790135,4635731680059981800.000000,-0.750641,-0.023770,-0.656823,0.067506,-9.501576,0.431475,-1.846259,-0.017459,-0.165932,-0.248878,38.026062,-20.386364,17.859430,4635727277181632500.000000,0.515885,-0.339171,0.707876,0.343128,-10.036387,-1.163506,-0.598163,-0.382584,-0.194167,0.542077,40.334364,21.049797,2.206840,4635729210453786600.000000,-0.442285,-0.525264,-0.486597,0.540098,0
-9.525281,-0.802182,1.440408,-0.598320,0.048216,-0.081785,43.706010,2.261854,14.835457,4635731680059981800.000000,-0.750527,-0.021720,-0.657162,0.066142,-9.442651,0.438188,-1.857635,-0.019372,-0.158567,-0.251971,38.021013,-20.320726,17.940215,4635727277181632500.000000,0.516696,-0.339727,0.707147,0.342860,-10.064239,-1.271850,-0.624482,-0.430160,-0.208655,0.591049,40.520556,20.870475,2.258370,4635729210453786600.000000,-0.445479,-0.524729,-0.486390,0.538175,0
-9.441592,-0.851035,1.672356,-0.587479,0.062403,-0.097350,43.678060,2.315864,14.957494,4635731680059981800.000000,-0.750365,-0.019664,-0.657541,0.064853,-9.374459,0.649839,-1.848366,-0.017243,-0.152560,-0.254147,38.049191,-20.192330,18.054749,4635727188375337000.000000,0.517496,-0.340292,0.706431,0.342570,-10.141288,-1.411462,-0.626012,-0.483830,-0.232519,0.642184,40.573973,20.606517,2.328550,4635729210453786600.000000,-0.448425,-0.524611,-0.485633,0.536525,0
-9.331725,-0.866696,1.822357,-0.587335,0.085746,-0.113672,43.714740,2.408371,15.144089,4635731680059981800.000000,-0.750134,-0.017523,-0.657990,0.063560,-9.384097,0.601282,-1.779802,0.001285,-0.152930,-0.248364,38.200268,-20.137168,17.973977,4635727062433267700.000000,0.518313,-0.340801,0.705746,0.342240,-10.265248,-1.514078,-0.596264,-0.566963,-0.267195,0.693749,40.638806,20.406621,2.426197,4635729210453786600.000000,-0.451733,-0.524358,-0.484877,0.534678,0
-9.295005,-0.899900,1.916527,-0.571767,0.117940,-0.138394,43.608398,2.282890,15.287151,4635731680059981800.000000,-0.749799,-0.015419,-0.658533,0.062437,-9.514149,0.152002,-1.546224,0.020398,-0.150352,-0.240631,38.277834,-20.099722,17.859430,4635727062433267700.000000,0.519135,-0.341256,0.705101,0.341872,-10.250425,-1.599527,-0.585955,-0.621984,-0.283858,0.748856,40.943521,20.370720,2.374752,4635729210453786600.000000,-0.455832,-0.523591,-0.484599,0.532197,0
-9.378813,-0.826622,1.963675,-0.565663,0.121201,-0.148781,43.494976,2.148409,15.268027,4635731680059981800.000000,-0.749447,-0.013306,-0.659081,0.061364,-9.546673,0.335644,-1.316768,0.025792,-0.143174,-0.237200,38.114112,-19.986117,17.894754,4635727062433267700.000000,0.519942,-0.341689,0.704487,0.341477,-10.264886,-1.641126,-0.480708,-0.665644,-0.284729,0.803165,41.114893,20.207514,2.212262,4635729210453786600.000000,-0.460102,-0.522870,-0.484255,0.529537,0
-9.340383,-0.765670,1.987960,-0.553315,0.060132,-0.138412,43.540240,2.315840,15.166881,4635731680059981800.000000,-0.749260,-0.011244,-0.659430,0.060294,-9.465783,0.713075,-1.315789,-0.004214,-0.130357,-0.240333,38.079443,-19.885860,17.909566,4635727062433267700.000000,0.520673,-0.342215,0.703853,0.341145,-10.331251,-1.639230,-0.272844,-0.733522,-0.274919,0.865009,41.147720,19.747584,2.169480,4635729210453786600.000000,-0.464603,-0.522174,-0.483913,0.526599,0
-9.333517,-0.669592,2.111931,-0.523714,0.032071,-0.114159,43.678039,2.453638,15.112715,4635731680059981800.000000,-0.749151,-0.009335,-0.659680,0.059231,-9.493126,0.614286,-1.405968,-0.041386,-0.114891,-0.240333,38.243184,-19.885860,17.819069,4635727062433267700.000000,0.521304,-0.342842,0.703199,0.340900,-10.202784,-1.591941,-0.023351,-0.782039,-0.242916,0.914821,41.387952,19.312235,2.304471,4635729210453786600.000000,-0.469239,-0.521542,-0.483621,0.523374,0
-9.305373,-0.756859,2.116977,-0.484824,-0.007309,-0.085765,43.714760,2.465995,15.149437,4635731680059981800.000000,-0.749144,-0.007711,-0.659791,0.058298,-9.486462,0.342809,-1.351287,-0.052383,-0.100079,-0.237243,38.373721,-19.815235,17.761772,4635727062433267700.000000,0.521872,-0.343505,0.702565,0.340671,-10.346028,-1.408153,0.171589,-0.838600,-0.204167,0.963980,41.603516,19.035643,2.426177,4635729210453786600.000000,-0.474009,-0.520968,-0.483407,0.519833,0
-9.525206,-0.610669,2.366322,-0.481647,-0.041168,-0.066702,43.653675,2.274207,15.063985,4635731680059981800.000000,-0.749241,-0.006046,-0.659795,0.057204,-9.401016,0.125509,-1.258678,-0.040449,-0.095065,-0.228002,38.517575,-19.609036,17.721421,4635727062433267700.000000,0.522424,-0.344129,0.701968,0.340426,-10.705689,-1.369118,0.228501,-0.894246,-0.145770,1.001439,41.651661,18.803718,2.383546,4635729210453786600.000000,-0.478819,-0.520495,-0.483308,0.515976,0
-9.595019,0.023835,2.746297,-0.662245,-0.000934,-0.059325,43.678036,2.054429,15.062063,4635731680059981800.000000,-0.749229,-0.003846,-0.659963,0.055590,-9.295389,0.111475,-1.213577,-0.037270,-0.087121,-0.215369,38.726416,-19.493907,17.664112,4635727062433267700.000000,0.522939,-0.344721,0.701409,0.340187,-10.929753,-1.300518,0.179328,-0.962702,-0.066496,1.032719,41.844573,18.343770,2.566479,4635729210453786600.000000,-0.483661,-0.520102,-0.483429,0.511724,0
-9.560227,0.761928,2.867751,-0.885400,0.273411,-0.109229,43.693894,1.965332,15.262613,4635731680059981800.000000,-0.748446,-0.000876,-0.661032,0.053513,-9.171206,0.092344,-1.311507,-0.055336,-0.074956,-0.212074,38.789287,-19.649947,17.664112,4635727062433267700.000000,0.523386,-0.345362,0.700854,0.339993,-11.158586,-1.050367,0.334059,-1.072761,-0.008201,1.067529,42.104354,17.855842,2.859441,4635729210453786600.000000,-0.488682,-0.519656,-0.483817,0.507019,0
-9.563406,0.910366,1.588224,-0.977366,0.412127,-0.124850,43.510844,2.050784,15.477037,4635731680059981800.000000,-0.747266,0.002394,-0.662543,0.051229,-9.182345,-0.122327,-1.475764,-0.080946,-0.068850,-0.217647,38.781589,-19.795366,17.664112,4635727062433267700.000000,0.523791,-0.346072,0.700273,0.339844,-11.318488,-0.368181,0.499289,-1.238089,0.074386,1.055513,42.237953,17.444583,2.941984,4635729210453786600.000000,-0.493818,-0.519022,-0.484704,0.501819,0
-9.967758,0.866726,0.075582,-0.961499,0.202394,-0.093543,43.364112,2.042304,15.742174,4635731680059981800.000000,-0.746658,0.005571,-0.663386,0.048889,-9.188987,-0.193725,-1.450290,-0.063693,-0.049158,-0.199000,38.897301,-19.752904,17.588477,4635727062433267700.000000,0.524137,-0.346719,0.699786,0.339657,-12.220784,-0.318381,0.563426,-1.438835,0.125254,0.986185,42.270798,17.115346,3.082251,4635729210453786600.000000,-0.499088,-0.517934,-0.486220,0.496232,0
-10.586804,1.078870,-0.323137,-0.960383,-0.055384,-0.098854,43.479152,1.843388,15.857488,4635731680059981800.000000,-0.746749,0.008813,-0.663415,0.046561,-9.065853,-0.248118,-1.211729,0.013000,-0.041564,-0.163265,38.955155,-19.702749,17.481001,4635727062433267700.000000,0.524520,-0.347104,0.699474,0.339313,-14.025381,-1.197131,2.020178,-1.553538,0.146092,1.053680,42.405731,16.801405,3.409056,4635729210453786600.000000,-0.504666,-0.516755,-0.487841,0.490191,0
-10.960685,1.576599,0.424641,-0.992607,-0.201098,-0.111727,43.613503,1.806625,15.765080,4635731680059981800.000000,-0.747229,0.012244,-0.662985,0.044148,-9.311273,-0.326441,-1.040545,0.053992,-0.041615,-0.139720,38.904995,-19.637217,17.516288,4635727062433267700.000000,0.524929,-0.347331,0.699255,0.338901,-14.468577,-0.847564,3.192768,-1.623069,0.237275,1.127092,42.588827,16.378858,3.726097,4635729210453786600.000000,-0.510310,-0.515737,-0.489599,0.483624,0
-10.660980,1.572760,1.194550,-1.000848,-0.184432,-0.103863,43.645017,1.819050,15.689990,4635731680059981800.000000,-0.747653,0.015709,-0.662596,0.041650,-9.679917,0.235232,-1.283816,0.013080,-0.007064,-0.127668,38.899955,-19.438206,17.606776,4635727062433267700.000000,0.525161,-0.347660,0.699070,0.338584,-14.215354,-1.471198,3.500399,-1.654014,0.344934,1.174827,42.771931,15.801050,4.089183,4635729210453786600.000000,-0.515848,-0.514932,-0.491506,0.476622,0
-10.369090,1.730142,1.029566,-1.004370,-0.109834,-0.156225,43.592636,1.651642,15.674390,4635731680059981800.000000,-0.747848,0.019319,-0.662424,0.039308,-9.750804,0.658763,-1.568933,-0.009476,0.017923,-0.124346,38.761762,-19.393525,17.623797,4635727062433267700.000000,0.525283,-0.348065,0.698913,0.338304,-14.705815,-1.415772,3.790851,-1.514670,0.527984,1.195449,43.025135,15.178526,4.611242,4635729210453786600.000000,-0.520714,-0.514784,-0.493459,0.469417,0
-10.663559,1.418477,0.552808,-1.000699,-0.159667,-0.183854,43.613486,1.534658,15.557671,4635731680059981800.000000,-0.748162,0.023003,-0.662081,0.037054,-9.809921,0.354586,-1.349567,0.006054,0.034199,-0.123651,38.580432,-19.614596,17.566454,4635727062433267700.000000,0.525379,-0.348456,0.698814,0.337956,-14.964708,-0.757854,4.183351,-1.236419,0.731939,1.103380,43.349713,14.669893,5.114864,4635729210453786600.000000,-0.524344,-0.515411,-0.495481,0.462507,0
-10.969289,0.922687,0.450345,-1.009072,-0.235717,-0.191222,43.690206,1.550249,15.390152,4635731710624191500.000000,-0.748671,0.026745,-0.661488,0.034791,-9.929657,0.409626,-1.159122,0.006002,0.056764,-0.120887,38.753854,-19.609159,17.566454,4635727062433267700.000000,0.525405,-0.348871,0.698768,0.337582,-15.337780,0.148288,4.647539,-1.140126,0.689377,1.067545,43.402333,14.363751,5.459503,4635729056292654100.000000,-0.527738,-0.516075,-0.497264,0.455948,0
-10.776081,0.783118,0.045704,-1.042916,-0.290910,-0.140790,43.726990,1.566166,15.351591,4635731787434164200.000000,-0.749320,0.030457,-0.660719,0.032274,-9.967054,0.504573,-1.371104,-0.051610,0.077229,-0.123159,38.950144,-19.357842,17.606757,4635727062433267700.000000,0.525291,-0.349448,0.698683,0.337341,-15.330029,1.321010,4.995597,-1.056006,0.591466,1.068148,43.218629,14.119624,5.752455,4635728995705421800.000000,-0.531109,-0.516723,-0.498636,0.449758,0
-10.184656,0.741123,-0.181446,-1.096219,-0.335272,-0.017276,43.644974,1.334201,15.405765,4635731787434164200.000000,-0.750082,0.033941,-0.659824,0.029287,-9.954653,0.212952,-1.681327,-0.143844,0.085333,-0.124651,38.721496,-19.143921,17.618770,4635727062433267700.000000,0.525020,-0.350241,0.698483,0.337352,-14.693249,1.689936,5.419951,-0.974527,0.546791,1.025986,43.284582,13.717811,6.106723,4635728995705421800.000000,-0.534287,-0.517359,-0.499825,0.443905,0
-9.452248,0.750009,-0.113174,-1.118497,-0.235331,0.100529,43.613538,1.037629,15.316836,4635731756792641500.000000,-0.750564,0.037157,-0.659245,0.025884,-9.785107,0.012207,-1.983606,-0.201829,0.086639,-0.118310,38.578493,-19.008283,17.554245,4635727062433267700.000000,0.524652,-0.351145,0.698213,0.337544,-13.449568,1.749391,5.528087,-0.963356,0.530681,0.986404,43.581572,13.201383,6.423817,4635728995705421800.000000,-0.537369,-0.517890,-0.501022,0.438180,0
-8.955023,0.394238,-0.533583,-1.138943,-0.163888,0.175161,43.714653,1.058531,15.247046,4635731680059981800.000000,-0.750837,0.040223,-0.658887,0.022202,-9.620799,0.203604,-2.198870,-0.208916,0.074315,-0.124802,38.893132,-18.993354,17.599576,4635727062433267700.000000,0.524326,-0.352049,0.697904,0.337748,-12.278893,2.313152,4.852037,-0.958243,0.513103,0.923704,43.748164,12.708100,6.646695,4635728995705421800.000000,-0.540324,-0.518263,-0.502274,0.432638,0
-8.869606,-0.053781,-0.622610,-1.147507,-0.150617,0.220022,43.812403,0.995927,15.226147,4635731680059981800.000000,-0.751061,0.043231,-0.658562,0.018311,-9.520248,0.753048,-2.295755,-0.210492,0.050683,-0.145976,39.172185,-19.073762,17.704397,4635727062433267700.000000,0.524087,-0.353001,0.697501,0.337957,-11.283508,3.271441,4.204591,-1.003208,0.474415,0.829776,43.845821,12.293340,6.842007,4635728995705421800.000000,-0.543249,-0.518263,-0.503691,0.427293,0
-8.855452,-0.509347,-0.512790,-1.123240,-0.091321,0.241114,43.706066,0.565260,15.208624,4635731680059981800.000000,-0.751109,0.046059,-0.658410,0.014477,-9.488822,1.243189,-2.351760,-0.228172,0.022095,-0.176782,39.151875,-19.121830,17.797027,4635727062433267700.000000,0.523944,-0.354049,0.696961,0.338197,-10.485479,3.818601,3.430900,-1.040613,0.383257,0.775050,43.890929,11.902669,7.177502,4635728995705421800.000000,-0.546329,-0.517878,-0.505076,0.422168,0
-9.144987,-0.676057,-0.554299,-1.107680,-0.014293,0.219723,43.617012,0.186633,15.295877,4635731649431345200.000000,-0.750931,0.048891,-0.658480,0.010767,-9.631799,1.092391,-2.375408,-0.273114,-0.006810,-0.215980,38.986017,-19.129002,17.806937,4635727151022766100.000000,0.523877,-0.355259,0.696240,0.338518,-9.385289,4.093742,2.923384,-0.974283,0.252863,0.708850,43.854031,11.617186,7.629393,4635728995705421800.000000,-0.549422,-0.517236,-0.506198,0.417572,0
-9.295077,-1.682703,-1.044475,-1.082811,-0.132539,0.229203,43.723357,0.130799,15.240162,4635731572685799400.000000,-0.751067,0.051623,-0.658166,0.007071,-9.768821,0.396618,-2.358166,-0.316878,-0.045461,-0.242229,38.928032,-19.164246,17.754600,4635727277181632500.000000,0.523893,-0.356585,0.695332,0.338964,-8.315368,3.864971,2.854940,-0.882476,0.134703,0.565747,43.792998,11.381812,7.904028,4635728995705421800.000000,-0.552306,-0.516274,-0.507196,0.413729,0
-9.402970,-1.883549,-1.109366,-1.053054,-0.221734,0.206167,43.861157,0.031548,15.051813,4635731572685799400.000000,-0.751438,0.054382,-0.657549,0.003447,-9.860819,-0.012207,-2.363959,-0.333141,-0.093525,-0.258503,39.043686,-19.209418,17.600671,4635727277181632500.000000,0.524046,-0.357925,0.694270,0.339493,-7.086666,3.633826,2.028024,-0.813279,0.045373,0.393149,43.889595,11.202416,7.959227,4635728995705421800.000000,-0.554910,-0.514954,-0.508220,0.410621,0
-9.793669,-1.719479,-0.657684,-1.027267,-0.207199,0.176566,43.897872,-0.289298,14.933135,4635731572685799400.000000,-0.751760,0.057145,-0.656956,-0.000018,-9.961241,0.098518,-2.422849,-0.322121,-0.140265,-0.266531,39.207397,-19.096554,17.250345,4635727188643670000.000000,0.524359,-0.359198,0.693107,0.340040,-5.689450,2.897138,0.321909,-0.706882,-0.004389,0.289538,44.109594,10.999933,7.889167,4635728995705421800.000000,-0.557187,-0.513588,-0.509141,0.408100,0
-9.996098,-1.700409,-0.354065,-1.004072,-0.217173,0.151381,43.840265,-0.570168,14.997553,4635731572685799400.000000,-0.752099,0.059902,-0.656313,-0.003342,-10.082011,0.135585,-2.420607,-0.285179,-0.191288,-0.253958,39.272613,-18.981115,17.037900,4635727062433267700.000000,0.524850,-0.360292,0.691895,0.340593,-5.320835,2.896073,-1.051691,-0.560755,-0.022617,0.266573,44.187350,10.823986,7.931627,4635728995705421800.000000,-0.559140,-0.512482,-0.509810,0.405980,0
-10.050117,-1.663520,-0.393894,-0.978598,-0.166346,0.124094,43.869871,-0.777571,15.088462,4635731572685799400.000000,-0.752293,0.062656,-0.655810,-0.006501,-10.244155,-0.046686,-2.280547,-0.266474,-0.242739,-0.242282,39.222385,-18.996117,16.980497,4635727062433267700.000000,0.525505,-0.361225,0.690619,0.341184,-4.730443,3.108098,-2.220051,-0.440365,-0.057815,0.253710,44.129504,10.779137,8.029278,4635728995705421800.000000,-0.560885,-0.511564,-0.510218,0.404213,0
-10.112982,-1.938992,-0.720026,-0.955228,-0.180108,0.081949,43.922237,-1.061903,14.886287,4635731603275780100.000000,-0.752519,0.065459,-0.655241,-0.009477,-9.983261,0.140223,-2.117571,-0.283889,-0.262447,-0.246179,39.287796,-18.845261,16.859742,4635727062433267700.000000,0.526188,-0.362191,0.689260,0.341855,-3.196438,1.205681,-2.945367,-0.413233,-0.110338,0.265734,44.105347,10.717845,7.986838,4635728995705421800.000000,-0.562692,-0.510654,-0.510420,0.402595,0
-9.963367,-2.249359,-0.851181,-0.951428,-0.270241,0.075534,43.877026,-1.208463,14.605517,4635731680059981800.000000,-0.752980,0.068191,-0.654384,-0.012366,-9.480722,0.205911,-2.058759,-0.340769,-0.262266,-0.252147,39.416298,-18.701742,16.612062,4635727062433267700.000000,0.526795,-0.363287,0.687815,0.342666,-2.492997,-0.120917,-3.827427,-0.627431,-0.222576,0.275442,44.105347,10.527321,7.827887,4635728995705421800.000000,-0.565190,-0.509088,-0.510674,0.400751,0
-9.569049,-2.561633,-0.629825,-0.924757,-0.254419,0.073249,43.784406,-1.245228,14.456896,4635731680059981800.000000,-0.753394,0.070846,-0.653566,-0.015171,-9.189960,-0.431827,-1.986853,-0.402510,-0.276216,-0.234159,39.436351,-18.802355,16.423920,4635727062433267700.000000,0.527321,-0.364448,0.686273,0.343714,-3.634002,3.860563,-3.107077,-1.199365,-0.508065,0.144122,44.052819,10.347930,7.784871,4635728995705421800.000000,-0.569277,-0.505408,-0.511478,0.398593,0
-9.439722,-2.730904,-0.375030,-0.871352,-0.206788,0.073993,43.861122,-1.208455,14.643474,4635731680059981800.000000,-0.753682,0.073332,-0.652892,-0.017818,-9.177879,-1.042041,-1.692417,-0.401678,-0.280982,-0.193013,39.393291,-18.981100,16.268851,4635727062433267700.000000,0.527801,-0.365477,0.684784,0.344853,-4.306494,7.023524,-1.055439,-2.081215,-0.867619,-0.091218,44.032104,10.303048,7.718287,4635728995705421800.000000,-0.575562,-0.498505,-0.513355,0.395838,0
-9.582592,-2.758946,-0.333004,-0.822202,-0.169887,0.091537,43.970920,-1.314776,14.731005,4635731680059981800.000000,-0.753873,0.075674,-0.652327,-0.020440,-9.450036,-1.005904,-1.436863,-0.367623,-0.273446,-0.164551,39.458670,-18.960933,16.095761,4635727062433267700.000000,0.528268,-0.366359,0.683400,0.345944,-3.804659,2.881223,-1.208260,-2.792059,-1.154791,-0.296714,44.198441,10.311803,7.681910,4635728995705421800.000000,-0.583530,-0.488913,-0.516075,0.392585,0
-9.831973,-2.711741,-0.472371,-0.786489,-0.152965,0.111377,44.138333,-1.476935,14.520099,4635731680059981800.000000,-0.754018,0.077859,-0.651816,-0.023031,-9.704199,-0.450855,-1.324116,-0.358213,-0.254524,-0.149857,39.622394,-18.825234,15.890428,4635727062433267700.000000,0.528672,-0.367206,0.682091,0.347012,-3.638051,-1.700688,-0.799300,-3.134469,-1.316160,-0.416694,44.386608,10.148920,7.678457,4635728995705421800.000000,-0.592251,-0.477855,-0.519119,0.389113,0
-10.032623,-2.809232,-0.556619,-0.757650,-0.244058,0.125878,44.227507,-1.647832,14.294953,4635731680059981800.000000,-0.754410,0.079903,-0.651018,-0.025618,-9.840623,0.392295,-1.380926,-0.369576,-0.226635,-0.161921,39.687690,-18.774986,15.868202,4635727062433267700.000000,0.528989,-0.368163,0.680800,0.348050,-3.977308,-1.913343,0.047444,-3.345982,-1.415537,-0.535948,44.373680,9.908266,7.477151,4635728995705421800.000000,-0.601285,-0.465744,-0.522373,0.385572,0
-10.123412,-3.025472,-0.159332,-0.721820,-0.288175,0.132910,44.096889,-1.770074,14.261631,4635731680059981800.000000,-0.754925,0.081804,-0.650081,-0.028139,-9.922467,1.146049,-1.584810,-0.350539,-0.225819,-0.171532,39.637440,-18.774986,15.883260,4635727062433267700.000000,0.529351,-0.369093,0.679527,0.349000,-4.425535,-0.962070,0.382347,-3.560119,-1.508327,-0.675152,44.340743,9.786651,7.065086,4635728995705421800.000000,-0.610547,-0.452538,-0.525848,0.382002,0
-10.069605,-3.222567,0.258140,-0.671150,-0.229668,0.139287,43.922237,-1.790920,14.303696,4635731680059981800.000000,-0.755292,0.083477,-0.649337,-0.030454,-9.972020,0.536288,-1.483533,-0.338603,-0.219409,-0.178382,39.707827,-18.774986,15.672116,4635727062433267700.000000,0.529721,-0.370024,0.678274,0.349890,-5.157322,-0.562682,-0.019147,-3.771438,-1.580882,-0.824416,44.442324,9.879712,6.653707,4635728995705421800.000000,-0.619939,-0.438238,-0.529574,0.378385,0
-9.842936,-3.344829,0.270153,-0.626142,-0.245415,0.158242,43.991714,-1.916268,14.153935,4635731680059981800.000000,-0.755709,0.084954,-0.648549,-0.032713,-10.002170,-0.136426,-1.348562,-0.302973,-0.213756,-0.184224,39.808342,-18.769959,15.402148,4635727062433267700.000000,0.530131,-0.370911,0.677067,0.350666,-5.754462,-0.553009,-0.606613,-3.859475,-1.572218,-0.993678,44.475025,10.090887,6.473160,4635728995705421800.000000,-0.629010,-0.423210,-0.533588,0.374864,0
-9.668263,-3.230158,0.522591,-0.581112,-0.307338,0.155646,44.190710,-2.169170,13.928738,4635731680059981800.000000,-0.756301,0.086346,-0.647559,-0.034933,-9.827705,-0.020103,-1.321285,-0.221301,-0.223996,-0.173355,39.773162,-18.833138,15.384911,4635727062433267700.000000,0.530684,-0.371561,0.675978,0.351241,-5.869926,-0.748751,-0.979070,-3.757653,-1.477412,-1.168379,44.401570,10.384063,6.375508,4635728995705421800.000000,-0.637222,-0.408066,-0.537818,0.371726,0
-9.640468,-2.841226,0.894709,-0.540384,-0.308950,0.151537,44.251839,-2.392464,13.871085,4635731680059981800.000000,-0.756906,0.087627,-0.646563,-0.037040,-9.584260,-0.204597,-1.321236,-0.163683,-0.233169,-0.167260,39.758063,-18.933683,15.442365,4635727062433267700.000000,0.531343,-0.372051,0.674962,0.351681,-6.043306,-0.905397,-1.517051,-3.542145,-1.346134,-1.239892,44.373913,10.587704,6.277849,4635728995705421800.000000,-0.644480,-0.393408,-0.542015,0.368912,0
-9.560185,-2.542821,0.758960,-0.499460,-0.387998,0.135535,44.251839,-2.539036,13.855507,4635731680059981800.000000,-0.757736,0.088808,-0.645312,-0.039012,-9.498809,-0.422234,-1.545285,-0.134967,-0.248309,-0.159157,39.843516,-18.898510,15.407192,4635727062433267700.000000,0.532076,-0.372433,0.673965,0.352080,-6.772090,-0.143804,-1.758073,-3.183778,-1.195643,-1.208856,44.373913,10.571405,6.250190,4635728995705421800.000000,-0.650707,-0.379889,-0.545874,0.366450,0
-9.478431,-2.387610,0.556277,-0.480382,-0.503558,0.109745,44.248366,-2.600177,13.683264,4635731680059981800.000000,-0.758882,0.089974,-0.643686,-0.040890,-9.383208,-0.415052,-1.609959,-0.105061,-0.268920,-0.145395,39.888770,-18.813057,15.311690,4635727062433267700.000000,0.532892,-0.372678,0.672986,0.352458,-8.571229,1.002027,-1.336099,-2.849853,-1.050416,-1.114274,44.260178,10.713421,6.250190,4635728995705421800.000000,-0.656094,-0.367618,-0.549347,0.364164,0
-9.310891,-2.307085,0.695251,-0.463449,-0.499903,0.097181,44.215328,-2.624477,13.323884,4635731741129531400.000000,-0.760024,0.091058,-0.642072,-0.042609,-9.465701,-0.460275,-1.487885,-0.063153,-0.279477,-0.140116,40.017256,-18.692432,15.171675,4635727062433267700.000000,0.533793,-0.372800,0.672053,0.352745,-10.658669,3.229295,-0.923461,-2.653052,-0.983672,-0.972856,44.083969,11.120376,6.180193,4635728995705421800.000000,-0.661121,-0.356254,-0.552372,0.361783,0
-9.247945,-2.413352,1.077357,-0.449387,-0.494249,0.115475,44.178471,-2.685629,13.122958,4635731894808346600.000000,-0.761147,0.092049,-0.640481,-0.044346,-9.847722,-0.454580,-1.325624,-0.017603,-0.282870,-0.132265,40.346838,-18.591875,14.983549,4635727062433267700.000000,0.534766,-0.372786,0.671194,0.352922,-11.697971,5.598193,-0.445144,-2.512261,-0.946289,-0.865748,44.075849,11.535196,6.003797,4635728995705421800.000000,-0.665901,-0.345548,-0.555018,0.359342,0
-9.213356,-2.540816,1.227919,-0.444067,-0.501381,0.146431,44.284750,-2.709925,13.095191,4635731894808346600.000000,-0.762279,0.092939,-0.638875,-0.046169,-9.949100,-0.248538,-1.201348,0.030019,-0.281490,-0.118442,40.540787,-18.591875,14.828436,4635727062433267700.000000,0.535779,-0.372646,0.670419,0.353007,-12.044028,6.202989,0.083215,-2.345225,-0.869864,-0.747240,44.093140,11.698355,5.945005,4635728995705421800.000000,-0.670353,-0.335648,-0.557371,0.356799,0
-9.120490,-2.582704,1.168205,-0.429866,-0.525812,0.185660,44.467749,-2.819676,12.917695,4635731833746123800.000000,-0.763474,0.093605,-0.637213,-0.048006,-9.816915,-0.233265,-1.123151,0.068667,-0.268050,-0.119626,40.475495,-18.591875,14.811137,4635727062433267700.000000,0.536815,-0.372443,0.669727,0.352961,-11.978514,5.917945,0.336925,-2.089225,-0.762693,-0.610037,44.040649,11.666615,5.945005,4635728995705421800.000000,-0.674334,-0.326894,-0.559386,0.354262,0
-9.220059,-2.548142,1.361564,-0.421469,-0.535457,0.215124,44.618192,-3.011364,12.567083,4635731680059981800.000000,-0.764675,0.094293,-0.635510,-0.050073,-9.933135,-0.361964,-0.915621,0.105040,-0.242353,-0.131193,40.346932,-18.556716,14.828436,4635727062433267700.000000,0.537858,-0.372217,0.669133,0.352739,-11.463065,5.067266,0.220991,-1.708111,-0.605865,-0.493093,44.072375,11.698342,5.875033,4635728995705421800.000000,-0.677548,-0.319690,-0.561065,0.352042,0
-9.194107,-2.406659,1.635396,-0.412486,-0.522978,0.226920,44.511925,-3.234698,12.345285,4635731680059981800.000000,-0.765843,0.094861,-0.633857,-0.052074,-10.170155,-0.298694,-0.858765,0.159633,-0.217909,-0.136405,40.296638,-18.541577,14.690609,4635727062433267700.000000,0.538924,-0.371918,0.668665,0.352314,-10.938598,3.557584,-0.339751,-1.171627,-0.401178,-0.380636,44.084395,12.007682,5.777389,4635728995705421800.000000,-0.679688,-0.314569,-0.562339,0.350494,0
-9.047757,-2.342289,1.891743,-0.395238,-0.495814,0.215182,44.443418,-3.381316,12.237358,4635731680059981800.000000,-0.766942,0.095410,-0.632284,-0.053982,-10.267117,-0.286574,-1.313706,0.233695,-0.212054,-0.133716,40.331788,-18.591875,14.540491,4635727062433267700.000000,0.540083,-0.371454,0.668322,0.351679,-10.532447,1.930629,-1.166789,-0.528701,-0.184332,-0.247973,43.958499,12.226895,5.749687,4635728995705421800.000000,-0.680647,-0.311907,-0.563091,0.349803,0
-8.857581,-2.263502,2.148085,-0.383926,-0.430732,0.202341,44.602105,-3.442488,12.042050,4635731680059981800.000000,-0.767872,0.095971,-0.630912,-0.055792,-9.946645,-0.112150,-2.067040,0.337594,-0.229073,-0.105078,40.447348,-18.451322,14.485168,4635727062433267700.000000,0.541407,-0.370650,0.668135,0.350845,-10.101569,1.450862,-1.809570,0.113304,0.005710,-0.092750,43.866306,12.102292,5.758431,4635729149538843600.000000,-0.680554,-0.311699,-0.563244,0.349923,0
-8.697204,-2.328013,2.224075,-0.373291,-0.277453,0.201419,44.715717,-3.466771,11.850183,4635731680059981800.000000,-0.768394,0.096590,-0.630020,-0.057577,-9.325907,-0.301814,-2.354669,0.431308,-0.254077,-0.071518,40.601013,-18.149690,14.477981,4635727062433267700.000000,0.542895,-0.369502,0.668079,0.349862,-9.955960,1.632847,-1.886693,0.626266,0.142306,0.030279,43.848991,11.922825,5.691940,4635729210453786600.000000,-0.679652,-0.313432,-0.562877,0.350718,0
-8.581669,-2.408192,1.838721,-0.349442,-0.182228,0.215695,44.667158,-3.552220,11.691359,4635731680059981800.000000,-0.768675,0.097062,-0.629451,-0.059239,-9.338403,-0.804199,-2.277766,0.487041,-0.277956,-0.032209,40.687275,-17.970788,14.437829,4635727062433267700.000000,0.544470,-0.368094,0.668100,0.348858,-10.001499,2.583463,-1.890502,1.052192,0.285657,0.167237,43.901458,11.991479,5.594281,4635729210453786600.000000,-0.678040,-0.316913,-0.562101,0.351953,0
-8.739932,-2.436493,1.529535,-0.353216,-0.144337,0.261767,44.593360,-3.637664,11.593707,4635731680059981800.000000,-0.768840,0.097435,-0.629019,-0.061043,-9.487464,-0.698951,-1.994570,0.538440,-0.298440,0.017446,40.657164,-17.955596,14.420468,4635727062433267700.000000,0.546104,-0.366399,0.668221,0.347854,-11.587126,6.094443,-2.743603,1.279470,0.297627,0.366935,43.861041,12.036500,5.636513,4635729056664585200.000000,-0.676371,-0.321521,-0.560748,0.353140,0
-9.036662,-2.244926,1.414680,-0.358195,-0.094554,0.306654,44.785068,-3.747389,11.499516,4635731680059981800.000000,-0.768852,0.097789,-0.628750,-0.063070,-9.566621,-0.531281,-1.328228,0.568313,-0.320739,0.046415,40.578908,-17.970798,14.513102,4635727062433267700.000000,0.547806,-0.364510,0.668381,0.346855,-13.099127,7.488735,-1.485151,1.024336,0.174276,0.453874,43.897982,11.922849,5.664235,4635728995705421800.000000,-0.675444,-0.325423,-0.559297,0.353643,0
-9.230168,-1.995225,1.229626,-0.313688,-0.131451,0.346901,44.959866,-3.984162,11.445271,4635731680059981800.000000,-0.768966,0.097874,-0.628389,-0.065111,-9.981156,0.077020,-0.618854,0.539849,-0.344369,0.060445,40.558683,-17.920467,14.568449,4635727062433267700.000000,0.549507,-0.362609,0.668461,0.346001,-11.738969,5.104933,0.815357,0.696946,0.118839,0.498001,44.097094,11.825347,5.594293,4635728995705421800.000000,-0.675137,-0.328429,-0.558101,0.353339,0
-9.467203,-1.902700,1.211688,-0.259456,-0.182400,0.389399,44.914812,-4.272591,11.490477,4635731680059981800.000000,-0.769220,0.097661,-0.627895,-0.067168,-9.881303,1.403189,-0.274084,0.377346,-0.333745,0.026015,40.672059,-17.920467,14.495370,4635727062433267700.000000,0.550979,-0.361189,0.668276,0.345503,-10.107056,1.201080,0.489278,0.558347,0.126530,0.490990,44.166386,11.804559,5.627768,4635728995705421800.000000,-0.674979,-0.331045,-0.557133,0.352726,0
-9.574708,-1.874663,1.446765,-0.229722,-0.250371,0.388097,44.801170,-4.227546,11.556946,4635731680059981800.000000,-0.769661,0.097332,-0.627188,-0.069166,-9.647174,1.586173,-1.006272,0.132550,-0.300091,-0.048326,40.737616,-17.955580,14.340193,4635727062433267700.000000,0.552094,-0.360586,0.667701,0.345464,-8.811570,-1.720176,-0.042185,0.576743,0.157385,0.436916,44.113943,11.638494,5.730690,4635728995705421800.000000,-0.674641,-0.333625,-0.556300,0.352257,0
-9.300550,-1.864429,1.979292,-0.187183,-0.277249,0.346221,44.776916,-4.207445,11.527415,4635731680059981800.000000,-0.770203,0.096922,-0.626395,-0.070872,-10.042647,0.836505,-2.124878,0.025064,-0.323718,-0.089841,40.622068,-18.005920,14.242534,4635727062433267700.000000,0.553172,-0.360311,0.666853,0.345664,-8.342644,-2.067471,0.094618,0.601999,0.147051,0.420243,44.154320,11.406560,5.622056,4635728995705421800.000000,-0.674255,-0.336227,-0.555417,0.351913,0
-9.148995,-1.780642,2.581595,-0.140135,-0.110739,0.276013,44.715717,-4.536960,11.478421,4635731680059981800.000000,-0.770347,0.096598,-0.626120,-0.072169,-10.241553,0.641376,-2.327860,0.059117,-0.391940,-0.102276,40.563682,-17.935713,14.104766,4635727062433267700.000000,0.554507,-0.359893,0.665877,0.345843,-8.545750,-0.888725,0.459319,0.511577,0.127388,0.399438,44.231033,11.165880,5.435478,4635728995705421800.000000,-0.673998,-0.338509,-0.554632,0.351458,0
-8.925974,-1.738734,2.100015,-0.123586,-0.008277,0.212416,44.739952,-4.703853,11.456008,4635731680059981800.000000,-0.770249,0.096420,-0.626151,-0.073180,-9.622059,0.705202,-1.984793,0.095523,-0.443071,-0.122493,40.744385,-17.764825,13.909466,4635727062433267700.000000,0.556066,-0.359372,0.664803,0.345949,-8.756446,-0.021670,0.180501,0.417674,0.154188,0.372591,44.260577,11.044097,5.523286,4635728995705421800.000000,-0.673767,-0.340500,-0.554097,0.350820,0
-8.736863,-1.697005,1.374330,-0.135449,-0.124486,0.145966,44.821947,-4.528946,11.321897,4635731680059981800.000000,-0.770469,0.096412,-0.625779,-0.074048,-9.080582,-0.356073,-1.802091,0.111339,-0.468194,-0.128768,40.966525,-17.664112,13.759264,4635727062433267700.000000,0.557717,-0.358808,0.663673,0.346045,-9.089940,0.211133,-0.368861,0.440332,0.191866,0.378307,44.438835,10.970848,5.771052,4635728995705421800.000000,-0.673429,-0.342609,-0.553633,0.350147,0
-8.817020,-1.666943,1.323684,-0.171076,-0.174971,0.123537,44.853648,-4.646629,11.133524,4635731680059981800.000000,-0.770812,0.096564,-0.625224,-0.074960,-9.373531,-1.510209,-1.374874,0.211202,-0.492778,-0.090165,41.051968,-17.664112,13.708914,4635727062433267700.000000,0.559535,-0.357854,0.662692,0.345978,-9.527680,0.546501,-0.708412,0.579035,0.247753,0.407166,44.508194,10.897614,5.856084,4635728995705421800.000000,-0.672799,-0.345255,-0.553079,0.349633,0
-8.859308,-1.766420,1.181625,-0.227111,-0.179910,0.139356,44.776949,-5.013202,11.042220,4635731680059981800.000000,-0.771139,0.096860,-0.624640,-0.076080,-9.656458,-1.594892,-1.062935,0.354284,-0.524644,-0.023528,41.132399,-17.629027,13.708914,4635727062433267700.000000,0.561554,-0.356335,0.661938,0.345717,-9.891982,0.942285,-0.790012,0.674406,0.298845,0.423459,44.281005,10.702037,5.728484,4635728995705421800.000000,-0.671920,-0.348293,-0.552493,0.349237,0
-8.810092,-1.836204,1.012054,-0.283622,-0.284665,0.160414,44.694957,-5.188147,11.120944,4635731680059981800.000000,-0.771701,0.097291,-0.623702,-0.077509,-9.930039,-0.814732,-0.916443,0.448007,-0.564343,0.028571,41.245745,-17.543574,13.588615,4635727062433267700.000000,0.563743,-0.354392,0.661298,0.345376,-10.204090,1.145948,-0.653683,0.619070,0.324131,0.459065,44.190800,10.571487,5.606544,4635728995705421800.000000,-0.671093,-0.351311,-0.551991,0.348597,0
-8.789919,-1.883400,1.562805,-0.366220,-0.277051,0.263678,44.663233,-5.188147,11.065587,4635731680059981800.000000,-0.772182,0.097657,-0.622811,-0.079401,-10.260905,-0.096628,-0.649686,0.485468,-0.572527,0.026422,41.346474,-17.523279,13.295658,4635727062433267700.000000,0.565999,-0.352369,0.660675,0.344950,-10.212208,0.782219,-0.537004,0.513934,0.345044,0.493527,44.365539,10.555933,5.709837,4635728995705421800.000000,-0.670410,-0.354148,-0.551641,0.347594,0
-8.675402,-1.881770,2.016051,-0.411415,-0.204586,0.318558,44.760687,-5.212361,10.873738,4635731680059981800.000000,-0.772426,0.098115,-0.622147,-0.081639,-10.683773,-0.002560,-0.250329,0.514498,-0.563320,0.001912,41.276321,-17.536388,13.082870,4635727062433267700.000000,0.568303,-0.350350,0.660074,0.344366,-10.006236,-0.294802,-0.241866,0.450998,0.371297,0.518848,44.496107,10.498245,5.831790,4635728995705421800.000000,-0.669784,-0.356907,-0.551412,0.346341,0
-8.891880,-1.855525,1.875647,-0.418895,-0.267384,0.354468,44.919388,-5.322029,10.714840,4635731680059981800.000000,-0.772819,0.098432,-0.621297,-0.083975,-10.929998,-0.131457,-0.073883,0.568575,-0.554042,-0.017696,41.140496,-17.387984,12.945128,4635727062433267700.000000,0.570684,-0.348267,0.659538,0.343570,-9.718403,-1.235838,0.066668,0.514389,0.421239,0.533938,44.476715,10.255529,5.938186,4635728995705421800.000000,-0.668961,-0.359947,-0.551204,0.345114,0
-8.779048,-1.641174,1.542018,-0.484091,-0.426373,0.390591,44.988167,-5.513647,10.624112,4635731680059981800.000000,-0.773578,0.098808,-0.619922,-0.086659,-10.645651,0.346133,-0.365427,0.641584,-0.557517,-0.054956,41.225416,-17.166699,12.789893,4635727062433267700.000000,0.573226,-0.346103,0.659035,0.342487,-9.745194,-1.368805,0.443474,0.579149,0.455519,0.548743,44.406955,9.994070,5.969420,4635728995705421800.000000,-0.667969,-0.363252,-0.550968,0.343947,0
-8.054926,-0.828999,1.514698,-0.574921,-0.523687,0.337580,44.853672,-5.712851,10.543953,4635731680059981800.000000,-0.774562,0.099577,-0.618172,-0.089446,-9.907885,1.857737,-1.098183,0.709869,-0.580672,-0.114601,41.585053,-17.101021,12.812484,4635727062433267700.000000,0.576008,-0.343902,0.658480,0.341102,-10.296971,-0.081493,0.963353,0.446073,0.428878,0.607567,44.447263,9.811063,6.179062,4635728995705421800.000000,-0.667316,-0.366276,-0.550756,0.342344,0
-7.448034,-0.032412,1.709253,-0.654122,-0.584607,0.256422,44.821912,-5.798300,10.449754,4635731680059981800.000000,-0.775691,0.100784,-0.616155,-0.092196,-9.149831,2.817927,-1.859060,0.669115,-0.625472,-0.199875,41.617148,-16.910916,12.922630,4635727062433267700.000000,0.578969,-0.341961,0.657628,0.339682,-11.031231,2.039851,1.961687,0.135501,0.361240,0.644426,44.593867,9.713510,6.323546,4635728995705421800.000000,-0.667331,-0.368427,-0.550734,0.340034,0
-6.943229,0.422234,1.561604,-0.739488,-0.610918,0.180796,44.850225,-5.928670,10.253724,4635731680059981800.000000,-0.776868,0.102448,-0.613978,-0.094929,-9.141552,1.492494,-2.167276,0.479942,-0.650890,-0.302210,40.906270,-16.194743,12.780176,4635727062433267700.000000,0.581872,-0.340704,0.656298,0.338555,-11.854355,3.419233,3.002396,-0.325440,0.260961,0.694824,44.703607,9.640278,6.417717,4635728995705421800.000000,-0.668337,-0.369279,-0.550996,0.336692,0
-6.802531,0.811209,1.463768,-0.836325,-0.571294,0.147243,44.809698,-6.152083,9.781091,4635731680059981800.000000,-0.777905,0.104513,-0.611868,-0.097769,-9.504864,-0.254203,-1.673309,0.497272,-0.695284,-0.305844,40.238725,-15.591978,12.465625,4635727062433267700.000000,0.584919,-0.339345,0.654871,0.337428,-11.861730,3.562579,4.069815,-0.699702,0.228888,0.758306,44.675524,9.444762,6.655115,4635728995705421800.000000,-0.670068,-0.369186,-0.551587,0.332358,0
-7.013279,0.618416,1.942843,-0.891864,-0.507911,0.162239,44.907126,-6.278061,9.365601,4635731680059981800.000000,-0.778735,0.106744,-0.609936,-0.100769,-9.295109,-1.506596,-0.799924,0.600536,-0.730916,-0.254816,40.378473,-15.591416,12.297866,4635727062433267700.000000,0.588127,-0.337545,0.653562,0.336194,-11.200294,1.879193,4.487253,-0.892363,0.271375,0.826976,44.558620,9.095831,6.948078,4635728995705421800.000000,-0.672077,-0.368757,-0.552448,0.327309,0
-7.342401,0.270869,2.356260,-0.917699,-0.379357,0.217377,45.020905,-6.331725,9.159008,4635731680059981800.000000,-0.779194,0.108955,-0.608427,-0.103934,-9.220083,-2.041840,-0.561335,0.583133,-0.744729,-0.219272,40.789086,-15.635053,12.264946,4635727062433267700.000000,0.591288,-0.335665,0.652234,0.335108,-10.511631,0.307298,4.502749,-0.920267,0.373979,0.883718,44.651388,8.652812,7.241045,4635728995705421800.000000,-0.673950,-0.368503,-0.553536,0.321861,0
-7.776822,0.090975,2.125677,-0.991065,-0.169346,0.317608,44.975984,-6.514617,9.171215,4635731680059981800.000000,-0.779015,0.111316,-0.607588,-0.107613,-9.001828,-1.039970,-0.583324,0.595512,-0.745909,-0.179409,40.671986,-15.215397,12.082040,4635727062433267700.000000,0.594402,-0.333644,0.650963,0.334087,-10.205208,-0.681048,4.274011,-0.939090,0.483678,0.931169,44.773371,8.127803,7.464163,4635728995705421800.000000,-0.675637,-0.368440,-0.554866,0.316054,0
-8.257238,0.133109,1.569018,-1.111634,-0.005812,0.458512,44.886386,-6.738018,9.152332,4635731680059981800.000000,-0.778298,0.113721,-0.607288,-0.111898,-8.942192,-0.605808,-0.173697,0.609894,-0.719014,-0.173461,40.299680,-14.649294,11.696623,4635727062433267700.000000,0.597449,-0.331597,0.649779,0.332995,-10.488396,-0.866635,4.353058,-0.920244,0.620753,0.963345,44.871031,7.630865,7.589621,4635728995705421800.000000,-0.676985,-0.368681,-0.556481,0.309991,0
-8.930724,0.494736,1.176068,-1.208073,0.080017,0.573329,44.971839,-6.978008,9.061582,4635731680059981800.000000,-0.777247,0.116159,-0.607264,-0.116722,-10.211205,-0.551313,0.077180,0.643404,-0.721456,-0.186106,40.504790,-14.505002,11.371635,4635727062433267700.000000,0.600554,-0.329496,0.648605,0.331781,-11.249109,-0.510514,4.672293,-0.910522,0.780213,0.987755,44.855172,7.215938,7.835707,4635728995705421800.000000,-0.677943,-0.369207,-0.558467,0.303636,0
-9.240345,0.752219,0.824857,-1.279793,-0.137051,0.643629,45.008934,-7.413770,9.015972,4635731680059981800.000000,-0.776636,0.118621,-0.606501,-0.122159,-11.576250,0.480436,-0.611085,0.691049,-0.763739,-0.216939,41.013800,-14.714042,11.328470,4635727062433267700.000000,0.603869,-0.327296,0.647336,0.330417,-12.232697,0.328703,5.174676,-0.955435,0.940564,0.999793,44.855251,6.825347,8.193236,4635728995705421800.000000,-0.678571,-0.369827,-0.560914,0.296892,0
-8.825588,1.229365,0.633912,-1.392216,-0.482132,0.613744,44.971826,-7.812243,8.926452,4635731680059981800.000000,-0.776825,0.121339,-0.604525,-0.127945,-11.869308,2.099594,-1.907108,0.681750,-0.808471,-0.319463,41.014273,-14.742410,11.288366,4635727062433267700.000000,0.607421,-0.325329,0.645788,0.328875,-13.083491,1.073040,5.648902,-1.063216,1.070687,1.004978,44.879667,6.373617,8.580382,4635728995705421800.000000,-0.679024,-0.370301,-0.563820,0.289673,0
-8.218354,1.929702,1.454369,-1.508962,-0.532961,0.505381,45.053822,-8.007301,8.523880,4635731680059981800.000000,-0.777114,0.124634,-0.602246,-0.133643,-11.694285,3.376532,-2.904882,0.620141,-0.872076,-0.455209,41.206221,-14.643872,11.115525,4635727062433267700.000000,0.611236,-0.323783,0.643798,0.327230,-13.506827,1.527948,5.896302,-1.177790,1.180076,1.010778,44.851707,5.906297,8.970985,4635728995705421800.000000,-0.679351,-0.370583,-0.567124,0.281994,0
-7.195476,2.837902,1.622855,-1.650124,-0.342275,0.417797,45.085640,-8.308552,8.142833,4635731680059981800.000000,-0.776860,0.128708,-0.600430,-0.139309,-11.024876,4.123012,-2.478038,0.508143,-0.941981,-0.574445,42.199402,-14.766962,10.839799,4635727062433267700.000000,0.615232,-0.322743,0.641299,0.325671,-13.551932,1.129620,6.128275,-1.172489,1.326282,0.982823,44.794157,5.486107,9.501209,4635728995705421800.000000,-0.679238,-0.370964,-0.570836,0.274169,0
-6.328482,3.685347,0.788126,-1.879592,-0.022031,0.380865,44.984797,-8.675239,7.996107,4635731680059981800.000000,-0.775658,0.133797,-0.599462,-0.145252,-9.799791,3.457121,-0.982582,0.228696,-0.986292,-0.690950,43.033652,-14.984133,10.526145,4635727106506684400.000000,0.619115,-0.322658,0.638135,0.324609,-13.651458,0.351801,6.061734,-0.930324,1.564230,0.862517,44.864023,5.039643,10.287859,4635728995705421800.000000,-0.677999,-0.371976,-0.575098,0.266860,0
