Accelerometer-X,Accelerometer-Y,Accelerometer-Z,Gyroscope-X,Gyroscope-Y,Gyroscope-Z,Magnetometer-X,Magnetometer-Y,Magnetometer-Z,Barometer-pressure,Orientation-S,Orientation-X,Orientation-Y,Orientation-Z,Accelerometer-X,Accelerometer-Y,Accelerometer-Z,Gyroscope-X,Gyroscope-Y,Gyroscope-Z,Magnetometer-X,Magnetometer-Y,Magnetometer-Z,Barometer-pressure,Orientation-S,Orientation-X,Orientation-Y,Orientation-Z,Accelerometer-X,Accelerometer-Y,Accelerometer-Z,Gyroscope-X,Gyroscope-Y,Gyroscope-Z,Magnetometer-X,Magnetometer-Y,Magnetometer-Z,Barometer-pressure,Orientation-S,Orientation-X,Orientation-Y,Orientation-Z,jump
-9.635899,-0.173580,1.648527,0.472313,0.197930,-0.018992,45.313881,-3.108630,10.899142,4635732109556711400.000000,-0.779780,0.045844,-0.622663,-0.046176,-9.785783,0.045359,0.270019,-0.224585,0.217487,0.196219,43.634898,-15.979491,5.852087,4635728028800909300.000000,0.632292,-0.410226,0.562234,0.340315,-9.828442,-0.187165,-0.659200,-0.221721,-0.179903,-0.237129,39.343718,19.416096,10.949300,4635729210453786600.000000,0.567190,0.387514,0.628386,-0.365048,0
-9.715511,-0.355635,1.670832,0.515457,0.166624,-0.009706,45.389800,-3.023178,11.090690,4635732109556711400.000000,-0.779443,0.044226,-0.623303,-0.044793,-9.859205,-0.212617,0.248703,-0.280873,0.208672,0.171797,43.383117,-15.880016,5.998748,4635728028800909300.000000,0.631050,-0.410868,0.562706,0.341066,-9.689382,-0.493402,-0.659200,-0.202111,-0.180452,-0.233116,39.493504,19.397564,10.846858,4635729210453786600.000000,0.567622,0.386131,0.628652,-0.365384,0
-9.724512,-0.598218,1.738240,0.567523,0.123619,-0.013099,45.548507,-2.902677,10.944144,4635732109556711400.000000,-0.779223,0.042437,-0.623809,-0.043269,-9.976718,-0.432164,0.259451,-0.316090,0.202406,0.154054,43.295104,-15.874355,6.128291,4635728028800909300.000000,0.629785,-0.411634,0.563079,0.341863,-9.577301,-0.822220,-0.750906,-0.149657,-0.177508,-0.218814,39.491696,19.615367,10.840174,4635729210453786600.000000,0.567981,0.384912,0.628822,-0.365818,0
-9.605088,-0.873117,1.770074,0.628819,0.099569,-0.030467,45.514488,-2.784874,10.791345,4635732109556711400.000000,-0.779075,0.040488,-0.624242,-0.041531,-10.014627,-0.515806,0.153792,-0.327523,0.191439,0.143786,43.452688,-16.059275,6.111179,4635728096101443600.000000,0.628539,-0.412436,0.563388,0.342679,-9.547678,-1.002796,-0.848565,-0.101200,-0.175306,-0.201854,39.410708,19.927548,10.840174,4635729311282177000.000000,0.568282,0.383856,0.628894,-0.366335,0
-9.433676,-1.083268,1.793425,0.695965,0.080205,-0.056518,45.270371,-2.705801,10.791345,4635732109556711400.000000,-0.778986,0.038386,-0.624615,-0.039537,-9.971823,-0.632012,-0.128736,-0.299140,0.173140,0.134971,43.497909,-16.203941,6.079287,4635728136175091700.000000,0.627396,-0.413158,0.563673,0.343435,-9.660808,-1.093447,-0.831595,-0.078211,-0.180191,-0.180754,39.394037,20.015668,10.656785,4635729317827969000.000000,0.568591,0.382901,0.628886,-0.366870,0
-9.263304,-1.212244,1.830579,0.765441,0.061581,-0.083825,45.142979,-2.620349,10.744642,4635732109556711400.000000,-0.778955,0.036119,-0.624929,-0.037268,-9.895501,-0.695822,-0.409307,-0.258570,0.150841,0.128706,43.317610,-16.235846,6.140468,4635728136175091700.000000,0.626382,-0.413756,0.563946,0.344117,-9.691190,-1.144519,-0.784251,-0.034780,-0.176505,-0.154373,39.473531,19.951363,10.553151,4635729317827969000.000000,0.568859,0.382124,0.628777,-0.367450,0
-9.121063,-1.362964,1.819969,0.841460,0.058701,-0.107927,45.183837,-2.540739,10.734545,4635732109556711400.000000,-0.778936,0.033667,-0.625235,-0.034723,-9.802406,-0.634646,-0.653444,-0.221187,0.130689,0.125771,43.172886,-16.235846,6.115770,4635728136175091700.000000,0.625483,-0.414232,0.564214,0.344738,-9.635362,-1.113106,-0.872979,-0.001954,-0.177247,-0.129675,39.398501,19.946898,10.638902,4635729216999578600.000000,0.569115,0.381487,0.628577,-0.368058,0
-9.046752,-1.529096,1.794488,0.920225,0.052155,-0.132912,45.228428,-2.537540,10.872530,4635732109556711400.000000,-0.778941,0.030975,-0.625522,-0.031832,-9.796511,-0.651692,-0.782887,-0.167743,0.116545,0.122966,43.248022,-16.289375,6.140463,4635728136175091700.000000,0.624713,-0.414555,0.564517,0.345251,-9.643101,-1.248399,-0.856012,0.015042,-0.172299,-0.104111,39.324527,20.015660,10.828223,4635729210453786600.000000,0.569369,0.380965,0.628321,-0.368642,0
-9.021271,-1.587496,1.788651,0.993370,0.042262,-0.160173,45.304312,-2.499880,11.015315,4635732212241164300.000000,-0.778968,0.028182,-0.625770,-0.028746,-9.868275,-0.683615,-0.614536,-0.108741,0.107472,0.120431,43.411265,-16.321299,6.115777,4635728136175091700.000000,0.624069,-0.414717,0.564876,0.345633,-9.678229,-1.303204,-0.797217,0.049114,-0.172975,-0.077473,39.251286,20.020142,10.840174,4635729210453786600.000000,0.569611,0.380592,0.627969,-0.369253,0
-9.032944,-1.498883,1.741426,1.062982,0.046207,-0.187386,45.387127,-2.335357,11.100762,4635732324305076200.000000,-0.778982,0.025233,-0.626024,-0.025389,-9.877264,-0.714201,-0.309342,-0.057480,0.105348,0.118963,43.424685,-16.374823,6.079287,4635728136175091700.000000,0.623521,-0.414746,0.565300,0.345895,-9.737799,-1.065411,-0.839344,0.078359,-0.179059,-0.050757,39.246803,19.951347,10.668188,4635729210453786600.000000,0.569863,0.380349,0.627515,-0.369886,0
-9.080700,-1.281839,1.638473,1.119455,0.057445,-0.210560,45.311262,-2.129449,11.279579,4635732324305076200.000000,-0.778957,0.022160,-0.626306,-0.021805,-9.779475,-0.747736,0.064649,-0.016774,0.114444,0.123248,43.290273,-16.460273,6.079287,4635728136175091700.000000,0.623015,-0.414671,0.565814,0.346056,-9.752973,-1.026907,-0.911099,0.081114,-0.181455,-0.023052,39.304125,20.095938,10.381909,4635729210453786600.000000,0.570159,0.380181,0.627007,-0.370464,0
-9.183122,-1.041919,1.551413,1.161858,0.067106,-0.222592,45.263442,-1.844453,11.367773,4635732221647522800.000000,-0.778894,0.018977,-0.626608,-0.018066,-9.683433,-0.871529,0.403205,0.008836,0.133011,0.135406,43.180547,-16.591582,6.140444,4635728136175091700.000000,0.622491,-0.414527,0.566434,0.346157,-9.707856,-1.174463,-0.961414,0.078170,-0.182588,0.000707,39.307838,20.254634,10.364085,4635729210453786600.000000,0.570499,0.380065,0.626462,-0.370980,0
-9.329066,-0.893290,1.537595,1.200262,0.075650,-0.227932,45.377528,-1.555715,11.164017,4635732109556711400.000000,-0.778793,0.015681,-0.626924,-0.014203,-9.640768,-0.978191,0.566220,0.030068,0.149691,0.149691,43.206679,-16.704406,6.123437,4635728136175091700.000000,0.621944,-0.414319,0.567152,0.346215,-9.727818,-1.321711,-0.907055,0.095031,-0.187670,0.028222,39.376636,20.264290,10.272357,4635729311307165700.000000,0.570867,0.380054,0.625836,-0.371482,0
-9.481909,-0.813144,1.521173,1.239268,0.073476,-0.229699,45.425370,-1.352432,11.098579,4635732109556711400.000000,-0.778679,0.012262,-0.627220,-0.010232,-9.616353,-0.932210,0.598163,0.047817,0.167590,0.165583,43.292130,-16.789859,6.152647,4635728136175091700.000000,0.621362,-0.414052,0.567968,0.346241,-9.763691,-1.170119,-0.788714,0.120206,-0.194012,0.058996,39.449863,20.184045,10.266426,4635729317827969000.000000,0.571259,0.380172,0.625106,-0.371986,0
-9.581730,-0.693773,1.495137,1.271596,0.054485,-0.227052,45.346292,-1.187902,11.235023,4635732109556711400.000000,-0.778593,0.008731,-0.627438,-0.006187,-9.599583,-0.799411,0.475857,0.054745,0.184540,0.182005,43.324074,-16.875310,6.311459,4635728136175091700.000000,0.620727,-0.413752,0.568867,0.346264,-9.788849,-0.907513,-0.723958,0.121769,-0.196409,0.079942,39.534570,20.190301,10.254963,4635729317827969000.000000,0.571687,0.380344,0.624335,-0.372448,0
-9.560565,-0.499007,1.542340,1.296210,0.039106,-0.223338,45.336671,-0.982012,11.227146,4635732109556711400.000000,-0.778525,0.005110,-0.627589,-0.002091,-9.602662,-0.691149,0.234694,0.055544,0.194143,0.198026,43.171210,-16.960756,6.499120,4635728068947051500.000000,0.620046,-0.413425,0.569818,0.346309,-9.721559,-0.994309,-0.685847,0.133805,-0.196539,0.096225,39.459536,20.110802,10.082271,4635729317827969000.000000,0.572120,0.380587,0.623519,-0.372903,0
-9.503736,-0.355649,1.586962,1.319196,0.039378,-0.216514,45.415737,-0.737893,11.210593,4635732109556711400.000000,-0.778433,0.001394,-0.627723,0.002046,-9.599585,-0.697408,0.034939,0.062230,0.200551,0.214046,43.079926,-17.092048,6.575225,4635728028800909300.000000,0.619338,-0.413051,0.570822,0.346368,-9.694167,-1.001007,-0.695078,0.155650,-0.200551,0.121274,39.305306,19.956572,9.818917,4635729418656359400.000000,0.572568,0.380940,0.622618,-0.373360,0
-9.526512,-0.329053,1.575301,1.343666,0.037114,-0.211493,45.460369,-0.575387,11.255226,4635732109556711400.000000,-0.778322,-0.002412,-0.627830,0.006230,-9.625587,-0.750805,-0.001489,0.073581,0.200942,0.230737,43.186916,-17.151402,6.640927,4635728028800909300.000000,0.618623,-0.412608,0.571872,0.346442,-9.738525,-0.897851,-0.672898,0.178079,-0.199809,0.137881,39.364404,19.946898,9.619155,4635729425202151400.000000,0.573002,0.381390,0.621657,-0.373834,0
-9.575888,-0.335977,1.574209,1.369350,0.028425,-0.212514,45.419557,-0.537126,11.208582,4635732109556711400.000000,-0.778208,-0.006293,-0.627888,0.010475,-9.674419,-0.753781,0.050421,0.082656,0.197737,0.245822,43.189690,-17.105546,6.792089,4635728028800909300.000000,0.617909,-0.412100,0.572951,0.346539,-9.775893,-0.799446,-0.659945,0.191484,-0.204758,0.152900,39.517879,20.027129,9.595765,4635729425202151400.000000,0.573450,0.381903,0.620639,-0.374315,0
-9.641663,-0.358752,1.569471,1.389326,0.024615,-0.213630,45.299122,-0.379703,11.239194,4635732109556711400.000000,-0.778077,-0.010232,-0.627912,0.014773,-9.685036,-0.660593,-0.010814,0.097488,0.196539,0.258370,43.000337,-17.131649,7.105095,4635728028800909300.000000,0.617204,-0.411521,0.574069,0.346633,-9.755210,-0.633036,-0.613358,0.202294,-0.206087,0.163841,39.676556,19.963587,9.686702,4635729324398743600.000000,0.573901,0.382467,0.619583,-0.374798,0
-9.750976,-0.472254,1.521191,1.404789,0.017378,-0.214650,45.216221,-0.015143,11.456726,4635732109556711400.000000,-0.777937,-0.014224,-0.627891,0.019122,-9.718672,-0.556888,-0.168000,0.116712,0.188517,0.266107,42.916663,-17.316414,7.251197,4635728028800909300.000000,0.616538,-0.410862,0.575206,0.346715,-9.742255,-0.439213,-0.575989,0.207962,-0.205150,0.173520,39.766491,19.810120,9.600996,4635729317827969000.000000,0.574354,0.383070,0.618503,-0.375271,0
-9.832237,-0.584854,1.471818,1.425399,0.003542,-0.221886,45.210393,0.346855,11.497952,4635732109556711400.000000,-0.777803,-0.018269,-0.627801,0.023557,-9.787352,-0.547840,-0.277784,0.127248,0.179710,0.274791,42.607965,-17.201461,7.121307,4635728028800909300.000000,0.615898,-0.410141,0.576349,0.346808,-9.775892,-0.186564,-0.608133,0.190237,-0.212105,0.174108,39.760260,19.800407,9.423094,4635729317827969000.000000,0.574853,0.383621,0.617433,-0.375707,0
-9.857203,-0.610370,1.452681,1.454094,-0.012942,-0.234193,45.163215,0.553509,11.296255,4635732109556711400.000000,-0.777679,-0.022372,-0.627634,0.028108,-9.837670,-0.561541,-0.320464,0.143952,0.178649,0.286139,41.786663,-16.520487,7.020754,4635728028800909300.000000,0.615271,-0.409347,0.577532,0.346891,-9.732294,-0.170904,-0.587452,0.172017,-0.218577,0.172103,39.759514,19.800407,9.320236,4635729317827969000.000000,0.575393,0.384112,0.616378,-0.376111,0
-9.857753,-0.569567,1.452681,1.482060,-0.036202,-0.243904,45.042784,0.673940,11.194189,4635732109556711400.000000,-0.777583,-0.026542,-0.627365,0.032771,-9.874292,-0.561541,-0.321961,0.169456,0.175438,0.295215,41.048472,-15.980760,7.182750,4635728028800909300.000000,0.614680,-0.408460,0.578758,0.346940,-9.649089,-0.285492,-0.620332,0.162882,-0.222981,0.167961,39.828265,19.811868,9.222579,4635729317827969000.000000,0.575952,0.384562,0.615332,-0.376507,0
-9.810581,-0.449159,1.475991,1.505047,-0.057900,-0.249340,45.070591,0.914205,11.095119,4635732109556711400.000000,-0.777508,-0.030769,-0.626999,0.037513,-9.872717,-0.546261,-0.263915,0.191481,0.171703,0.299350,40.933079,-15.964373,7.410055,4635727961603458000.000000,0.614129,-0.407501,0.580011,0.346953,-9.689684,-0.350272,-0.645495,0.158348,-0.226251,0.162686,39.901510,19.812616,9.033248,4635729317827969000.000000,0.576517,0.384982,0.614293,-0.376910,0
-9.713488,-0.302135,1.501511,1.521868,-0.064647,-0.255093,45.308329,1.202981,10.934228,4635732109556711400.000000,-0.777411,-0.035092,-0.626580,0.042390,-9.833027,-0.537126,-0.170830,0.215385,0.170904,0.302823,41.198706,-16.127625,7.490777,4635727921426726900.000000,0.613613,-0.406469,0.581302,0.346916,-9.761423,-0.308185,-0.601163,0.162096,-0.225445,0.160353,39.974745,19.881361,9.021271,4635729317827969000.000000,0.577069,0.385406,0.613253,-0.377325,0
-9.685187,-0.138723,1.472380,1.528471,-0.072245,-0.264148,45.435955,1.406346,10.917579,4635732109556711400.000000,-0.777304,-0.039342,-0.626115,0.047230,-9.768928,-0.529488,-0.134281,0.238744,0.171572,0.307095,41.070029,-16.293939,7.434247,4635727921426726900.000000,0.613127,-0.405366,0.582633,0.346832,-9.788837,-0.190612,-0.586705,0.172384,-0.226382,0.150197,39.979244,19.817117,8.929612,4635729317827969000.000000,0.577589,0.385827,0.612210,-0.377792,0
-9.740395,-0.036622,1.446299,1.533156,-0.097490,-0.276819,45.511685,1.565033,10.956423,4635732109556711400.000000,-0.777226,-0.043563,-0.625544,0.052121,-9.764420,-0.502005,-0.172470,0.264118,0.171304,0.307358,40.827564,-16.617601,7.458788,4635727921426726900.000000,0.612682,-0.404197,0.583999,0.346686,-9.755966,-0.068538,-0.563041,0.177050,-0.221435,0.134503,39.910502,19.663670,8.751751,4635729317827969000.000000,0.578064,0.386225,0.611196,-0.378300,0
-9.777573,-0.048273,1.499284,1.537065,-0.124535,-0.291312,45.553874,1.764506,10.851010,4635732109556711400.000000,-0.777182,-0.047751,-0.624861,0.057070,-9.808675,-0.442478,-0.187682,0.281864,0.169567,0.303217,41.345457,-17.284611,7.632801,4635727921426726900.000000,0.612275,-0.402988,0.585376,0.346489,-9.753716,0.042079,-0.538626,0.172300,-0.216094,0.119483,39.974744,19.585175,8.648842,4635729317827969000.000000,0.578508,0.386582,0.610226,-0.378823,0
-9.796163,-0.055212,1.585293,1.537574,-0.141723,-0.304130,45.392693,2.008655,10.695912,4635732109556711400.000000,-0.777146,-0.051900,-0.624099,0.062063,-9.865141,-0.399779,-0.183111,0.286264,0.164090,0.297877,42.260998,-17.896317,7.730351,4635727921426726900.000000,0.611895,-0.401771,0.586736,0.346274,-9.742259,0.003006,-0.445478,0.175981,-0.206744,0.101524,39.979244,19.580675,8.551194,4635729116298456100.000000,0.578893,0.386916,0.609300,-0.379383,0
-9.750129,-0.008062,1.623585,1.538133,-0.160242,-0.315927,45.299995,2.252774,10.592440,4635732212009254900.000000,-0.777121,-0.056014,-0.623253,0.067097,-9.865089,-0.352458,-0.244198,0.283591,0.157950,0.292536,42.611472,-18.186067,7.747129,4635727988590347300.000000,0.611531,-0.400564,0.588065,0.346062,-9.741508,-0.045829,-0.382180,0.187272,-0.195125,0.084366,39.899046,19.500475,8.464981,4635729203855661100.000000,0.579203,0.387252,0.608412,-0.379994,0
-9.628623,0.112323,1.629408,1.538642,-0.168915,-0.324570,45.489698,2.496907,10.482581,4635732324305076200.000000,-0.777082,-0.060102,-0.622354,0.072160,-9.813198,-0.314329,-0.311311,0.289340,0.149937,0.285191,42.409891,-18.250069,7.927313,4635728028800909300.000000,0.611205,-0.399347,0.589367,0.345829,-9.730053,-0.071739,-0.321157,0.212049,-0.185382,0.066277,39.893795,19.495224,8.196274,4635729210453786600.000000,0.579418,0.387616,0.607536,-0.380695,0
-9.546749,0.224438,1.641616,1.537672,-0.165053,-0.330979,45.614922,2.776012,10.372708,4635732324305076200.000000,-0.776997,-0.064170,-0.621443,0.077239,-9.767435,-0.297551,-0.321966,0.309773,0.140324,0.275979,42.286446,-18.303509,8.154622,4635728028800909300.000000,0.610947,-0.398086,0.590657,0.345537,-9.786580,-0.073244,-0.271569,0.233677,-0.171759,0.048117,39.962528,19.575414,8.167504,4635729210453786600.000000,0.579534,0.388007,0.606688,-0.381472,0
-9.551452,0.238886,1.659646,1.535487,-0.165514,-0.337897,45.413008,3.139974,10.262847,4635732324305076200.000000,-0.776878,-0.068214,-0.620507,0.082337,-9.768985,-0.262439,-0.317392,0.329397,0.134719,0.263693,42.439141,-18.388963,8.166712,4635727894492973100.000000,0.610752,-0.396795,0.591939,0.345173,-9.847610,-0.004517,-0.211290,0.255038,-0.159879,0.027955,39.886858,19.649402,8.258389,4635729210453786600.000000,0.579552,0.388417,0.605866,-0.382332,0
-9.605539,0.132397,1.672414,1.533909,-0.163065,-0.344864,45.275570,3.549175,10.013250,4635732324305076200.000000,-0.776715,-0.072241,-0.619553,0.087458,-9.801030,-0.152546,-0.317392,0.334063,0.127507,0.251145,42.637462,-18.466773,8.137764,4635727814052544500.000000,0.610598,-0.395511,0.593186,0.344777,-9.828466,0.057272,-0.230435,0.273394,-0.147127,0.008663,40.030494,19.734100,8.172777,4635729210453786600.000000,0.579477,0.388843,0.605076,-0.383264,0
-9.672961,0.001687,1.684059,1.526679,-0.160173,-0.353311,45.389572,3.835572,9.755965,4635732324305076200.000000,-0.776510,-0.076219,-0.618588,0.092584,-9.845278,-0.082396,-0.317392,0.319907,0.117228,0.241400,42.548867,-18.555268,8.317861,4635727814052544500.000000,0.610458,-0.394272,0.594369,0.344407,-9.804053,0.118302,-0.312112,0.267499,-0.138319,-0.004549,40.189172,19.601934,7.891880,4635729210453786600.000000,0.579366,0.389234,0.604337,-0.384198,0
-9.739811,-0.071548,1.685187,1.510297,-0.164346,-0.356860,45.431830,4.000070,9.792201,4635732324305076200.000000,-0.776276,-0.080195,-0.617583,0.097757,-9.886474,-0.103768,-0.332654,0.303219,0.109217,0.232188,42.197898,-18.485042,8.415477,4635727814052544500.000000,0.610322,-0.393085,0.595491,0.344067,-9.722375,0.144980,-0.328845,0.252005,-0.131778,-0.023379,40.187526,19.512712,7.701981,4635729210453786600.000000,0.579234,0.389551,0.603669,-0.385127,0
-9.737388,-0.133148,1.713156,1.486439,-0.176357,-0.348514,45.352205,4.205885,9.922918,4635732324305076200.000000,-0.776062,-0.084036,-0.616529,0.102753,-9.915466,-0.144967,-0.334176,0.293339,0.095464,0.225913,41.988880,-18.428603,8.410901,4635727814052544500.000000,0.610212,-0.391918,0.596551,0.343757,-9.717093,0.112130,-0.341053,0.227966,-0.116350,-0.036593,40.106600,19.507431,7.599040,4635729210453786600.000000,0.579079,0.389800,0.603097,-0.386002,0
-9.634476,-0.071393,1.798608,1.458157,-0.180765,-0.334678,45.308061,4.444213,9.868117,4635732324305076200.000000,-0.775844,-0.087814,-0.615444,0.107627,-9.909359,-0.219736,-0.329600,0.291204,0.082648,0.222976,42.063666,-18.639189,8.540611,4635727881164629000.000000,0.610132,-0.390744,0.597570,0.343464,-9.705640,0.098414,-0.353260,0.191373,-0.109347,-0.048409,40.032603,19.576148,7.593005,4635729210453786600.000000,0.578947,0.389942,0.602619,-0.386802,0
-9.553146,0.129166,1.854957,1.424736,-0.171612,-0.320743,45.336592,4.606306,9.538961,4635732324305076200.000000,-0.775591,-0.091520,-0.614376,0.112363,-9.877313,-0.286877,-0.337230,0.290937,0.069696,0.222175,42.181161,-18.915387,8.740513,4635727921426726900.000000,0.610085,-0.389553,0.598553,0.343191,-9.693434,0.006047,-0.296757,0.167018,-0.101937,-0.062161,40.096784,19.660836,7.684618,4635729210453786600.000000,0.578812,0.390003,0.602221,-0.387561,0
-9.475753,0.378076,1.891025,1.384234,-0.168718,-0.304864,45.409857,4.761657,9.144260,4635732324305076200.000000,-0.775323,-0.095142,-0.613307,0.116950,-9.825432,-0.259405,-0.357067,0.285863,0.054075,0.223510,42.114010,-18.953517,8.752706,4635727921426726900.000000,0.610064,-0.388348,0.599489,0.342958,-9.658332,-0.011449,-0.327324,0.151538,-0.096465,-0.069031,40.021180,19.734818,7.599074,4635729210453786600.000000,0.578678,0.390017,0.601872,-0.388290,0
-9.359460,0.565711,1.957355,1.334863,-0.160657,-0.282571,45.448162,5.040305,8.978821,4635732324305076200.000000,-0.775039,-0.098662,-0.612258,0.121331,-9.772027,-0.209052,-0.381481,0.272378,0.041391,0.227649,42.001098,-18.822292,8.594015,4635727921426726900.000000,0.610046,-0.387148,0.600379,0.342789,-9.598814,-0.012207,-0.363946,0.121558,-0.090123,-0.077444,39.935728,19.956894,7.409828,4635729210453786600.000000,0.578562,0.389948,0.601600,-0.388952,0
-9.272910,0.656979,2.013666,1.276219,-0.139903,-0.259997,45.448162,5.369867,9.007398,4635732221813295100.000000,-0.774712,-0.102058,-0.611278,0.125477,-9.738458,-0.241090,-0.398265,0.263966,0.030710,0.231654,41.969051,-18.709379,8.635195,4635727921426726900.000000,0.610035,-0.385944,0.601236,0.342668,-9.583569,-0.069457,-0.274623,0.095588,-0.080708,-0.084988,40.159415,19.982761,7.569436,4635729210453786600.000000,0.578452,0.389813,0.601405,-0.389553,0
-9.229355,0.754626,2.003130,1.212794,-0.123081,-0.243321,45.483111,5.652829,8.905895,4635732109556711400.000000,-0.774356,-0.105297,-0.610362,0.129398,-9.767440,-0.337215,-0.372332,0.275446,0.022032,0.234859,42.022448,-18.784118,8.825926,4635727921426726900.000000,0.610057,-0.384688,0.602090,0.342539,-9.640048,-0.210612,-0.245668,0.082979,-0.076105,-0.086453,40.243250,19.983519,7.580798,4635729311142042600.000000,0.578349,0.389650,0.601244,-0.390117,0
-9.239891,0.834815,2.041678,1.145545,-0.104753,-0.226376,45.480630,5.855656,8.612900,4635732109556711400.000000,-0.773972,-0.108369,-0.609518,0.133082,-9.828477,-0.393685,-0.331131,0.294406,0.013887,0.240733,41.955341,-19.000790,8.906825,4635727921426726900.000000,0.610121,-0.383358,0.602958,0.342390,-9.643848,-0.334204,-0.232701,0.081246,-0.069829,-0.084517,40.098995,19.983519,7.317514,4635729317827969000.000000,0.578235,0.389499,0.601097,-0.390662,0
-9.294546,0.878376,2.123532,1.080751,-0.073972,-0.202513,45.435955,5.945005,8.593714,4635732109556711400.000000,-0.773535,-0.111307,-0.608786,0.136508,-9.904771,-0.364704,-0.317392,0.313232,0.008012,0.243538,41.743249,-19.145774,8.903776,4635727921426726900.000000,0.610224,-0.381962,0.603842,0.342209,-9.632402,-0.421937,-0.277729,0.086187,-0.061417,-0.076371,40.008984,19.972072,7.128321,4635729317827969000.000000,0.578105,0.389393,0.600950,-0.391187,0
-9.378872,0.920260,2.130472,1.014269,-0.049938,-0.173216,45.435955,5.985773,8.740500,4635732109556711400.000000,-0.773024,-0.114313,-0.608107,0.139905,-9.921574,-0.296050,-0.317392,0.331121,0.002405,0.246874,41.544893,-19.132073,9.082225,4635727921426726900.000000,0.610363,-0.380504,0.604740,0.341999,-9.711762,-0.473042,-0.303662,0.073500,-0.060884,-0.066825,40.072334,19.902638,7.116916,4635729317827969000.000000,0.578010,0.389281,0.600809,-0.391655,0
-9.465439,0.963824,2.170674,0.944696,-0.043285,-0.143260,45.430132,6.141097,8.554159,4635732109556711400.000000,-0.772576,-0.116976,-0.607501,0.142776,-9.828526,-0.238059,-0.317392,0.354884,-0.001335,0.250213,41.579894,-19.157968,9.314190,4635727921426726900.000000,0.610543,-0.378970,0.605666,0.341743,-9.774321,-0.567654,-0.270848,0.076640,-0.049868,-0.057212,40.088350,19.898067,7.288601,4635729317827969000.000000,0.577897,0.389219,0.600673,-0.392091,0
-9.468248,0.982415,2.233392,0.878985,-0.034574,-0.121045,45.388812,6.303155,8.303284,4635732109556711400.000000,-0.772141,-0.119487,-0.606943,0.145402,-9.762879,-0.158728,-0.317392,0.379319,-0.001469,0.251015,41.799591,-19.342551,9.273109,4635728055573594100.000000,0.610758,-0.377370,0.606626,0.341426,-9.778130,-0.596639,-0.245672,0.090928,-0.042124,-0.046597,40.157787,20.046860,7.208462,4635729519175499800.000000,0.577759,0.389230,0.600516,-0.392524,0
-9.418858,1.000443,2.275271,0.816888,-0.005769,-0.108130,45.309751,6.388602,8.386104,4635732109556711400.000000,-0.771661,-0.121846,-0.606501,0.147814,-9.746090,-0.022948,-0.317392,0.391741,-0.004404,0.248346,41.850058,-19.380811,9.143382,4635728136175091700.000000,0.611002,-0.375740,0.607589,0.341074,-9.743793,-0.552380,-0.232702,0.107885,-0.044662,-0.035915,40.231029,20.136883,7.202368,4635729532576333800.000000,0.577617,0.389305,0.600308,-0.392977,0
-9.434635,0.931701,2.266442,0.760684,0.010418,-0.094391,45.305808,6.468236,8.573732,4635732109556711400.000000,-0.771143,-0.124169,-0.606113,0.150157,-9.787253,0.097615,-0.294520,0.390811,-0.005075,0.240738,41.715826,-19.295365,9.221085,4635728136175091700.000000,0.611255,-0.374129,0.608535,0.340705,-9.707175,-0.583666,-0.209052,0.121969,-0.040857,-0.025235,40.086825,20.210881,7.110814,4635729532576333800.000000,0.577459,0.389446,0.600068,-0.393434,0
-9.484589,0.801558,2.250856,0.708807,0.002235,-0.077811,45.385433,6.547298,8.437952,4635732109556711400.000000,-0.770701,-0.126260,-0.605736,0.152192,-9.868124,0.202902,-0.257897,0.368791,-0.001604,0.231125,41.598289,-19.217536,9.411826,4635728136175091700.000000,0.611476,-0.372602,0.609442,0.340361,-9.659104,-0.643183,-0.344872,0.135856,-0.041591,-0.014553,39.859439,20.135342,7.207719,4635729532576333800.000000,0.577299,0.389646,0.599786,-0.393902,0
-9.462434,0.687008,2.364278,0.662173,0.012224,-0.060771,45.423748,6.586177,8.146862,4635732109556711400.000000,-0.770262,-0.128249,-0.605408,0.154048,-9.862083,0.343262,-0.282269,0.315400,-0.001334,0.217509,41.619578,-19.235783,9.485152,4635728136175091700.000000,0.611631,-0.371245,0.610250,0.340116,-9.656056,-0.704207,-0.182371,0.140728,-0.043660,0.002134,39.844963,19.981250,7.214575,4635729532576333800.000000,0.577162,0.389896,0.599465,-0.394344,0
-9.377542,0.546331,2.465332,0.622501,0.029201,-0.040064,45.307314,6.661294,8.091252,4635732109556711400.000000,-0.769808,-0.130173,-0.605144,0.155727,-9.823922,0.479071,-0.320430,0.241846,-0.000802,0.196153,41.758377,-19.370000,9.370812,4635728136175091700.000000,0.611701,-0.370130,0.610922,0.340002,-9.575957,-0.742358,0.012180,0.188054,-0.027774,0.020225,39.913621,20.120068,7.031492,4635729532576333800.000000,0.576938,0.390331,0.599074,-0.394835,0
-9.256604,0.458626,2.478103,0.583639,0.041771,-0.015038,45.179600,6.791441,8.183085,4635732109556711400.000000,-0.769356,-0.132043,-0.604928,0.157220,-9.837622,0.540164,-0.283862,0.190550,0.000000,0.173586,41.769201,-19.540909,9.363025,4635728136175091700.000000,0.611720,-0.369203,0.611487,0.339959,-9.559161,-0.893407,0.093071,0.269295,-0.015690,0.036382,39.906767,20.130009,6.847616,4635729532576333800.000000,0.576578,0.391021,0.598551,-0.395470,0
-9.115952,0.462745,2.425727,0.546569,0.065020,0.008098,45.330907,6.795409,8.140497,4635732109556711400.000000,-0.768875,-0.133866,-0.604796,0.158532,-9.851375,0.526465,-0.225865,0.149299,0.000000,0.155558,41.584657,-19.658449,9.453059,4635728136175091700.000000,0.611701,-0.368426,0.611965,0.339975,-9.592721,-0.857583,-0.096843,0.355604,-0.006945,0.039387,39.917443,19.912623,6.927676,4635729532576333800.000000,0.576060,0.391939,0.597902,-0.396298,0
-9.028230,0.546484,2.414786,0.522164,0.104550,0.026305,45.496990,6.709963,7.998129,4635732109556711400.000000,-0.768317,-0.135683,-0.604793,0.159701,-9.805642,0.428868,-0.253259,0.091100,-0.000667,0.139537,41.340522,-19.637187,9.424175,4635728136175091700.000000,0.611616,-0.367838,0.612334,0.340100,-9.720873,-0.682900,-0.270044,0.423103,-0.000402,0.036518,39.986858,19.898067,6.842275,4635729331306115100.000000,0.575408,0.393022,0.597160,-0.397289,0
-9.032336,0.558008,2.465895,0.505634,0.162436,0.041358,45.380631,6.746695,7.993564,4635732109556711400.000000,-0.767628,-0.137522,-0.604976,0.160747,-9.793374,0.477517,-0.273148,0.047551,-0.003736,0.122181,41.256439,-19.711799,9.273161,4635728136175091700.000000,0.611497,-0.367400,0.612607,0.340296,-9.809389,-0.419700,-0.212123,0.445279,0.003003,0.034315,39.991455,20.115451,6.744616,4635729418463078400.000000,0.574706,0.394157,0.596391,-0.398335,0
-9.162617,0.471414,2.349535,0.485998,0.206721,0.049594,45.293571,6.952506,8.126131,4635732109556711400.000000,-0.766840,-0.139349,-0.605305,0.161691,-9.764443,0.559987,-0.260943,0.002311,-0.003340,0.104025,41.360088,-19.768373,9.265344,4635728136175091700.000000,0.611333,-0.367124,0.612789,0.340561,-9.860512,-0.368525,-0.013048,0.465505,0.014215,0.039186,39.922814,20.061368,6.921524,4635729425202151400.000000,0.573949,0.395370,0.595606,-0.399398,0
-9.359089,0.468560,2.134466,0.461020,0.206192,0.054326,45.379027,7.080294,8.262133,4635732109556711400.000000,-0.766067,-0.141106,-0.605645,0.162557,-9.764368,0.611848,-0.263976,-0.088835,-0.004803,0.083200,41.465439,-19.664724,9.355382,4635728136175091700.000000,0.611063,-0.367131,0.612806,0.341007,-9.817823,-0.377662,-0.034319,0.504818,0.030970,0.048530,39.986849,19.988124,6.842287,4635729425202151400.000000,0.573099,0.396726,0.594777,-0.400508,0
-9.471803,0.634319,2.003728,0.427650,0.201480,0.055644,45.464475,6.963933,8.359786,4635732109556711400.000000,-0.765323,-0.142756,-0.605989,0.163336,-9.778130,0.726222,-0.253323,-0.164719,-0.008409,0.060769,41.492962,-19.551751,9.387493,4635728136175091700.000000,0.610718,-0.367383,0.612671,0.341596,-9.814753,-0.286911,-0.219659,0.547409,0.036048,0.053139,40.048652,20.132236,6.470073,4635729425202151400.000000,0.572170,0.398201,0.593879,-0.401702,0
-9.532264,0.845264,1.942123,0.396275,0.240457,0.050862,45.433575,6.719800,8.463257,4635732109556711400.000000,-0.764493,-0.144320,-0.606479,0.164028,-9.747653,0.857466,-0.167956,-0.174789,-0.003613,0.029672,41.393913,-19.572972,9.387493,4635728136175091700.000000,0.610389,-0.367746,0.612486,0.342124,-9.711807,-0.326524,-0.495024,0.609147,0.044324,0.042398,40.052490,20.210846,6.354002,4635729425202151400.000000,0.571097,0.399809,0.592912,-0.403059,0
-9.657853,0.933005,1.817680,0.365702,0.274464,0.050102,45.350502,6.667613,8.561484,4635732109556711400.000000,-0.763592,-0.145807,-0.607097,0.164624,-9.782635,0.819537,-0.045882,-0.148100,0.000000,-0.005978,41.235218,-19.711758,9.448447,4635728136175091700.000000,0.610143,-0.368137,0.612293,0.342488,-9.556188,-0.112272,-0.569902,0.620123,0.046864,0.018638,39.915231,20.135392,6.530863,4635729425202151400.000000,0.569956,0.401386,0.591968,-0.404492,0
-9.870018,0.934732,1.552028,0.326185,0.235894,0.055392,45.344687,6.907703,8.600404,4635732109556711400.000000,-0.762813,-0.147155,-0.607614,0.165126,-9.784276,0.700494,0.000000,-0.114988,0.003333,-0.044560,41.228907,-19.829327,9.546106,4635728136175091700.000000,0.609993,-0.368547,0.612097,0.342665,-9.672010,0.268367,-0.562310,0.554538,0.042995,-0.004928,39.963192,20.210076,6.360155,4635729425202151400.000000,0.568891,0.402740,0.591161,-0.405823,0
-10.009492,0.944627,1.414323,0.289210,0.174460,0.056204,45.338295,7.080294,8.594012,4635732109556711400.000000,-0.762211,-0.148344,-0.607960,0.165569,-9.704976,0.720146,-0.045710,-0.091877,0.011340,-0.085147,41.360061,-19.853826,9.529484,4635728136175091700.000000,0.609917,-0.369013,0.611891,0.342667,-9.760539,0.418799,-0.561541,0.445007,0.034719,-0.026426,40.035669,20.364159,6.256343,4635729425202151400.000000,0.567992,0.403765,0.590553,-0.406948,0
-9.993202,1.040558,1.452681,0.244342,0.151829,0.048828,45.303406,7.004698,8.553307,4635732109556711400.000000,-0.761688,-0.149357,-0.608268,0.165936,-9.645416,0.848250,-0.141787,-0.087451,0.016287,-0.125062,41.419720,-19.750231,9.550671,4635728136175091700.000000,0.609891,-0.369576,0.611643,0.342549,-9.811671,0.335764,-0.458608,0.316852,0.033180,-0.044784,40.040283,20.374157,6.250190,4635729224007619600.000000,0.567278,0.404439,0.590188,-0.407802,0
-9.932165,1.157395,1.365454,0.187730,0.118452,0.038706,45.299943,6.962304,8.549266,4635732109556711400.000000,-0.761276,-0.150141,-0.608515,0.166212,-9.631641,0.865274,-0.266874,-0.110644,0.019756,-0.158584,41.412105,-19.637238,9.521893,4635728136175091700.000000,0.609868,-0.370288,0.611318,0.342399,-9.849063,0.135174,-0.257248,0.213626,0.029110,-0.053936,40.051720,20.305534,6.341685,4635729311050240000.000000,0.566733,0.404838,0.590004,-0.408431,0
-9.795558,1.278297,1.240502,0.127564,0.056965,0.032604,45.344108,7.047745,8.727727,4635732109556711400.000000,-0.761053,-0.150675,-0.608613,0.166393,-9.692552,0.720489,-0.332620,-0.177202,0.021363,-0.179163,41.514106,-19.605089,9.370944,4635728136175091700.000000,0.609768,-0.371224,0.610870,0.342364,-9.771326,-0.209555,-0.164100,0.191211,0.033843,-0.058478,39.972441,20.369525,6.256366,4635729317827969000.000000,0.566205,0.405181,0.589876,-0.409006,0
-9.587453,1.366649,1.202719,0.069071,0.024618,0.036114,45.309808,7.051806,8.927105,4635732109556711400.000000,-0.760790,-0.151595,-0.608501,0.167166,-9.721686,0.372880,-0.326579,-0.259325,0.012702,-0.193451,41.578415,-19.650774,9.241127,4635728136175091700.000000,0.609582,-0.372391,0.610260,0.342516,-9.731617,-0.323424,-0.318792,0.219148,0.040184,-0.067753,39.886992,20.591428,6.170143,4635729317827969000.000000,0.565598,0.405578,0.589731,-0.409662,0
-9.479339,1.292231,1.184698,0.016732,0.035199,0.046694,45.305747,6.925658,8.804425,4635732109556711400.000000,-0.760701,-0.151799,-0.608597,0.167035,-9.679019,-0.013303,-0.317392,-0.325448,-0.003184,-0.205338,41.479423,-19.632645,9.318604,4635728136175091700.000000,0.609349,-0.373733,0.609496,0.342829,-9.729300,-0.558280,-0.466808,0.335161,0.045592,-0.088371,39.950190,20.606096,6.073267,4635729317827969000.000000,0.564746,0.406206,0.589435,-0.410641,0
-9.560118,1.155645,1.166099,-0.040175,0.042473,0.056967,45.350502,6.760596,8.565539,4635732109556711400.000000,-0.760636,-0.151854,-0.608750,0.166723,-9.640829,-0.207400,-0.325006,-0.390452,-0.026935,-0.204693,41.465402,-19.498496,9.265671,4635728136175091700.000000,0.609073,-0.375203,0.608577,0.343345,-9.660706,-0.962454,-0.350331,0.512934,0.053933,-0.100728,39.954830,20.457474,6.067080,4635729317827969000.000000,0.563549,0.407234,0.588872,-0.412070,0
-9.731586,1.122494,1.107413,-0.104153,0.031742,0.064443,45.309833,6.636780,8.613727,4635732109556711400.000000,-0.760645,-0.151717,-0.608908,0.166231,-9.639254,-0.388784,-0.329600,-0.367953,-0.046044,-0.204544,41.645210,-19.380899,9.017089,4635728136175091700.000000,0.608878,-0.376587,0.607641,0.343834,-9.507435,-0.874475,-0.158888,0.659506,0.066480,-0.108476,39.737613,20.515995,6.067080,4635729317827969000.000000,0.562056,0.408607,0.588098,-0.413854,0
-9.855422,1.135288,1.020787,-0.173429,0.017045,0.072428,45.265053,6.591998,8.716086,4635732109556711400.000000,-0.760739,-0.151371,-0.609063,0.165548,-9.636236,-0.491314,-0.283923,-0.256004,-0.049273,-0.209483,41.790400,-19.348734,8.789600,4635728136175091700.000000,0.608873,-0.377694,0.606847,0.344032,-9.588820,-0.180779,-0.203651,0.674663,0.073295,-0.121955,39.642864,20.817889,6.067080,4635729317827969000.000000,0.560492,0.409991,0.587331,-0.415691,0
-9.917634,1.152718,0.936510,-0.250130,-0.012401,0.080465,45.305721,6.632668,8.716086,4635732109556711400.000000,-0.760961,-0.150781,-0.609171,0.164663,-9.684928,-0.325418,-0.210681,-0.170850,-0.046734,-0.207497,41.761663,-19.242160,8.952071,4635728136175091700.000000,0.608992,-0.378582,0.606184,0.344014,-9.857934,0.322962,-0.333268,0.577048,0.068701,-0.135840,39.694593,21.055228,5.975631,4635729317827969000.000000,0.559078,0.411102,0.586742,-0.417326,0
-9.983306,1.206771,0.820833,-0.330292,-0.071241,0.088451,45.315643,6.636780,8.809046,4635732109556711400.000000,-0.761387,-0.149917,-0.609143,0.163585,-9.732315,-0.136013,-0.152667,-0.109583,-0.037273,-0.203087,41.724903,-19.078888,9.277178,4635728136175091700.000000,0.609176,-0.379317,0.605639,0.343839,-9.910082,0.022516,-0.444686,0.512379,0.066361,-0.139724,39.767062,21.001391,5.786525,4635729317827969000.000000,0.557771,0.412046,0.586263,-0.418814,0
-10.028676,1.309057,0.791715,-0.410347,-0.140673,0.096995,45.352780,6.632663,8.952070,4635732109556711400.000000,-0.762043,-0.148773,-0.608941,0.162321,-9.718674,-0.100674,-0.058168,-0.060810,-0.021389,-0.199216,41.732514,-19.171361,9.204822,4635728136175091700.000000,0.609391,-0.379940,0.605210,0.343525,-9.969567,-0.114310,-0.520260,0.421420,0.059224,-0.139927,39.851735,20.928147,5.682654,4635729317827969000.000000,0.556634,0.412764,0.585924,-0.420091,0
-10.028087,1.408479,0.905614,-0.492030,-0.188184,0.105540,45.511465,6.677450,8.857452,4635732109556711400.000000,-0.762872,-0.147359,-0.608637,0.160851,-9.704885,-0.140310,-0.027429,-0.050592,-0.004965,-0.191614,41.691446,-19.369836,8.858576,4635728136175091700.000000,0.609570,-0.380542,0.604848,0.343178,-10.133463,0.015081,-0.479200,0.286498,0.050747,-0.130927,39.845741,20.992066,5.585006,4635729317827969000.000000,0.555765,0.413175,0.585785,-0.421031,0
-10.063528,1.463708,1.046885,-0.578343,-0.216877,0.113577,45.594650,6.561279,8.622559,4635732109556711400.000000,-0.763828,-0.145671,-0.608290,0.159153,-9.682054,-0.211969,-0.029012,-0.070055,0.011057,-0.173344,41.602984,-19.327641,8.776970,4635728136175091700.000000,0.609651,-0.381169,0.604528,0.342902,-10.007182,-0.215634,-0.533243,0.203703,0.033199,-0.121312,39.696362,21.065320,5.498767,4635729317827969000.000000,0.555097,0.413387,0.585733,-0.421777,0
-10.107137,1.419618,1.151524,-0.663028,-0.231072,0.122577,45.519158,6.317159,8.585239,4635732109556711400.000000,-0.764872,-0.143725,-0.607944,0.157219,-9.645435,-0.365900,-0.054853,-0.094759,0.021085,-0.152510,41.665131,-19.111093,8.988764,4635728136175091700.000000,0.609637,-0.381821,0.604231,0.342725,-9.894997,-0.403385,-0.571415,0.110667,0.020043,-0.105699,39.686268,21.001400,5.401895,4635729317827969000.000000,0.554648,0.413398,0.585787,-0.422282,0
-10.131548,1.290564,1.254381,-0.737437,-0.235501,0.136814,45.435955,6.107875,8.596397,4635732109556711400.000000,-0.765973,-0.141575,-0.607619,0.155052,-9.654468,-0.492729,-0.103680,-0.114929,0.026828,-0.133950,41.778166,-19.019135,9.216259,4635728136175091700.000000,0.609551,-0.382485,0.603949,0.342636,-9.933710,-0.575046,-0.573748,0.031681,0.004227,-0.085679,39.686268,21.065303,5.395672,4635729217308006400.000000,0.554408,0.413247,0.585909,-0.422574,0
-10.138546,1.215529,1.382269,-0.805398,-0.236061,0.154465,45.395310,6.058894,8.498732,4635732109556711400.000000,-0.767118,-0.139250,-0.607318,0.152656,-9.698699,-0.456438,-0.137292,-0.139079,0.036829,-0.113794,41.810356,-19.064788,9.168091,4635728136175091700.000000,0.609371,-0.383173,0.603689,0.342644,-9.925398,-0.803088,-0.596604,-0.010295,-0.007795,-0.058385,39.766265,21.149974,5.567093,4635729210453786600.000000,0.554318,0.413045,0.586030,-0.422722,0
-10.137950,1.231159,1.481709,-0.870552,-0.228949,0.169523,45.391142,6.063062,8.540414,4635732109556711400.000000,-0.768282,-0.136758,-0.607065,0.150040,-9.701875,-0.361789,-0.184534,-0.169514,0.045652,-0.090434,41.962535,-19.039117,8.980382,4635728136175091700.000000,0.609087,-0.383893,0.603445,0.342774,-9.901762,-1.035029,-0.586735,-0.037817,-0.021545,-0.025613,39.623154,21.223998,5.761632,4635729210453786600.000000,0.554367,0.412835,0.586111,-0.422751,0
-10.121136,1.292786,1.560151,-0.933669,-0.222122,0.179292,45.476584,5.942796,8.648646,4635732109556711400.000000,-0.769459,-0.134091,-0.606858,0.147227,-9.692678,-0.382850,-0.207526,-0.174929,0.056720,-0.073857,42.153396,-18.908035,8.850548,4635728136175091700.000000,0.608742,-0.384599,0.603247,0.342941,-9.877351,-1.164104,-0.597382,-0.062518,-0.040428,0.012495,39.681583,21.160114,5.602701,4635729210453786600.000000,0.554571,0.412628,0.586127,-0.422663,0
-10.054894,1.347420,1.657810,-0.998617,-0.223243,0.185193,45.556232,5.784100,8.614420,4635732109556711400.000000,-0.770665,-0.131227,-0.606673,0.144228,-9.745926,-0.361803,-0.215133,-0.162251,0.067277,-0.064770,42.114310,-18.893872,8.813745,4635728069265975300.000000,0.608378,-0.385265,0.603109,0.343083,-9.910069,-1.251897,-0.609589,-0.098083,-0.059655,0.057947,39.766255,21.075444,5.499578,4635729210453786600.000000,0.554963,0.412415,0.586083,-0.422417,0
-9.923019,1.396847,1.714840,-1.059410,-0.218165,0.187486,45.594650,5.660233,8.476743,4635732109556711400.000000,-0.771878,-0.128175,-0.606528,0.141063,-9.740093,-0.162236,-0.272986,-0.164340,0.075157,-0.055962,41.902355,-18.929083,8.745278,4635728028800909300.000000,0.607978,-0.385926,0.603001,0.343240,-9.912412,-1.474494,-0.678938,-0.134404,-0.082883,0.112882,39.691724,21.149974,5.493331,4635729411490421800.000000,0.555570,0.412212,0.585955,-0.421995,0
-9.757328,1.416059,1.721244,-1.108139,-0.216116,0.188449,45.519216,5.615406,8.333660,4635732109556711400.000000,-0.773096,-0.124967,-0.606404,0.137768,-9.663847,-0.045824,-0.312792,-0.164774,0.083299,-0.053005,41.703865,-18.827191,8.764731,4635728028800909300.000000,0.607552,-0.386591,0.602918,0.343392,-9.878136,-1.546430,-0.797868,-0.157717,-0.113375,0.173412,39.400637,21.144005,5.676137,4635729425202151400.000000,0.556398,0.412049,0.585693,-0.421427,0
-9.639847,1.369632,1.750261,-1.161181,-0.227655,0.192669,45.401134,5.499338,8.341057,4635732109556711400.000000,-0.774354,-0.121590,-0.606257,0.134327,-9.616429,-0.051834,-0.271756,-0.159696,0.089182,-0.054073,41.791574,-18.762779,8.923234,4635728028800909300.000000,0.607121,-0.387254,0.602854,0.343520,-9.932915,-1.413239,-0.919940,-0.207140,-0.146351,0.240294,39.826661,20.720494,5.597249,4635729425202151400.000000,0.557508,0.411875,0.585325,-0.420640,0
-9.612430,1.277776,1.828708,-1.219527,-0.238600,0.193948,45.397530,5.173941,8.404497,4635732109556711400.000000,-0.775650,-0.118018,-0.606091,0.130737,-9.592016,-0.030617,-0.244148,-0.176718,0.088131,-0.060465,41.982468,-18.816014,8.996857,4635728028800909300.000000,0.606674,-0.387974,0.602753,0.343675,-10.039652,-1.335301,-0.973463,-0.298399,-0.186461,0.314585,40.908281,19.903215,5.488164,4635729425202151400.000000,0.559000,0.411600,0.584895,-0.419526,0
-9.654852,1.279369,1.903151,-1.285222,-0.256126,0.193282,45.552008,4.915587,8.323861,4635732109556711400.000000,-0.777000,-0.114220,-0.605887,0.126987,-9.552394,-0.019812,-0.244148,-0.194648,0.089847,-0.068747,42.095530,-18.848230,8.996857,4635728095689110500.000000,0.606204,-0.388762,0.602616,0.343852,-10.195202,-1.387726,-0.988016,-0.425371,-0.225047,0.399342,41.368661,19.426559,5.469701,4635729525683463200.000000,0.560950,0.411165,0.584450,-0.417968,0
-9.668866,1.342212,1.928770,-1.369236,-0.301318,0.196434,45.714920,4.911372,8.134948,4635732211634987000.000000,-0.778480,-0.110131,-0.605560,0.123033,-9.533982,0.074444,-0.274566,-0.211318,0.096518,-0.074893,42.135355,-18.947090,9.004461,4635728136175091700.000000,0.605700,-0.389617,0.602461,0.344045,-10.331049,-1.505881,-0.931681,-0.540622,-0.266499,0.497788,41.395306,19.249056,5.480340,4635729532576333800.000000,0.563364,0.410625,0.583934,-0.415967,0
-9.627047,1.326012,1.957780,-1.458554,-0.360676,0.204768,45.602498,4.840167,8.131105,4635732324305076200.000000,-0.780127,-0.105738,-0.605059,0.118849,-9.518773,0.293977,-0.308187,-0.253571,0.102665,-0.086222,42.086725,-19.006927,9.062296,4635728136175091700.000000,0.605127,-0.390615,0.602243,0.344305,-10.419636,-1.605107,-0.939186,-0.640920,-0.310156,0.601124,41.543812,19.090360,5.298346,4635729532576333800.000000,0.566228,0.410021,0.583306,-0.413549,0
-9.583417,1.270780,2.082626,-1.548621,-0.420383,0.221645,45.401147,4.555425,8.245798,4635732324305076200.000000,-0.781939,-0.101061,-0.604376,0.114403,-9.494360,0.390637,-0.317392,-0.301792,0.109336,-0.099845,42.046901,-18.854855,9.094516,4635728136175091700.000000,0.604477,-0.391777,0.601948,0.344640,-10.585035,-1.714178,-0.928548,-0.731251,-0.343950,0.704723,41.702490,18.943105,5.285806,4635729532576333800.000000,0.569497,0.409389,0.582568,-0.410717,0
-9.541598,1.221950,2.301149,-1.648202,-0.473706,0.247069,45.513541,4.266434,8.165187,4635732324305076200.000000,-0.783901,-0.096094,-0.603526,0.109641,-9.538374,0.390637,-0.317392,-0.366207,0.110825,-0.114658,42.042297,-18.762779,9.094516,4635728069299775500.000000,0.603738,-0.393140,0.601540,0.345097,-10.596026,-2.280931,-0.802119,-0.664063,-0.376063,0.823324,41.655587,18.785194,5.468561,4635729532576333800.000000,0.572920,0.409142,0.581424,-0.407813,0
-9.422570,1.109329,2.429273,-1.745817,-0.522570,0.289153,45.720702,4.022314,8.028495,4635732324305076200.000000,-0.785892,-0.091514,-0.602416,0.105328,-9.547795,0.398240,-0.363011,-0.445110,0.107358,-0.128684,42.049900,-18.914841,9.094516,4635728028800909300.000000,0.602897,-0.394730,0.600983,0.345721,-10.607448,-2.696339,-0.827748,-0.518126,-0.380123,0.947954,41.880105,18.340944,5.481124,4635729331641136100.000000,0.576304,0.409529,0.579797,-0.404963,0
-9.204693,0.897249,2.464063,-1.827359,-0.576532,0.351286,45.765556,3.737609,7.948852,4635732324305076200.000000,-0.788144,-0.086156,-0.601205,0.099792,-9.518774,0.303992,-0.428657,-0.491294,0.105747,-0.146825,42.054504,-19.060155,8.980456,4635728028800909300.000000,0.602007,-0.396476,0.600324,0.346416,-10.893754,-2.859301,-1.264095,-0.359539,-0.368269,1.077910,42.272695,17.808589,5.298391,4635729317827969000.000000,0.579593,0.410621,0.577697,-0.402155,0
-8.901931,0.641489,2.531513,-1.891425,-0.618272,0.427823,45.806148,3.448583,7.777022,4635732324305076200.000000,-0.790501,-0.080757,-0.599815,0.093851,-9.608438,0.190910,-0.314776,-0.502958,0.099757,-0.168191,41.948029,-18.993508,8.842955,4635728028800909300.000000,0.601142,-0.398295,0.599595,0.347096,-10.959101,-2.891581,-1.305405,-0.247354,-0.342460,1.192234,42.310073,17.339992,5.114495,4635729317827969000.000000,0.582806,0.412292,0.575260,-0.399285,0
-8.553733,0.349747,2.575151,-1.936712,-0.634934,0.518798,45.961174,3.239237,7.589039,4635732324305076200.000000,-0.792892,-0.075428,-0.598311,0.087502,-9.721499,0.181512,-0.209125,-0.529453,0.095468,-0.190219,41.837971,-18.933683,8.801538,4635728028800909300.000000,0.600271,-0.400227,0.598776,0.347793,-11.144980,-2.287856,-1.032095,-0.136405,-0.310760,1.292466,42.310860,17.081684,4.931383,4635729317827969000.000000,0.585901,0.414513,0.572527,-0.396372,0
-8.287317,0.026579,2.587970,-1.967953,-0.616325,0.615539,46.082947,3.033560,7.503593,4635732324305076200.000000,-0.795218,-0.070243,-0.596803,0.080749,-9.708093,0.248544,-0.263751,-0.563384,0.102384,-0.209986,41.909203,-18.933683,8.809142,4635728028800909300.000000,0.599352,-0.402300,0.597890,0.348511,-10.837825,-1.526743,-1.047472,-0.136240,-0.288711,1.347828,42.470729,16.711950,4.919583,4635729317827969000.000000,0.589017,0.416890,0.569735,-0.393273,0
-8.162180,-0.337808,2.541589,-1.985472,-0.584252,0.708575,46.048162,2.598091,7.336975,4635732324305076200.000000,-0.797437,-0.065236,-0.595330,0.073626,-9.726095,0.166710,-0.259561,-0.572667,0.108145,-0.228145,42.067905,-18.827227,8.752914,4635728028800909300.000000,0.598426,-0.404446,0.596969,0.349196,-12.208909,-1.499934,-1.323899,-0.242637,-0.281337,1.398169,42.858600,16.185073,4.919583,4635729317827969000.000000,0.592362,0.419123,0.567028,-0.389772,0
-8.188085,-0.613083,2.536673,-1.990974,-0.564468,0.789210,46.050271,1.985986,7.127028,4635732324305076200.000000,-0.799566,-0.060405,-0.593854,0.066201,-9.806947,-0.039222,-0.239545,-0.589425,0.108951,-0.245639,42.074518,-18.656315,8.586809,4635728028800909300.000000,0.597490,-0.406677,0.595992,0.349876,-13.309837,-2.597628,-0.554980,-0.159032,-0.270932,1.426387,43.124385,15.636590,4.828240,4635729317827969000.000000,0.595561,0.421631,0.564141,-0.386367,0
-8.379670,-0.573531,2.541619,-1.991589,-0.517360,0.841394,46.135711,1.528187,7.049466,4635732324305076200.000000,-0.801526,-0.055708,-0.592470,0.058582,-9.846771,-0.061245,-0.342995,-0.628908,0.106955,-0.254079,41.935847,-18.493029,8.447731,4635728028800909300.000000,0.596500,-0.409020,0.594934,0.350633,-12.831326,-1.657359,-0.717416,-0.116783,-0.197319,1.422120,43.152381,15.167237,4.833341,4635729317827969000.000000,0.598484,0.424337,0.561356,-0.382928,0
-8.740934,-0.411117,2.304906,-1.981902,-0.454088,0.860819,46.180607,1.198587,6.974765,4635732324305076200.000000,-0.803263,-0.051106,-0.591240,0.050906,-9.965421,0.005997,-0.509287,-0.654213,0.103086,-0.261940,41.924615,-18.433180,8.410901,4635727961925593100.000000,0.595484,-0.411436,0.593810,0.351438,-12.998853,-0.616574,-0.846608,-0.158245,-0.125338,1.444680,43.233083,14.703360,4.925462,4635729317827969000.000000,0.601327,0.427092,0.558758,-0.379194,0
-9.256928,-0.458913,2.122846,-1.967239,-0.424833,0.857488,46.215367,0.793695,6.803871,4635732222393655300.000000,-0.804857,-0.046550,-0.590056,0.043270,-10.194150,-0.173265,-0.520526,-0.644411,0.089499,-0.276613,42.169731,-18.585240,8.296855,4635727921426726900.000000,0.594534,-0.413840,0.592637,0.352203,-11.860042,0.877708,-1.413918,-0.188261,-0.015813,1.411310,43.329952,14.159564,4.943207,4635729418244026400.000000,0.603894,0.429852,0.556521,-0.375266,0
-9.714810,-0.654230,2.055813,-1.955091,-0.388861,0.836614,46.300196,0.270643,6.725658,4635732109556711400.000000,-0.806291,-0.041983,-0.588945,0.035718,-10.321249,-0.308182,-0.526307,-0.623575,0.070274,-0.289046,42.397480,-18.669724,8.227790,4635727921426726900.000000,0.593681,-0.416191,0.591420,0.352917,-11.677410,1.193477,-2.012014,-0.322972,0.085343,1.336973,43.564580,13.621707,4.772774,4635729425202151400.000000,0.606331,0.432244,0.554863,-0.371019,0
-10.003860,-0.756859,1.831528,-1.926957,-0.311031,0.798541,46.310958,-0.221383,6.703728,4635732109556711400.000000,-0.807460,-0.037422,-0.588052,0.028342,-10.233248,-0.248978,-0.655756,-0.609005,0.057700,-0.297994,42.404138,-18.566299,8.227790,4635727921426726900.000000,0.592892,-0.418506,0.590173,0.353592,-11.008215,1.277022,-1.731227,-0.388127,0.188744,1.216119,43.820141,13.221564,4.852206,4635729425202151400.000000,0.608440,0.434339,0.553769,-0.366729,0
-10.247979,-0.687359,1.627329,-1.891838,-0.214621,0.749575,46.190766,-0.555301,6.630492,4635732109556711400.000000,-0.808320,-0.032872,-0.587442,0.021203,-10.115556,-0.374761,-0.933082,-0.586613,0.039842,-0.298557,42.371899,-18.453212,8.227790,4635727921426726900.000000,0.592183,-0.420738,0.588909,0.354239,-9.637965,1.647097,-1.320884,-0.437961,0.286373,1.022276,43.928115,12.762386,5.121120,4635729425202151400.000000,0.610103,0.435999,0.553335,-0.362629,0
-10.428418,-0.592995,1.336050,-1.865135,-0.135952,0.694702,46.147903,-0.834197,6.551456,4635732109556711400.000000,-0.808922,-0.028285,-0.587060,0.014306,-10.098516,-0.552096,-1.084846,-0.521197,0.011690,-0.288964,42.470707,-18.420971,8.106179,4635727921426726900.000000,0.591639,-0.422739,0.587685,0.354797,-8.096663,0.040271,-1.042886,-0.480094,0.395538,0.739754,43.957271,12.355673,5.333348,4635729224418227200.000000,0.611152,0.437056,0.553745,-0.358945,0
-10.561460,-0.533201,0.982818,-1.831334,-0.096226,0.631950,46.308662,-1.157402,6.465999,4635732109556711400.000000,-0.809366,-0.023660,-0.586778,0.007698,-10.054535,-0.750147,-1.098666,-0.426970,-0.021943,-0.276148,42.530594,-18.367777,8.093265,4635727921426726900.000000,0.591322,-0.424425,0.586537,0.355213,-6.534758,-2.595909,-0.808541,-0.281047,0.523546,0.472300,44.107250,12.192500,5.426746,4635729210453786600.000000,0.611135,0.438190,0.554663,-0.356164,0
-10.749094,-0.453550,0.842936,-1.789174,-0.072168,0.554983,46.436962,-1.452218,6.340020,4635732109556711400.000000,-0.809692,-0.018990,-0.586546,0.001451,-9.999482,-0.979087,-1.075870,-0.303439,-0.053201,-0.262001,42.530594,-18.282329,8.190920,4635727921426726900.000000,0.591276,-0.425724,0.585517,0.355417,-5.371846,-4.311902,-0.747827,0.095484,0.664762,0.242312,44.197449,12.182988,5.603497,4635729210453786600.000000,0.609757,0.439956,0.555797,-0.354577,0
-10.968799,-0.496104,0.806946,-1.747467,-0.057790,0.467460,46.361699,-1.737489,6.255980,4635732109556711400.000000,-0.809932,-0.014246,-0.586334,-0.004400,-10.069241,-1.039248,-0.955663,-0.158596,-0.086030,-0.245717,42.522995,-18.151285,8.167001,4635727921426726900.000000,0.591542,-0.426577,0.584659,0.355365,-4.179634,-5.149450,-0.288170,0.655925,0.789833,0.053767,43.997589,12.103105,5.980591,4635729210453786600.000000,0.606775,0.442889,0.556759,-0.354533,0
-11.165385,-0.765450,0.752323,-1.704341,-0.060610,0.383359,46.243525,-2.060689,6.360831,4635732109556711400.000000,-0.810134,-0.009438,-0.586086,-0.009867,-10.135133,-0.827880,-0.822761,-0.034732,-0.115958,-0.229958,42.518387,-17.985002,8.008566,4635727921426726900.000000,0.592078,-0.427041,0.583937,0.355103,-3.542503,-3.009262,-0.302003,1.117609,0.946690,-0.175026,43.994684,12.097537,6.279929,4635729210453786600.000000,0.602221,0.446677,0.557842,-0.355839,0
-11.214699,-1.051228,0.726026,-1.658920,-0.057613,0.317491,46.280285,-2.309219,6.522030,4635732109556711400.000000,-0.810288,-0.004621,-0.585822,-0.015002,-10.113960,-0.616852,-0.819264,0.052947,-0.138673,-0.227635,42.472797,-17.867281,7.752457,4635727921426726900.000000,0.592820,-0.427248,0.583292,0.354674,-4.633306,-2.970652,-1.492027,1.405814,1.072892,-0.433775,43.995480,12.245892,6.470199,4635729210453786600.000000,0.596426,0.450753,0.559269,-0.358213,0
-11.100310,-1.205383,0.738233,-1.607476,-0.060729,0.276860,46.404238,-2.508425,6.492960,4635732109556711400.000000,-0.810412,0.000121,-0.585523,-0.019873,-10.095523,-0.531149,-0.773931,0.123062,-0.152984,-0.232976,42.490728,-17.781832,7.581052,4635728055084006400.000000,0.593730,-0.427274,0.582705,0.354087,-5.248419,-4.199684,-1.882877,1.686458,1.143874,-0.623507,43.835714,12.610003,6.573427,4635729310831186900.000000,0.589614,0.455159,0.560770,-0.361555,0
-10.971180,-1.333254,0.860441,-1.546698,-0.074264,0.255111,46.373907,-2.793115,6.361943,4635732109556711400.000000,-0.810535,0.004713,-0.585158,-0.024528,-10.027156,-0.489922,-0.618500,0.185694,-0.159676,-0.238316,42.563963,-17.696390,7.665716,4635728136175091700.000000,0.594774,-0.427147,0.582183,0.353345,-5.593891,-2.459108,-1.413701,1.836556,1.153251,-0.786310,43.676241,12.999800,6.750949,4635729317827969000.000000,0.582200,0.459529,0.562329,-0.365599,0
-10.762911,-1.409640,1.127730,-1.483174,-0.054455,0.248317,46.215220,-3.082174,6.329224,4635732109556711400.000000,-0.810578,0.009113,-0.584841,-0.029009,-10.008446,-0.506475,-0.488560,0.237536,-0.166608,-0.246980,42.599225,-17.717289,7.853444,4635728136175091700.000000,0.595938,-0.426901,0.581704,0.352468,-6.049004,-1.019410,-0.831734,1.791845,1.127641,-0.936617,43.665882,13.321971,7.025342,4635729317827969000.000000,0.574648,0.463356,0.564129,-0.369918,0
-10.410810,-1.416059,1.345445,-1.421115,-0.026529,0.252424,46.166506,-3.251063,6.335642,4635732109556711400.000000,-0.810524,0.013296,-0.584604,-0.033350,-10.060259,-0.410974,-0.428885,0.276557,-0.173824,-0.262979,42.702590,-17.643217,7.861834,4635728136175091700.000000,0.597212,-0.426585,0.581233,0.351469,-6.467196,-0.722399,-0.633754,1.724188,1.090887,-1.058188,43.369244,13.764829,7.214808,4635729117123023900.000000,0.567072,0.466636,0.566128,-0.374406,0
-10.072265,-1.421847,1.433423,-1.365857,-0.023278,0.265978,46.245538,-3.330727,6.289338,4635732109556711400.000000,-0.810435,0.017255,-0.584366,-0.037597,-10.060528,-0.326616,-0.369477,0.315389,-0.183555,-0.284863,42.754940,-17.426746,7.703414,4635728136175091700.000000,0.598608,-0.426210,0.580755,0.350338,-7.053380,-0.502667,-0.337352,1.687773,1.037530,-1.161847,43.040447,14.307771,7.500599,4635729203431234600.000000,0.559479,0.469460,0.568205,-0.379122,0
-9.785740,-1.578718,1.446894,-1.314141,-0.058658,0.289309,46.290474,-3.450256,6.197477,4635732109556711400.000000,-0.810407,0.020975,-0.583999,-0.041795,-10.039097,-0.469307,-0.341807,0.366351,-0.207268,-0.317003,42.742730,-17.129428,7.568861,4635728136175091700.000000,0.600197,-0.425750,0.580232,0.349044,-7.377727,0.321743,0.002060,1.642611,0.949113,-1.247419,42.939026,14.845696,7.862031,4635729210453786600.000000,0.551997,0.471793,0.570264,-0.384070,0
-9.463854,-1.757230,1.573546,-1.256687,-0.124823,0.303860,46.249973,-3.580647,6.065745,4635732109556711400.000000,-0.810517,0.024451,-0.583401,-0.045904,-9.935753,-0.166609,-0.379781,0.365143,-0.241565,-0.354385,42.844446,-16.951749,7.471209,4635728136175091700.000000,0.601918,-0.425330,0.579553,0.347718,-7.363463,0.994442,0.070045,1.553764,0.854338,-1.311829,42.773732,15.394168,7.885983,4635729210453786600.000000,0.544764,0.473576,0.572323,-0.389108,0
-9.046165,-1.787433,1.836975,-1.183592,-0.168830,0.297840,46.205021,-3.700824,5.928915,4635732109556711400.000000,-0.810721,0.027683,-0.582652,-0.049817,-9.769495,0.361758,-0.562286,0.294952,-0.281197,-0.408371,43.060873,-17.018163,7.381161,4635728002611141600.000000,0.603685,-0.425157,0.578573,0.346495,-7.783143,1.699267,-0.474318,1.356100,0.711361,-1.363870,42.374676,15.932089,7.703462,4635729210453786600.000000,0.538134,0.474517,0.574435,-0.394043,0
-8.476895,-1.864554,2.081109,-1.089032,-0.159143,0.277373,46.170307,-3.900012,5.889754,4635732109556711400.000000,-0.810896,0.030649,-0.581939,-0.053430,-9.704885,0.871186,-0.757899,0.230734,-0.328168,-0.484417,43.153172,-16.971865,7.341265,4635727921426726900.000000,0.605558,-0.425259,0.577244,0.345317,-8.577044,1.551730,-0.775084,1.077151,0.648871,-1.381203,41.891179,16.617513,7.690664,4635729009776298000.000000,0.532141,0.474656,0.576860,-0.398448,0
-7.806205,-2.119654,2.383071,-0.956529,-0.100337,0.246062,46.131779,-4.103640,6.035001,4635732109556711400.000000,-0.810937,0.033255,-0.581439,-0.056609,-9.583415,1.491806,-0.833080,0.120225,-0.373720,-0.569723,43.145580,-16.755415,7.336649,4635727921426726900.000000,0.607463,-0.425776,0.575485,0.344267,-12.177954,5.906697,-7.089689,1.136382,0.794867,-1.439072,41.699499,17.164977,7.781914,4635728995705421800.000000,0.525548,0.474999,0.579586,-0.402808,0
-7.267203,-2.493575,2.575762,-0.791079,-0.025344,0.203221,46.131779,-4.187140,6.189154,4635732109556711400.000000,-0.810817,0.035422,-0.581216,-0.059229,-9.608255,1.123168,-0.796763,0.018920,-0.417772,-0.661553,43.186511,-16.450548,7.275919,4635727921426726900.000000,0.609421,-0.426702,0.573302,0.343304,-9.986236,12.612377,-5.946523,-0.425060,0.390202,-1.390172,41.676876,17.645067,7.868166,4635728995705421800.000000,0.523076,0.471336,0.583919,-0.404070,0
-7.091224,-2.580871,2.436937,-0.643118,0.021872,0.146383,46.166484,-4.111942,6.096603,4635732109556711400.000000,-0.810612,0.037232,-0.581176,-0.061284,-9.941519,0.175368,-0.807019,0.014036,-0.470601,-0.741335,43.358425,-16.063223,7.109953,4635727921426726900.000000,0.611602,-0.427750,0.570828,0.342239,-13.316418,18.536838,-1.991291,-1.471296,0.211329,-1.133954,41.390925,17.881629,8.227364,4635728995705421800.000000,0.523499,0.465691,0.589091,-0.402558,0
-7.301970,-2.437622,2.271219,-0.521139,-0.010404,0.089947,46.205021,-4.109404,5.860828,4635732109556711400.000000,-0.810514,0.038757,-0.581046,-0.062855,-10.107730,-0.026696,-0.784564,0.028436,-0.524294,-0.805853,43.544816,-15.746859,6.910026,4635727921426726900.000000,0.614021,-0.428833,0.568115,0.341067,-12.729881,23.471954,-5.712892,-2.618801,0.238732,-0.928607,41.085772,18.101337,8.799630,4635728995705421800.000000,0.526373,0.458048,0.595791,-0.397689,0
-7.715735,-2.329040,2.414506,-0.408704,-0.095180,0.053969,46.245501,-4.274524,5.672585,4635732109556711400.000000,-0.810645,0.039972,-0.580650,-0.064053,-10.107730,-0.166660,-0.734089,0.016886,-0.568924,-0.866737,43.756641,-15.498093,6.661578,4635727921426726900.000000,0.616600,-0.430018,0.565153,0.339841,-12.454571,19.572016,-5.902587,-3.758830,0.176530,-0.690847,41.077110,18.195629,9.362835,4635729096030435300.000000,0.531868,0.448303,0.603675,-0.389509,0
-8.027980,-2.217889,2.703628,-0.322634,-0.151847,0.036654,46.290474,-4.473701,5.679659,4635732109556711400.000000,-0.810929,0.040928,-0.580082,-0.065001,-10.267117,-0.502522,-0.773366,0.044147,-0.611506,-0.930278,43.947662,-15.193226,6.373218,4635727921426726900.000000,0.619407,-0.431214,0.561994,0.338457,-10.477498,9.192517,2.122296,-3.455329,0.051210,-0.538339,41.100723,18.201239,9.935786,4635729103079604200.000000,0.537234,0.439307,0.610363,-0.381898,0
-8.210437,-2.097750,2.808989,-0.255064,-0.204239,0.023331,46.255780,-4.642666,5.737480,4635732109556711400.000000,-0.811352,0.041678,-0.579350,-0.065755,-10.379263,-0.463209,-0.669087,0.099023,-0.640024,-0.996094,44.106347,-14.859033,6.140974,4635727921426726900.000000,0.622457,-0.432372,0.558708,0.336818,-5.162554,0.399177,6.996092,-2.208455,0.136518,-0.482835,40.965486,18.189836,10.509405,4635729103079604200.000000,0.540107,0.433313,0.615065,-0.377120,0
-8.550281,-1.915937,3.274711,-0.231504,-0.295587,-0.000166,46.176759,-4.687643,5.737480,4635732109556711400.000000,-0.812005,0.042380,-0.578312,-0.066390,-10.213966,0.028376,-0.487306,0.087761,-0.650618,-1.064972,44.158797,-14.574979,5.998784,4635727921426726900.000000,0.625593,-0.433694,0.555241,0.335038,-7.978987,-7.024195,9.569254,-1.444920,-0.042454,-0.579376,40.887420,18.189032,10.729647,4635729103079604200.000000,0.541873,0.428479,0.618299,-0.374813,0
-9.172148,-1.170821,4.485695,-0.269560,-0.457304,-0.047495,46.125996,-4.572029,5.506252,4635732109556711400.000000,-0.813051,0.043277,-0.576705,-0.066979,-10.009080,0.344447,-0.396905,0.005283,-0.661270,-1.137462,44.252828,-14.318623,5.896506,4635727921426726900.000000,0.628688,-0.435371,0.551483,0.333270,-17.683941,-11.124087,14.920224,-0.563595,-0.306106,-0.528514,40.814142,18.189032,10.833783,4635729203427861500.000000,0.542810,0.425344,0.619454,-0.375123,0
-9.790218,0.628405,5.415485,-0.294752,-0.696364,-0.138265,46.154244,-4.293233,5.064246,4635732109556711400.000000,-0.814687,0.044402,-0.574262,-0.067354,-10.707785,0.034024,-0.735043,-0.116765,-0.655902,-1.199872,44.502561,-13.910536,5.738153,4635727921426726900.000000,0.631617,-0.437505,0.547440,0.331599,-14.799526,-4.874166,6.224917,0.750613,0.202449,-0.232960,40.592577,18.040714,10.760311,4635729210453786600.000000,0.540560,0.426733,0.619174,-0.377250,0
-9.970923,2.652300,5.408032,-0.324191,-0.909617,-0.266655,46.152364,-4.050983,4.719864,4635732109556711400.000000,-0.816854,0.045871,-0.571055,-0.067397,-12.300231,-0.205872,-1.407395,-0.202884,-0.657400,-1.234170,44.663580,-13.356947,5.535257,4635727921426726900.000000,0.634419,-0.439928,0.543193,0.330027,-13.627206,-6.289932,-4.208171,1.180868,0.566664,-0.120730,40.566001,18.247080,10.743314,4635729210453786600.000000,0.536770,0.429945,0.618825,-0.379579,0
-9.761536,3.459909,4.990397,-0.356704,-1.031237,-0.368374,46.066917,-3.967406,4.473124,4635732109556711400.000000,-0.819316,0.047657,-0.567394,-0.067193,-13.732199,0.007876,-0.842469,-0.224975,-0.665571,-1.289390,44.577500,-12.831688,5.327731,4635727921426726900.000000,0.637252,-0.442506,0.538773,0.328362,-12.775304,-6.192943,-3.127000,1.370565,0.525735,0.056394,40.633648,18.627317,10.651254,4635729210453786600.000000,0.533008,0.433958,0.617747,-0.382062,0
-9.485910,2.710014,5.092135,-0.333566,-1.077590,-0.399659,46.097012,-3.932744,4.144948,4635732109556711400.000000,-0.821881,0.049424,-0.563562,-0.066835,-15.345528,0.063052,0.011731,-0.238653,-0.627107,-1.330041,44.659897,-12.328294,4.945778,4635727921426726900.000000,0.640005,-0.445249,0.534341,0.326537,-10.427198,-0.701326,1.445920,1.255417,0.523252,0.119268,40.547186,18.869656,10.553595,4635729210453786600.000000,0.529543,0.437859,0.616710,-0.384100,0
-9.206445,1.348553,5.593399,-0.279262,-1.057713,-0.367975,46.325032,-3.859499,3.576424,4635732109556711400.000000,-0.824389,0.050877,-0.559812,-0.066366,-15.627978,-0.002962,-0.000230,-0.177056,-0.565933,-1.368514,44.949549,-11.876271,4.525754,4635727921426726900.000000,0.642764,-0.447978,0.530065,0.324347,-9.981272,0.526664,0.012722,1.106803,0.575291,0.225635,40.403913,18.884853,10.638446,4635729210453786600.000000,0.526369,0.441775,0.615814,-0.385415,0
-8.953265,0.097590,5.537929,-0.206423,-1.005043,-0.276826,46.520449,-3.861351,3.043690,4635732109556711400.000000,-0.826740,0.051947,-0.556264,-0.066126,-14.580229,-0.088062,0.055356,-0.100736,-0.541696,-1.455888,45.213857,-11.408102,4.253504,4635727921426726900.000000,0.645705,-0.450712,0.525771,0.321696,-9.801556,0.506113,-2.162961,0.838498,0.565962,0.279764,40.325861,18.736574,10.644855,4635729210453786600.000000,0.523787,0.445216,0.615213,-0.385931,0
-8.792605,-0.847081,5.203628,-0.135904,-0.990382,-0.141182,46.599471,-3.871711,2.751904,4635732109556711400.000000,-0.829019,0.052465,-0.552806,-0.066188,-13.970613,-0.285973,0.368103,-0.023701,-0.535174,-1.533380,45.240997,-10.907636,4.167347,4635727921426726900.000000,0.648852,-0.453396,0.521430,0.318643,-10.018459,0.420661,-2.272981,0.442083,0.488202,0.314996,40.309647,18.726156,10.565013,4635729210453786600.000000,0.522189,0.447750,0.615007,-0.385493,0
-8.555005,-1.342697,5.127764,-0.095362,-1.086615,-0.003943,46.713804,-3.798467,2.464165,4635732109556711400.000000,-0.831475,0.052495,-0.549046,-0.066645,-13.619000,-0.052316,0.586889,0.064433,-0.523974,-1.595039,45.295022,-10.407155,4.102052,4635727921426726900.000000,0.652193,-0.455970,0.517095,0.315196,-10.148547,0.369427,-2.361826,0.169994,0.418929,0.367141,40.400095,18.577878,10.730495,4635729210453786600.000000,0.521357,0.449712,0.614984,-0.384371,0
-8.038677,-1.528412,5.074478,-0.055799,-1.214376,0.110014,46.710128,-3.725231,1.992724,4635732109556711400.000000,-0.834182,0.052088,-0.544868,-0.067427,-13.240231,0.108573,0.593911,0.068006,-0.521110,-1.643199,45.547664,-9.853607,3.936152,4635727921426726900.000000,0.655565,-0.458619,0.512655,0.311589,-10.213584,-0.238227,-3.143756,0.014035,0.346583,0.413557,40.417910,18.350771,11.107466,4635729110139965400.000000,0.521073,0.451336,0.614964,-0.382881,0
-7.332014,-1.570300,4.989032,0.007479,-1.240090,0.186609,46.539235,-3.727054,1.425449,4635732109556711400.000000,-0.836918,0.051276,-0.540620,-0.068333,-12.868109,-0.164773,0.417472,0.001106,-0.520334,-1.675016,45.751304,-9.108444,3.614897,4635727921426726900.000000,0.658815,-0.461496,0.508043,0.308021,-9.943886,-0.246556,-3.871212,-0.073564,0.253992,0.432544,40.658209,18.118832,11.212985,4635729103079604200.000000,0.521219,0.452669,0.614844,-0.381299,0
-6.738144,-1.382231,4.874709,0.073386,-1.185974,0.197462,46.489589,-3.772088,0.944083,4635732109556711400.000000,-0.839521,0.050223,-0.536568,-0.069113,-12.507802,-0.522122,0.026297,-0.101159,-0.498552,-1.686864,45.840089,-8.326794,3.277338,4635727921426726900.000000,0.661802,-0.464683,0.503309,0.304579,-9.593885,0.371701,-3.496606,-0.221743,0.173965,0.449634,40.823327,18.035151,11.218604,4635729103079604200.000000,0.521874,0.453594,0.614751,-0.379448,0
-6.448812,-0.971825,4.601215,0.116066,-1.159373,0.119839,46.569261,-3.818274,0.565678,4635732109556711400.000000,-0.842076,0.049200,-0.532593,-0.069519,-11.786938,-1.154963,-0.363401,-0.185072,-0.455491,-1.671752,45.908704,-7.680759,3.214789,4635727921426726900.000000,0.664483,-0.468099,0.498589,0.301256,-9.182894,-0.269143,-2.828321,-0.153961,0.141827,0.469716,40.913587,17.961915,11.309830,4635729103079604200.000000,0.522513,0.454666,0.614440,-0.377787,0
-6.413335,-0.471350,4.203505,0.146146,-1.208631,-0.020843,46.602092,-3.869747,0.193042,4635732109556711400.000000,-0.844766,0.048369,-0.528411,-0.069374,-10.865128,-2.154769,-0.571688,-0.194100,-0.393755,-1.639484,45.875809,-7.200966,3.057642,4635727921426726900.000000,0.666943,-0.471526,0.494067,0.297906,-8.995908,-0.773518,-1.973664,0.003189,0.133941,0.514955,40.919216,17.877269,11.396085,4635729103079604200.000000,0.522943,0.456181,0.613776,-0.376443,0
-6.485912,-0.011282,3.842415,0.164262,-1.290641,-0.178861,46.555255,-3.875519,-0.225104,4635732109556711400.000000,-0.847662,0.047799,-0.523900,-0.068650,-9.817824,-2.734946,-0.614997,-0.133718,-0.321677,-1.547456,45.778156,-6.679823,2.699418,4635727921426726900.000000,0.669229,-0.474664,0.489977,0.294532,-9.372309,-1.421385,-1.004420,0.256316,0.151476,0.566937,40.839403,17.803227,11.321903,4635729203367657500.000000,0.522925,0.458405,0.612651,-0.375597,0
-6.611757,0.357577,3.425602,0.172302,-1.399880,-0.325887,46.544834,-3.841556,-0.701165,4635732109556711400.000000,-0.850812,0.047492,-0.518959,-0.067413,-8.705326,-0.770457,-0.602791,-0.237839,-0.226756,-1.386932,45.930631,-6.048416,2.665042,4635727921426726900.000000,0.670892,-0.477863,0.486323,0.291619,-9.673341,-1.704324,-0.734740,0.554782,0.185667,0.626259,40.765355,17.501950,11.236451,4635729210453786600.000000,0.522338,0.461480,0.611014,-0.375315,0
-6.765347,0.646112,3.023211,0.167155,-1.561230,-0.411432,46.612307,-3.727249,-1.315758,4635732109556711400.000000,-0.854300,0.047341,-0.513406,-0.065915,-7.728068,2.784375,-0.908853,-0.786575,-0.087725,-1.232560,46.190305,-5.533293,2.908748,4635727921426726900.000000,0.670969,-0.482434,0.482679,0.289964,-10.308369,-1.037143,-1.176304,0.699369,0.198968,0.658141,40.771922,17.264370,11.150999,4635729210453786600.000000,0.521481,0.464965,0.609109,-0.375301,0
-6.714951,0.867842,2.891825,0.110055,-1.765559,-0.392474,46.638718,-3.615386,-2.079058,4635732109556711400.000000,-0.858164,0.047296,-0.507088,-0.064645,-6.264127,4.323520,-1.379004,-1.587799,0.086921,-1.110692,46.278267,-5.272760,2.894001,4635727921426726900.000000,0.668903,-0.489186,0.478776,0.289895,-10.739489,-0.509986,-1.846951,0.678256,0.187773,0.698021,41.000734,17.100857,11.225161,4635729210453786600.000000,0.520747,0.468481,0.607126,-0.375162,0
-6.262417,0.958614,2.917569,0.018802,-1.933014,-0.291899,46.551495,-3.507524,-2.795476,4635732109556711400.000000,-0.862285,0.047316,-0.500136,-0.063956,-4.942264,2.891350,-2.012575,-2.270101,0.276365,-0.966039,46.316154,-4.901879,2.691091,4635727921426726900.000000,0.664836,-0.497738,0.474831,0.291181,-10.778329,-0.099882,-2.268355,0.506559,0.161988,0.776516,41.313280,16.805359,11.230811,4635729210453786600.000000,0.520528,0.471774,0.605192,-0.374463,0
-5.614127,0.963717,2.865642,-0.043752,-1.950134,-0.160700,46.455607,-3.395662,-3.466845,4635732109556711400.000000,-0.866337,0.047278,-0.493099,-0.063865,-4.401834,1.919934,-3.075356,-2.652566,0.452702,-0.788303,46.437794,-4.401427,2.612384,4635727921426726900.000000,0.659331,-0.507150,0.471220,0.293315,-10.402930,-0.620455,-2.169589,0.316994,0.105359,0.848718,41.414069,16.568574,11.139609,4635729210453786600.000000,0.520929,0.474743,0.603281,-0.373234,0
-5.101177,1.028519,2.761545,-0.089894,-1.871693,-0.028638,46.408781,-3.357036,-4.092091,4635732109556711400.000000,-0.870129,0.047151,-0.486327,-0.064324,-3.831916,1.793658,-3.794791,-2.800457,0.572926,-0.651504,46.490421,-4.158521,2.726027,4635727921426726900.000000,0.653016,-0.516774,0.467979,0.295821,-9.338997,-1.753489,-1.978329,0.368256,0.061578,0.913294,41.351325,16.405054,11.133152,4635729210453786600.000000,0.521432,0.477910,0.601057,-0.372076,0
-4.791326,1.207609,2.623508,-0.147279,-1.850222,0.088486,46.282950,-3.437802,-4.700424,4635732109556711400.000000,-0.873783,0.046999,-0.479612,-0.065318,-3.335576,0.687866,-3.632346,-2.778623,0.633632,-0.548662,46.584289,-4.073065,2.977336,4635727921426726900.000000,0.646407,-0.526135,0.465083,0.298392,-8.478905,-0.782425,-2.250361,0.433624,0.035808,0.972395,41.506058,16.177966,11.315532,4635729210453786600.000000,0.521951,0.481319,0.598548,-0.370997,0
-4.560072,1.400496,2.348119,-0.211305,-1.892863,0.166853,46.227424,-3.574085,-5.491576,4635732058820735000.000000,-0.877434,0.046911,-0.472710,-0.066732,-3.021152,-1.102691,-3.419760,-2.532760,0.648108,-0.450252,46.697518,-3.987620,3.149079,4635727921426726900.000000,0.640100,-0.534591,0.462684,0.300680,-8.639685,0.990385,-2.669533,0.394055,0.010243,0.999227,41.745355,15.957424,11.328470,4635729210453786600.000000,0.522645,0.484660,0.595979,-0.369806,0
-4.315922,1.366828,1.929309,-0.245169,-1.943301,0.189297,46.254522,-3.556380,-6.397614,4635732002182529000.000000,-0.881116,0.046883,-0.465588,-0.068298,-3.488656,-2.473317,-3.458892,-2.037043,0.616144,-0.357032,46.517833,-3.909747,3.239159,4635727921426726900.000000,0.634777,-0.541450,0.460981,0.302303,-8.746239,1.270456,-2.777627,0.297187,-0.016390,1.004844,41.909711,15.646501,11.146090,4635729210453786600.000000,0.523599,0.487754,0.593478,-0.368408,0
-4.037203,1.090125,1.603886,-0.227450,-2.008400,0.167129,46.160907,-3.404141,-7.165528,4635732002182529000.000000,-0.884873,0.046805,-0.458197,-0.069745,-4.239245,-2.956700,-3.430715,-1.485612,0.565941,-0.257623,46.289654,-3.828927,3.392788,4635727921426726900.000000,0.630629,-0.546562,0.460034,0.303224,-8.558953,0.871472,-2.384379,0.115016,-0.044088,1.029062,41.851837,15.192376,10.973588,4635729210453786600.000000,0.525019,0.490458,0.591137,-0.366557,0
-3.829380,0.730346,1.732854,-0.229986,-2.068681,0.143872,45.955405,-3.366547,-7.877297,4635732002182529000.000000,-0.888688,0.046758,-0.450545,-0.071114,-4.449820,-3.283272,-3.120982,-0.980115,0.492546,-0.152952,46.327903,-3.796502,3.701707,4635727921426726900.000000,0.627621,-0.550034,0.459756,0.303610,-8.750333,-0.092267,-1.729178,0.024756,-0.037952,1.108549,41.938156,14.796882,10.962248,4635729210453786600.000000,0.526719,0.493160,0.588772,-0.364289,0
-3.795830,0.496753,2.023739,-0.295601,-2.104201,0.164151,45.745847,-3.539190,-8.714949,4635732002182529000.000000,-0.892482,0.046905,-0.442711,-0.072688,-4.522173,-3.750072,-1.977175,-0.599461,0.375140,-0.050929,46.388134,-3.849519,3.905922,4635727921426726900.000000,0.625571,-0.552158,0.459879,0.303798,-9.300523,-1.081766,-1.673226,0.104981,-0.021431,1.185872,42.240933,14.702583,11.042020,4635729210453786600.000000,0.528320,0.496243,0.586150,-0.362007,0
-3.808710,0.468974,1.919555,-0.354927,-2.181120,0.203813,45.609554,-3.680195,-9.608058,4635732002182529000.000000,-0.896321,0.047174,-0.434545,-0.074533,-4.130924,-4.385210,-0.690223,-0.330895,0.265331,0.044175,46.236658,-3.836512,3.942991,4635727921426726900.000000,0.624226,-0.553258,0.460272,0.303970,-10.056600,-0.349788,-1.945914,0.105105,0.001642,1.225884,42.569717,14.344443,11.047700,4635729210453786600.000000,0.529911,0.499445,0.583482,-0.359579,0
-3.612665,0.638213,1.451591,-0.340821,-2.300627,0.196207,45.477305,-3.652040,-10.508651,4635732052899531800.000000,-0.900301,0.047360,-0.425896,-0.076336,-3.478896,-4.519344,0.291829,-0.141196,0.144836,0.136029,46.242432,-3.748127,3.882408,4635727921426726900.000000,0.623431,-0.553533,0.460802,0.304295,-10.825753,0.322471,-1.213177,0.145566,0.047084,1.283219,42.603026,13.658247,11.059097,4635729410949169200.000000,0.531380,0.502931,0.580718,-0.357020,0
-3.209145,0.828753,1.059655,-0.258242,-2.327040,0.173485,45.185315,-3.619157,-11.501190,4635732109556711400.000000,-0.904268,0.047263,-0.417130,-0.077903,-2.717108,-5.226380,-0.114874,-0.164664,0.071726,0.211983,46.355688,-3.817063,3.852904,4635727921426726900.000000,0.622626,-0.553631,0.461287,0.305031,-11.230028,0.024386,-1.057152,0.155452,0.078120,1.306062,42.774756,13.030132,11.059907,4635729425202151400.000000,0.532770,0.506526,0.577943,-0.354358,0
-3.135592,0.768059,1.472972,-0.233149,-2.154142,0.208463,44.844586,-3.706294,-12.313849,4635732109556711400.000000,-0.907847,0.047063,-0.408994,-0.079519,-2.165482,-7.356256,-0.937219,-0.058072,0.060736,0.245742,46.342699,-4.040973,3.918118,4635727921426726900.000000,0.622045,-0.553372,0.461956,0.305674,-11.209654,0.284825,-0.901728,0.087164,0.100049,1.347288,42.935057,12.703852,11.071300,4635729425202151400.000000,0.534297,0.510085,0.575213,-0.351383,0
-3.606482,0.838515,2.117943,-0.293315,-2.004084,0.269372,44.675382,-3.842601,-12.875315,4635732109556711400.000000,-0.911069,0.047033,-0.401386,-0.081433,-2.344428,-9.762780,-0.251135,0.237203,-0.032785,0.156278,46.269459,-4.236738,3.955199,4635727921426726900.000000,0.622437,-0.552400,0.462552,0.305732,-11.308933,0.635579,-0.663283,0.003494,0.108452,1.342164,43.025396,12.387277,10.980972,4635729425202151400.000000,0.535957,0.513442,0.572617,-0.348190,0
-4.261324,1.192552,2.366506,-0.349752,-2.075718,0.292347,44.509243,-3.934503,-13.615547,4635732109556711400.000000,-0.914323,0.047151,-0.393461,-0.083537,-3.008532,-15.087240,1.577087,0.480126,-0.103379,-0.085229,46.287068,-4.244010,3.894632,4635727921426726900.000000,0.623831,-0.551171,0.462717,0.304858,-10.496073,0.864247,-1.079870,0.027766,0.112938,1.325646,43.122230,11.933221,10.985847,4635729224806419500.000000,0.537515,0.516805,0.570014,-0.345072,0
-4.509310,1.465873,2.964193,-0.470070,-2.196158,0.274786,44.218327,-4.066050,-14.509365,4635732109556711400.000000,-0.917681,0.047711,-0.384999,-0.085792,-4.885877,-25.726772,3.605218,0.757741,-0.195881,-0.517570,46.413308,-4.113133,3.918106,4635727921426726900.000000,0.626584,-0.549932,0.461996,0.302534,-8.238784,1.049805,-0.837479,0.220287,0.143126,1.281643,43.356586,11.400995,10.986663,4635729310650791900.000000,0.538506,0.520522,0.567280,-0.342434,0
-3.963965,1.741137,3.564839,-0.664594,-2.185225,0.231331,43.923332,-4.168485,-15.311248,4635732109556711400.000000,-0.920916,0.049087,-0.376466,-0.088188,-8.978368,-32.096465,5.498171,1.226722,-0.458444,-0.879777,46.519004,-3.787910,3.947629,4635727921426726900.000000,0.631355,-0.547819,0.460338,0.298954,-5.666028,1.836754,-0.715361,0.446258,0.165205,1.236704,43.691901,10.852417,10.986663,4635729317827969000.000000,0.538876,0.524657,0.564353,-0.340373,0
-3.356772,2.004339,3.760831,-0.792875,-1.954933,0.163959,43.741874,-4.059728,-16.073819,4635732109556711400.000000,-0.923711,0.051138,-0.368724,-0.090468,-9.496237,-17.705237,7.233728,1.690734,-0.819956,-0.719349,46.486274,-3.368240,3.700771,4635727921426726900.000000,0.637644,-0.543696,0.458648,0.295714,-4.627679,4.124619,-1.437000,0.665751,0.174604,1.186869,43.714710,10.531005,10.986663,4635729317827969000.000000,0.538656,0.529164,0.561227,-0.338909,0
-3.972864,1.867917,4.675386,-0.798991,-1.556710,0.096188,43.609664,-3.896227,-16.704614,4635732109556711400.000000,-0.925860,0.053462,-0.362474,-0.092401,-6.409874,8.127454,8.320369,1.403991,-0.914052,-0.493072,46.396183,-3.059159,3.189024,4635727921426726900.000000,0.643145,-0.539753,0.456838,0.293818,-5.078117,5.674374,-3.083898,0.588721,0.161224,1.103778,43.429963,10.430844,10.998052,4635729317827969000.000000,0.538504,0.533269,0.558346,-0.337471,0
-5.781558,1.129026,6.241725,-0.836627,-1.343389,0.040467,43.369667,-3.863298,-17.088533,4635732160209287200.000000,-0.927654,0.056096,-0.357003,-0.094127,-7.364900,13.895294,7.610229,0.757197,-0.937399,-0.770732,46.310745,-2.807480,2.724237,4635727921426726900.000000,0.647548,-0.538020,0.453530,0.292449,-5.149072,3.974488,-3.517259,0.379826,0.143280,1.018326,43.420916,9.980914,11.101380,4635729418012088300.000000,0.538725,0.536669,0.555896,-0.335770,0
-7.329086,-0.233161,6.475179,-0.866749,-1.549214,-0.003810,43.006204,-3.754573,-17.507513,4635732216930893800.000000,-0.929721,0.058823,-0.350697,-0.095757,-11.308959,1.842561,5.841816,0.139289,-1.004306,-1.040419,46.323664,-2.452784,2.515230,4635727921426726900.000000,0.650998,-0.538362,0.448667,0.291659,-4.809866,2.979799,-3.175712,0.264660,0.136085,0.974737,43.797557,9.675708,11.097349,4635729425202151400.000000,0.539148,0.539689,0.553677,-0.333911,0
-7.565114,-1.451327,6.421598,-0.741146,-1.822346,-0.023943,42.666016,-3.516183,-18.219470,4635732216930893800.000000,-0.932170,0.060981,-0.343358,-0.097187,-14.269322,-6.261251,2.002165,-0.399509,-0.926112,-0.993617,46.449875,-2.189062,2.357040,4635727921426726900.000000,0.653014,-0.540154,0.443451,0.291818,-5.764713,4.477793,-2.534531,0.102967,0.126686,0.957067,44.052347,9.439674,11.096530,4635729425202151400.000000,0.539924,0.542283,0.551692,-0.331733,0
-7.132335,-1.847697,8.508692,-0.649132,-1.670927,-0.002961,42.449971,-3.480039,-19.166817,4635732216930893800.000000,-0.934366,0.062791,-0.336631,-0.098474,-15.583547,-4.921675,0.077886,-0.565741,-0.816875,-0.862623,46.563165,-1.972777,2.101211,4635727921426726900.000000,0.654273,-0.542271,0.438611,0.292385,-7.532025,4.498876,-1.351461,0.016127,0.129031,0.900189,44.011785,8.979964,11.199026,4635729425202151400.000000,0.540803,0.544546,0.549953,-0.329473,0
-7.361329,-2.357913,10.131216,-0.584734,-1.194633,0.045610,42.244514,-3.617080,-19.841648,4635732216930893800.000000,-0.935843,0.064502,-0.331778,-0.099806,-14.495883,-3.313523,-1.053803,-0.380962,-0.715744,-0.890599,46.535144,-1.516864,1.619167,4635727921426726900.000000,0.655782,-0.544044,0.434196,0.292303,-9.931468,3.251127,-1.212634,-0.085967,0.145188,0.888205,43.802721,8.583638,11.308881,4635729425202151400.000000,0.541853,0.546567,0.548410,-0.326965,0
-8.601586,-3.100443,9.798407,-0.419644,-0.919132,0.081139,42.000381,-3.621915,-19.983519,4635732216930893800.000000,-0.936946,0.065634,-0.328070,-0.100973,-14.234981,-4.745969,-2.411328,-0.224211,-0.622885,-0.920474,46.437484,-1.036794,1.210098,4635727921426726900.000000,0.657499,-0.545542,0.430147,0.291637,-14.923624,2.171045,-1.424887,-0.239395,0.095522,0.915529,43.935987,8.409358,11.487068,4635729425202151400.000000,0.543395,0.548227,0.546894,-0.324153,0
-9.986032,-2.918100,9.804572,-0.293866,-1.048493,0.107981,41.831094,-3.576769,-20.121693,4635732216930893800.000000,-0.938234,0.066172,-0.323912,-0.102077,-13.370176,-6.037218,-2.638394,-0.113260,-0.555101,-0.911792,46.453282,-0.773049,1.038161,4635727921426726900.000000,0.659323,-0.546791,0.426429,0.290637,-16.968129,0.710455,-1.007766,-0.198136,0.085883,0.861743,43.958038,8.182340,11.499373,4635729425202151400.000000,0.544785,0.549838,0.545415,-0.321575,0
-10.391770,-2.102539,10.038651,-0.195208,-1.300677,0.138130,41.745646,-3.542230,-20.541298,4635732216930893800.000000,-0.939854,0.066171,-0.318812,-0.103223,-12.025053,-6.946440,-1.339690,0.052367,-0.524659,-0.858602,46.576537,-0.345051,0.932949,4635727921426726900.000000,0.661394,-0.547518,0.423109,0.289415,-13.993092,0.177663,-1.967264,0.005867,0.159183,0.854734,43.810828,7.722659,11.248859,4635729425202151400.000000,0.545524,0.551987,0.543838,-0.319303,0
-10.050699,-1.427037,10.277771,-0.074876,-1.265645,0.154195,41.545103,-3.468994,-21.062486,4635732216930893800.000000,-0.941424,0.065700,-0.313894,-0.104285,-11.249670,-6.928249,0.622393,0.268169,-0.518864,-0.750238,46.624717,0.074563,0.830637,4635727921426726900.000000,0.663806,-0.547456,0.420306,0.288092,-11.811616,1.934039,-2.550991,0.094017,0.175453,0.871454,43.811549,7.326323,11.333282,4635729224909490200.000000,0.546038,0.554389,0.542135,-0.317152,0
-9.972927,-1.013039,10.903133,-0.018967,-1.019713,0.167593,41.255791,-3.470565,-21.400451,4635732216930893800.000000,-0.942662,0.065091,-0.309962,-0.105240,-10.083794,-5.028800,1.999571,0.332277,-0.511434,-0.695969,46.521758,0.195318,0.672479,4635727921426726900.000000,0.666276,-0.547122,0.417717,0.286786,-10.588649,3.748115,-1.984534,0.062477,0.185211,0.809914,43.903456,7.083701,11.431763,4635729210453786600.000000,0.546515,0.556585,0.540632,-0.315042,0
-10.273952,-0.776721,11.252442,-0.043096,-0.936633,0.174413,41.046161,-3.596313,-21.583573,4635732216930893800.000000,-0.943767,0.064604,-0.306343,-0.106229,-9.045365,-3.675943,2.682926,0.231222,-0.492152,-0.661316,46.453814,0.399494,0.416673,4635728054455775200.000000,0.668432,-0.547025,0.415134,0.285704,-9.326617,3.744521,-0.700099,0.030929,0.184862,0.739640,43.989717,6.851787,11.609100,4635729210453786600.000000,0.546967,0.558546,0.539326,-0.313020,0
-10.560268,-0.669311,11.315564,-0.089937,-0.958236,0.158194,40.915558,-3.686636,-21.945050,4635732216930893800.000000,-0.944879,0.064311,-0.302609,-0.107217,-8.056999,-4.102115,2.800681,0.120815,-0.460306,-0.627145,46.547475,0.789590,0.176630,4635728136175091700.000000,0.670232,-0.547206,0.412582,0.284833,-9.172691,3.109265,-0.849465,0.227089,0.211688,0.678101,44.154878,6.688135,11.803616,4635729210453786600.000000,0.546817,0.560844,0.537963,-0.311512,0
-10.703092,-0.564191,11.604640,-0.099202,-0.891001,0.124185,40.795591,-3.726911,-22.374220,4635732216930893800.000000,-0.945913,0.064105,-0.299127,-0.107996,-7.145714,-4.817454,2.509355,0.025908,-0.415391,-0.592910,46.600303,1.050472,0.037170,4635728136175091700.000000,0.671693,-0.547642,0.410116,0.284116,-8.598549,3.724342,-1.572546,0.333044,0.277381,0.590327,44.325763,6.540839,11.896456,4635729210453786600.000000,0.546154,0.563268,0.536813,-0.310286,0
-10.599356,-0.080603,12.340245,-0.131134,-0.857079,0.094806,40.631129,-3.812368,-22.608974,4635732216930893800.000000,-0.946885,0.064105,-0.295746,-0.108781,-6.659338,-5.017243,2.151893,-0.053021,-0.367175,-0.555375,46.497370,1.163798,-0.052924,4635728069673452500.000000,0.672841,-0.548287,0.407774,0.283526,-7.202844,4.580262,-2.340697,0.223140,0.334778,0.501610,44.337288,6.314689,11.913601,4635729210453786600.000000,0.545500,0.565312,0.536139,-0.308879,0
-10.143229,0.510888,12.812021,-0.197828,-0.863530,0.088214,40.425728,-3.748234,-22.889864,4635732216930893800.000000,-0.947842,0.064365,-0.292305,-0.109596,-6.845592,-5.062606,1.534990,-0.112121,-0.329438,-0.526335,46.436962,1.249250,-0.145937,4635728028800909300.000000,0.673751,-0.549089,0.405531,0.283029,-6.751847,4.729874,-2.722748,0.102152,0.361510,0.430882,44.132400,5.991689,12.096548,4635729210453786600.000000,0.544978,0.566955,0.535845,-0.307297,0
-9.671673,0.654039,12.845826,-0.205629,-0.728100,0.107153,40.296638,-3.625599,-23.188429,4635732216930893800.000000,-0.948613,0.064690,-0.289397,-0.110447,-7.416962,-5.060252,0.938155,-0.135096,-0.288800,-0.499787,46.580579,1.493423,-0.304051,4635728028800909300.000000,0.674505,-0.549954,0.403433,0.282552,-7.511681,4.360845,-2.359656,0.059138,0.382094,0.385356,44.049260,5.821446,12.291866,4635729210453786600.000000,0.544450,0.568422,0.535757,-0.305672,0
-9.480104,0.070505,13.299415,-0.205487,-0.562982,0.171585,40.296638,-3.700376,-23.372254,4635732216930893800.000000,-0.949143,0.065021,-0.287156,-0.111537,-7.865682,-5.351559,0.484751,-0.102993,-0.247500,-0.472016,46.661345,1.827666,-0.446457,4635728028800909300.000000,0.675226,-0.550728,0.401551,0.282003,-8.410804,4.037715,-1.523544,0.015782,0.398403,0.333600,44.271937,5.822105,12.305062,4635729210453786600.000000,0.543919,0.569693,0.535882,-0.304028,0
-9.437732,-0.957098,13.677223,-0.223489,-0.464902,0.246588,40.290887,-3.864816,-23.594913,4635732216930893800.000000,-0.949511,0.065381,-0.285312,-0.112923,-8.411551,-5.557278,0.574372,-0.043228,-0.208386,-0.448213,46.452624,2.157256,-0.435389,4635728028800909300.000000,0.675989,-0.551337,0.399901,0.281329,-9.507624,3.652038,-1.453507,-0.031000,0.383554,0.303170,44.436414,5.822931,12.293681,4635729210453786600.000000,0.543492,0.570769,0.536101,-0.302383,0
-9.572925,-1.745155,13.454576,-0.160098,-0.274876,0.290360,40.244177,-3.955199,-23.875663,4635732216930893800.000000,-0.949644,0.065528,-0.284260,-0.114358,-9.899155,-5.128232,1.170789,-0.000049,-0.190690,-0.434125,46.372442,2.381034,-0.463306,4635728095276777500.000000,0.676802,-0.551819,0.398383,0.280582,-10.880266,2.931347,-2.226601,-0.065052,0.343559,0.297234,44.230912,5.674976,12.395285,4635729310560593900.000000,0.543225,0.571702,0.536286,-0.300768,0
-9.897500,-1.954594,13.559130,-0.076383,-0.100129,0.315935,40.164471,-3.955199,-23.978158,4635732216930893800.000000,-0.949579,0.065395,-0.283947,-0.115744,-11.722694,-4.858547,1.652088,0.024976,-0.188401,-0.427157,46.604396,2.449038,-0.613868,4635728136175091700.000000,0.677658,-0.552220,0.396914,0.279807,-11.953119,2.539553,-2.669698,-0.032443,0.333769,0.302920,44.078657,5.368360,12.675837,4635729317827969000.000000,0.542908,0.572707,0.536392,-0.299236,0
-9.828872,-1.675739,13.854696,-0.066676,-0.106030,0.335090,40.010722,-3.920695,-23.926510,4635732216930893800.000000,-0.949514,0.065196,-0.283619,-0.117189,-13.171862,-4.669605,1.812512,0.033774,-0.202543,-0.437026,46.677036,2.453688,-0.804537,4635728136175091700.000000,0.678567,-0.552593,0.395392,0.279021,-12.661556,2.207473,-2.834393,0.023861,0.304386,0.334221,44.080105,5.198907,12.877775,4635729317827969000.000000,0.542559,0.573871,0.536284,-0.297828,0
-9.323387,-1.058189,13.683635,-0.045779,0.014008,0.312065,39.806847,-3.841710,-23.932260,4635732216930893800.000000,-0.949323,0.064996,-0.283771,-0.118468,-14.468657,-4.341772,1.732873,0.036826,-0.236619,-0.466831,46.493354,2.551926,-0.939387,4635728003239309300.000000,0.679571,-0.552965,0.393706,0.278223,-12.821704,2.003050,-3.253995,0.040716,0.230594,0.346424,44.080933,5.256425,12.799980,4635729317827969000.000000,0.542347,0.575008,0.535958,-0.296605,0
-9.091679,-0.666367,13.350492,-0.010116,0.302124,0.249169,39.763134,-3.905736,-23.708753,4635732216930893800.000000,-0.948831,0.064870,-0.285063,-0.119377,-15.192962,-4.355122,1.385279,0.054983,-0.281835,-0.505130,46.400341,2.771064,-1.044598,4635727921426726900.000000,0.680733,-0.553292,0.391823,0.277389,-12.613793,2.240130,-3.386197,0.003825,0.106902,0.369051,44.160582,5.124851,12.884385,4635729117664146400.000000,0.542527,0.575957,0.535342,-0.295544,0
-9.269798,-0.721714,12.880783,-0.012190,0.436058,0.198101,39.963535,-4.183635,-23.352708,4635732216930893800.000000,-0.948201,0.064880,-0.286868,-0.120050,-15.234268,-4.496388,0.989403,0.090281,-0.320646,-0.541345,46.491015,3.019864,-1.146908,4635727921426726900.000000,0.682077,-0.553530,0.389785,0.276483,-10.948393,1.951194,-3.564311,0.007041,0.008677,0.372638,44.098123,4.887364,13.073048,4635729203148632100.000000,0.542922,0.576799,0.534491,-0.294718,0
-9.383181,-0.903362,12.414914,0.013764,0.481866,0.171405,40.212635,-4.358043,-23.288860,4635732216930893800.000000,-0.947540,0.064824,-0.288863,-0.120515,-14.788483,-4.181403,0.982958,0.118968,-0.347806,-0.559657,46.546829,3.271549,-1.305003,4635727921426726900.000000,0.683547,-0.553681,0.387658,0.275539,-9.974709,2.520362,-4.361767,-0.086097,-0.091438,0.395679,44.093140,4.870754,12.995322,4635729210453786600.000000,0.543790,0.577357,0.533471,-0.293872,0
-9.230215,-1.266017,12.368263,0.065977,0.623184,0.160348,40.262165,-4.277606,-23.254372,4635732216930893800.000000,-0.946713,0.064669,-0.291432,-0.120913,-13.327505,-3.786114,1.326428,0.099349,-0.366015,-0.560931,46.493952,3.520320,-1.500298,4635727921426726900.000000,0.684998,-0.553864,0.385450,0.274664,-9.912412,2.813814,-4.282575,-0.245217,-0.222688,0.420244,44.172769,4.802502,12.897674,4635729210453786600.000000,0.545360,0.577447,0.532287,-0.292930,0
-9.111752,-1.728451,12.209523,0.131954,0.846242,0.167638,40.223392,-4.227358,-22.979333,4635732216930893800.000000,-0.945622,0.064352,-0.294914,-0.121179,-11.448189,-4.074751,1.534623,0.035984,-0.378325,-0.535917,46.355631,3.719137,-1.521882,4635727921426726900.000000,0.686289,-0.554170,0.383189,0.273987,-9.446024,1.819715,-2.771050,-0.268300,-0.294494,0.449788,44.246846,4.581379,12.811390,4635729210453786600.000000,0.547179,0.577459,0.530894,-0.292042,0
-9.205830,-1.877060,11.709736,0.226203,1.060746,0.194971,40.378522,-4.381756,-22.641122,4635732216930893800.000000,-0.944262,0.063737,-0.299291,-0.121377,-9.682287,-4.472468,1.366186,-0.026225,-0.400900,-0.497466,46.335787,3.882476,-1.549722,4635728054285206500.000000,0.687424,-0.554561,0.380878,0.273571,-9.775918,1.825286,-1.728438,-0.223388,-0.363778,0.504580,44.331463,4.281186,12.714563,4635729210453786600.000000,0.549105,0.577606,0.529153,-0.291293,0
-9.427726,-1.790175,11.507283,0.312470,1.232151,0.234744,40.667904,-4.544750,-22.353890,4635732216930893800.000000,-0.942666,0.062818,-0.304390,-0.121576,-7.714809,-4.625983,0.912876,-0.071447,-0.426181,-0.459015,46.469443,4.003406,-1.768206,4635728136175091700.000000,0.688447,-0.554989,0.378530,0.273393,-10.598722,2.593165,-1.330362,-0.188191,-0.455095,0.530333,44.337288,4.112522,12.628289,4635729210453786600.000000,0.551176,0.577776,0.527094,-0.290779,0
-9.605791,-1.671694,11.584826,0.363422,1.391987,0.272567,40.877569,-4.584239,-21.889301,4635732216930893800.000000,-0.940831,0.061730,-0.310141,-0.121813,-5.776620,-4.927541,0.504131,-0.108987,-0.435397,-0.417257,46.428895,4.138824,-2.000769,4635728136175091700.000000,0.689345,-0.555444,0.376207,0.273413,-10.338596,2.819614,-1.419931,-0.164958,-0.498263,0.531938,44.416906,3.953827,12.531464,4635729210453786600.000000,0.553281,0.577944,0.524900,-0.290414,0
-9.706314,-1.385201,11.418248,0.386669,1.617349,0.285887,41.128878,-4.686913,-21.177728,4635732216930893800.000000,-0.938663,0.060646,-0.316778,-0.122010,-4.564819,-5.369870,0.318022,-0.165122,-0.433822,-0.370824,46.212698,4.252203,-2.075258,4635728136175091700.000000,0.690054,-0.555985,0.373929,0.273650,-9.746563,2.343042,-1.826351,-0.106700,-0.535794,0.562789,44.490982,3.658645,12.172206,4635729210453786600.000000,0.555361,0.578263,0.522469,-0.290193,0
-10.106223,-0.953663,11.024050,0.420908,1.925146,0.269993,41.499383,-4.959044,-20.547266,4635732216930893800.000000,-0.936048,0.059601,-0.324613,-0.122014,-4.157583,-5.391173,0.175078,-0.218282,-0.434582,-0.330029,46.217712,4.337645,-2.256445,4635728136175091700.000000,0.690590,-0.556611,0.371680,0.274086,-9.807238,2.284454,-2.139837,-0.029900,-0.597057,0.608834,44.416378,3.342122,11.805191,4635729210453786600.000000,0.557438,0.578780,0.519687,-0.290176,0
-10.880954,-0.277335,10.814315,0.441587,2.161278,0.239208,41.873489,-5.276417,-19.972861,4635732216930893800.000000,-0.933079,0.058588,-0.333355,-0.121674,-4.350830,-5.252714,0.109867,-0.253489,-0.445713,-0.310226,46.429263,4.475947,-2.489033,4635728202581616600.000000,0.691036,-0.557291,0.369403,0.274659,-9.416719,2.305529,-2.570116,0.045088,-0.638185,0.629960,44.421906,3.104338,11.598186,4635729210453786600.000000,0.559442,0.579459,0.516661,-0.290369,0
-11.829520,0.609507,10.828689,0.402514,2.316785,0.209550,42.209555,-5.438759,-19.215315,4635732216930893800.000000,-0.929794,0.057897,-0.342634,-0.121381,-5.108486,-5.134176,0.200460,-0.259616,-0.473626,-0.282117,46.363877,4.639296,-2.503159,4635728243549274100.000000,0.691474,-0.557910,0.367101,0.275385,-8.864301,2.364068,-3.100622,0.124843,-0.665769,0.648194,44.638843,2.951988,11.323229,4635729210453786600.000000,0.561327,0.580321,0.513422,-0.290752,0
-12.928873,1.148183,10.597541,0.375985,2.527444,0.185485,42.579353,-5.426552,-18.366540,4635732216930893800.000000,-0.926116,0.057441,-0.352673,-0.120962,-5.496222,-5.055633,0.580957,-0.222008,-0.495662,-0.234671,46.220766,4.699850,-2.586677,4635728243549274100.000000,0.691974,-0.558319,0.364887,0.276241,-9.019262,2.766225,-3.467065,0.131309,-0.712366,0.662368,44.938959,2.657706,11.031149,4635729210453786600.000000,0.563304,0.581164,0.510025,-0.291225,0
-14.303130,1.296832,10.501168,0.376558,2.765639,0.176557,43.034574,-5.494732,-17.472599,4635732216930893800.000000,-0.921976,0.057110,-0.363586,-0.120435,-5.347012,-5.026560,1.173815,-0.159199,-0.526722,-0.182332,46.298497,4.647008,-2.834838,4635728177150719000.000000,0.692604,-0.558428,0.362775,0.277222,-8.840150,3.091175,-3.536807,0.085609,-0.749492,0.629487,44.891634,2.409353,10.840493,4635729210453786600.000000,0.565422,0.581774,0.506667,-0.291762,0
-15.935101,1.492792,10.761117,0.312630,2.915701,0.194079,43.494834,-5.607486,-16.434430,4635732216930893800.000000,-0.917452,0.057065,-0.374995,-0.120019,-4.962361,-5.160654,1.861389,-0.092571,-0.528750,-0.100276,46.258045,4.772906,-3.130683,4635728136175091700.000000,0.693294,-0.558214,0.360923,0.278342,-7.813932,3.397163,-3.483292,0.049414,-0.754961,0.589194,44.818396,2.176602,10.657401,4635729210453786600.000000,0.567581,0.582198,0.503430,-0.292326,0
-17.718023,1.642259,10.657936,0.209891,3.039198,0.210362,43.840998,-5.628340,-15.161381,4635732216930893800.000000,-0.912559,0.057439,-0.386770,-0.119773,-4.407932,-6.177514,2.408002,-0.058708,-0.465375,-0.001856,46.087151,4.968870,-3.367928,4635728136175091700.000000,0.693850,-0.557826,0.359521,0.279548,-7.625798,4.520920,-3.240349,-0.017666,-0.769108,0.545625,44.870227,2.092493,10.292399,4635729210453786600.000000,0.569871,0.582346,0.500340,-0.292883,0
-19.707045,1.543945,10.339016,0.113134,3.167783,0.205968,44.103822,-5.684291,-13.870875,4635732216930893800.000000,-0.907285,0.058237,-0.398920,-0.119602,-5.035336,-7.301655,2.568215,-0.075201,-0.355586,0.106572,46.074742,5.036997,-3.555699,4635728136175091700.000000,0.694076,-0.557448,0.358667,0.280835,-8.106365,5.511857,-2.483651,-0.083123,-0.740286,0.434170,45.022236,2.087466,10.175460,4635729210453786600.000000,0.572116,0.582133,0.497661,-0.293493,0
-21.709738,1.446213,10.201834,0.007458,3.121521,0.192713,44.400339,-5.836510,-12.775837,4635732216930893800.000000,-0.901912,0.059424,-0.410771,-0.119547,-6.811599,-7.732382,2.382460,-0.136194,-0.201736,0.225876,46.213001,4.883200,-3.685964,4635728136175091700.000000,0.693788,-0.557247,0.358464,0.282201,-8.619860,6.693000,-1.917643,-0.150263,-0.665467,0.268012,45.180915,1.951031,10.077811,4635729210453786600.000000,0.574159,0.581501,0.495640,-0.294176,0
-23.497844,1.096822,10.145081,-0.063699,2.953863,0.201363,44.816762,-5.868933,-11.599727,4635732216930893800.000000,-0.896661,0.060757,-0.421893,-0.119638,-8.448516,-8.210865,2.187578,-0.185370,0.002331,0.375372,46.180175,4.634394,-3.776076,4635728003439364100.000000,0.692905,-0.557203,0.359138,0.283598,-9.337134,7.661820,-1.311536,-0.233463,-0.547713,0.040504,45.328223,1.656775,9.536808,4635729210453786600.000000,0.575877,0.580340,0.494551,-0.294943,0
-24.987245,0.185053,10.304314,-0.092665,2.832523,0.239121,45.127852,-5.885331,-10.453571,4635732216930893800.000000,-0.891461,0.062080,-0.432492,-0.119976,-9.565686,-9.286900,1.947647,-0.145446,0.255297,0.557197,45.923375,4.382689,-3.748342,4635727921426726900.000000,0.691517,-0.557068,0.361010,0.284871,-9.580749,8.238845,-0.337395,-0.311878,-0.420051,-0.235049,45.326927,1.704000,9.235896,4635729310444624900.000000,0.577180,0.578576,0.494527,-0.295899,0
-26.015730,-0.666070,10.395079,-0.108823,2.740660,0.266151,45.225506,-6.078446,-9.587527,4635732216930893800.000000,-0.886287,0.063357,-0.442691,-0.120441,-10.686668,-10.333580,1.883926,0.020135,0.545732,0.782711,45.953078,4.179168,-3.469609,4635727921426726900.000000,0.689801,-0.556454,0.364435,0.285868,-9.424499,8.492611,0.015637,-0.368964,-0.289884,-0.552629,45.326088,1.925028,9.296165,4635729317827969000.000000,0.577956,0.576177,0.495649,-0.297185,0
-26.692254,-1.309408,10.175346,-0.099539,2.692052,0.271876,45.432190,-6.195623,-8.732388,4635732216930893800.000000,-0.881087,0.064555,-0.452658,-0.120907,-11.481979,-10.608915,2.565387,0.273519,0.853285,1.065750,46.302837,4.015817,-3.018635,4635727921426726900.000000,0.687851,-0.555035,0.369692,0.286573,-9.195942,9.940755,-0.293010,-0.483182,-0.143671,-0.934701,45.326088,2.088743,9.302041,4635729317827969000.000000,0.578223,0.572886,0.498175,-0.298800,0
-27.094565,-1.799358,9.714691,-0.094050,2.692415,0.275827,45.767489,-6.217838,-7.786055,4635732216930893800.000000,-0.875771,0.065728,-0.462572,-0.121379,-11.614593,-10.533894,3.766017,0.526386,1.162773,1.403561,46.521725,3.547846,-2.643528,4635727921426726900.000000,0.685573,-0.552714,0.376901,0.287128,-9.066302,10.944648,-0.794786,-0.657441,0.039537,-1.374080,45.314722,2.463402,9.290675,4635729117872063500.000000,0.577960,0.568474,0.502393,-0.300665,0
-27.106319,-1.934506,8.718445,-0.103044,2.737856,0.268877,45.994554,-6.284606,-6.748640,4635732216930893800.000000,-0.870254,0.066961,-0.472584,-0.121813,-11.285984,-10.842467,4.652620,0.770513,1.481353,1.789754,46.468521,2.828332,-2.345900,4635727921426726900.000000,0.682837,-0.549423,0.386171,0.287645,-9.887649,11.658970,-1.034701,-0.889529,0.227384,-1.862117,45.222948,3.070003,9.289834,4635729203057557500.000000,0.577210,0.562685,0.508481,-0.302757,0
-26.882304,-1.809032,7.200645,-0.089555,2.822116,0.244746,46.057799,-6.352119,-5.515020,4635732216930893800.000000,-0.864469,0.068225,-0.482838,-0.122092,-11.274664,-10.746015,5.076179,1.000486,1.792848,2.208003,46.480427,1.920687,-1.743718,4635727921426726900.000000,0.679536,-0.545107,0.397508,0.288230,-11.676538,12.025124,-0.788438,-1.131530,0.365634,-2.407110,45.057110,3.772067,9.369390,4635729210453786600.000000,0.575987,0.555276,0.516433,-0.305292,0
-26.608755,-1.338988,5.545392,-0.008957,2.874000,0.237875,46.116628,-6.453304,-4.270529,4635732216930893800.000000,-0.858482,0.069230,-0.493249,-0.122151,-12.501126,-10.137027,5.203231,1.226722,2.075091,2.690711,46.582753,0.972449,-0.889875,4635727921426726900.000000,0.675569,-0.539585,0.410936,0.289111,-13.577508,11.571375,-0.519035,-1.326264,0.446520,-3.021767,44.806653,4.536916,9.545761,4635729210453786600.000000,0.574167,0.546093,0.526167,-0.308647,0
-25.931597,-1.068346,4.145811,0.147885,2.840653,0.263107,46.214277,-6.599776,-3.255066,4635732216930893800.000000,-0.852473,0.069598,-0.503556,-0.121973,-15.973365,-9.513551,5.069175,1.430448,2.284927,3.269943,46.589886,-0.041526,-0.066349,4635727921426726900.000000,0.670821,-0.532605,0.426391,0.290724,-16.334242,10.683616,-0.034536,-1.527407,0.494588,-3.646265,44.550297,5.681029,9.899348,4635729210453786600.000000,0.571761,0.534992,0.537572,-0.312872,0
-24.476765,-1.510205,2.888528,0.369903,2.760725,0.269643,46.271794,-6.711852,-2.348259,4635732166497370100.000000,-0.846572,0.069115,-0.513624,-0.121361,-22.792177,-7.802528,4.625781,1.745579,2.416393,3.962139,46.586342,-1.380297,0.843473,4635727921426726900.000000,0.665452,-0.523478,0.443973,0.293312,-22.926585,8.461339,1.272734,-1.763071,0.366506,-4.146771,44.362151,6.920991,10.163256,4635729210453786600.000000,0.569334,0.521874,0.549924,-0.317948,0
-22.576219,-2.339331,2.256146,0.615614,2.633351,0.263119,46.169337,-6.779359,-1.350270,4635732109556711400.000000,-0.840906,0.067706,-0.523297,-0.120220,-31.610353,-2.181680,3.765171,2.034023,2.419748,4.655290,46.520163,-2.987456,1.832244,4635727921426726900.000000,0.659532,-0.512017,0.463212,0.297137,-34.617458,1.278333,2.571770,-1.774563,0.031621,-4.432292,44.179043,8.234318,10.430973,4635729210453786600.000000,0.567105,0.507434,0.561911,-0.324282,0
-20.725503,-2.764063,3.183611,0.781279,2.410243,0.287120,45.983263,-6.920658,-0.346305,4635732109556711400.000000,-0.835661,0.065536,-0.532216,-0.118836,-40.921123,7.423635,1.300852,2.219605,2.226508,5.179363,46.307508,-4.863614,2.707765,4635727921426726900.000000,0.653340,-0.498492,0.482991,0.302279,-51.404784,-8.402197,1.172583,-1.598200,-0.503601,-5.108214,43.677752,9.995897,10.608627,4635729210453786600.000000,0.564588,0.490877,0.573571,-0.333612,0
-19.090157,-2.134444,5.804072,0.903216,2.149971,0.246467,45.917778,-7.152614,0.611667,4635732109556711400.000000,-0.830959,0.062895,-0.540222,-0.117098,-44.795049,21.245613,-0.873901,1.245198,1.728328,5.034311,45.986103,-6.759944,3.392672,4635727921426726900.000000,0.645930,-0.486995,0.499606,0.309846,-62.871077,-22.351801,-4.641111,-1.294861,-1.071393,-6.237578,43.300642,11.858150,10.506832,4635729210453786600.000000,0.560890,0.471244,0.585431,-0.347277,0
-16.818446,-0.769245,8.414969,1.081620,1.813827,0.048423,46.004505,-7.195358,1.564478,4635732008713868300.000000,-0.827084,0.059914,-0.547052,-0.114350,-50.300937,24.550529,-2.273638,0.540256,1.851021,3.524983,45.662307,-8.289000,4.055833,4635727921426726900.000000,0.638523,-0.480499,0.512379,0.314445,-63.057798,-34.701219,-9.678502,-1.215577,-1.761982,-5.763410,42.911705,13.873540,10.032580,4635729210453786600.000000,0.559019,0.451628,0.594227,-0.361143,0
-12.933031,1.076893,9.147308,1.344515,1.294987,-0.267279,46.060770,-6.984360,2.189130,4635731894808346600.000000,-0.824550,0.056496,-0.552103,-0.110037,-62.036050,3.813697,-6.576746,2.216268,2.330072,3.010527,45.364685,-9.473257,5.045972,4635727921426726900.000000,0.633925,-0.471122,0.527435,0.313042,-32.977020,-43.534507,-9.442884,-1.991615,-1.581877,-6.555088,42.078002,16.115822,9.543437,4635729210453786600.000000,0.556547,0.428173,0.605648,-0.374317,0
-7.621234,2.346335,8.783323,1.461023,0.214802,-0.556936,46.016181,-6.739467,2.234189,4635731894808346600.000000,-0.824617,0.052846,-0.553398,-0.104709,-60.148477,-14.915049,-18.104146,2.685613,1.515863,4.011743,45.116992,-10.665379,6.044292,4635727921426726900.000000,0.630484,-0.457060,0.542710,0.314726,-41.234236,-34.349407,-17.089947,-4.231471,-0.734898,-5.627213,41.313607,17.783256,9.407333,4635729210453786600.000000,0.556897,0.402816,0.620348,-0.377853,1
-0.904481,2.130803,10.930434,1.215851,-1.291608,-0.720456,46.084197,-6.461698,1.986564,4635731894808346600.000000,-0.828131,0.049756,-0.549346,-0.099711,-35.136356,-45.150231,-16.421300,3.476122,0.818072,4.115267,44.648194,-12.028406,6.693916,4635727921426726900.000000,0.629685,-0.439553,0.557125,0.316072,-55.024164,49.393837,-18.811392,-7.490452,-1.146044,-2.910441,40.908889,18.395859,10.206204,4635729210453786600.000000,0.567494,0.375868,0.634040,-0.366971,1
6.368301,1.249989,16.446221,0.720953,-1.990406,-0.786479,46.197043,-6.137866,1.556132,4635731894808346600.000000,-0.833106,0.048231,-0.542622,-0.095754,0.261558,-76.098279,-12.466431,5.599717,1.061064,3.963509,43.972836,-13.245264,7.367952,4635727921426726900.000000,0.631984,-0.416850,0.574319,0.311430,6.025868,104.016780,-17.420365,-11.026458,-0.216266,-2.363232,40.644052,18.194635,11.868073,4635729210453786600.000000,0.581053,0.342804,0.653413,-0.343387,1
12.124433,0.756107,19.832237,0.299273,-1.578699,-0.813600,46.229435,-5.860589,0.970214,4635731894808346600.000000,-0.837017,0.048392,-0.537115,-0.092566,11.405881,-37.340443,-16.233201,6.233802,1.067751,2.869813,43.551584,-13.977014,8.383114,4635727921426726900.000000,0.636257,-0.394756,0.589974,0.302118,9.328196,76.830226,-10.904278,-10.648125,0.108228,-0.978568,40.240071,17.733868,13.600482,4635729210453786600.000000,0.593950,0.314170,0.669685,-0.316296,1
15.539152,1.376228,19.029207,0.213834,-1.044586,-0.652371,46.338266,-5.622921,0.470178,4635731995572310000.000000,-0.839631,0.048618,-0.533454,-0.089901,2.377106,15.742370,-5.530056,5.188087,0.729520,0.474631,43.556452,-14.074698,9.542817,4635727987799511000.000000,0.642237,-0.380635,0.599089,0.289381,2.686742,-5.977421,-6.336338,-6.456220,-0.255504,-1.041920,39.972673,17.098774,14.879610,4635729210453786600.000000,0.601484,0.294819,0.678706,-0.301094,1
16.935298,2.504050,18.503895,0.154124,-0.432758,-0.156882,46.461376,-5.493331,0.302174,4635732109556711400.000000,-0.840660,0.048268,-0.531997,-0.089112,-5.469422,13.075663,6.567939,2.793266,0.143989,-1.196853,43.541600,-13.448222,10.325183,4635728028800909300.000000,0.647689,-0.376267,0.600908,0.278984,-0.210507,-64.006940,3.487324,-0.772636,-0.608107,0.882658,39.977545,16.690294,15.238862,4635729210453786600.000000,0.605215,0.294597,0.677088,-0.297456,1
16.013955,3.827733,17.917854,-0.095348,0.901814,0.366026,46.352560,-5.493331,0.577374,4635732109556711400.000000,-0.838478,0.048124,-0.535221,-0.090433,-0.218488,-2.591786,0.932073,-0.649178,-0.297738,-1.693550,43.487432,-12.736409,10.467089,4635728028800909300.000000,0.649357,-0.381878,0.596689,0.276528,-0.788110,-28.502325,7.435913,3.739224,-0.832074,3.677709,40.342651,16.242920,14.725504,4635729210453786600.000000,0.607347,0.313282,0.665707,-0.299696,1
12.457604,4.800978,13.078758,-0.237221,2.206235,0.608148,46.269526,-5.521968,1.190921,4635732109556711400.000000,-0.833222,0.048417,-0.542968,-0.092638,-0.753131,3.245111,-5.983825,-3.277781,-0.537205,-2.028577,43.784548,-12.406966,9.957365,4635727896081111000.000000,0.647720,-0.395095,0.588164,0.280038,4.383275,23.156942,2.568136,5.075664,-0.380015,3.930960,41.085329,15.495986,13.708867,4635729210453786600.000000,0.606431,0.336426,0.653071,-0.304232,1
7.789655,4.279486,6.462484,-0.198391,2.656957,0.732062,46.360695,-5.668884,1.959895,4635732109556711400.000000,-0.826815,0.048454,-0.552260,-0.095070,-5.119100,12.734618,-3.035844,-4.632134,-0.624302,-2.449828,44.220005,-12.024855,9.245823,4635727814052544500.000000,0.644318,-0.412750,0.576911,0.285770,-3.823601,23.377864,-5.434931,4.882466,-0.068770,3.877424,41.729476,14.658783,12.931581,4635729110566031400.000000,0.604451,0.359097,0.641085,-0.307731,1
3.927797,3.460331,2.245626,-0.123049,2.567979,0.777058,46.309497,-6.021792,2.780437,4635732109556711400.000000,-0.820500,0.048100,-0.561211,-0.097508,-4.118904,11.673845,0.875203,-5.201677,-0.629895,-2.572368,44.358825,-11.263248,8.554697,4635727814052544500.000000,0.639751,-0.431999,0.564444,0.292400,-1.958475,6.474529,-9.491999,4.114063,0.322529,3.848265,42.227932,13.816566,12.526808,4635729103079604200.000000,0.602167,0.380036,0.630720,-0.308478,1
1.419822,2.698325,0.611706,-0.230997,2.452666,0.605946,46.124114,-6.383381,3.613570,4635732109556711400.000000,-0.814405,0.048466,-0.569622,-0.099632,-1.609520,8.136904,1.039577,-5.480808,-0.587468,-2.257726,44.500337,-10.702240,7.693000,4635727814052544500.000000,0.633814,-0.451041,0.551975,0.300274,-7.607143,-5.892919,-5.188536,3.330531,0.474561,3.777837,42.568646,12.815181,12.057490,4635729103079604200.000000,0.600335,0.398832,0.621541,-0.306950,1
-0.254775,0.752023,-1.163024,-0.414611,2.505869,0.339343,46.052051,-6.575246,4.429194,4635732109556711400.000000,-0.808163,0.050107,-0.578019,-0.101268,-0.151745,6.880576,-0.219200,-5.547670,-0.524736,-1.674609,44.797266,-10.466029,6.849324,4635727814052544500.000000,0.626498,-0.468726,0.540351,0.309544,-7.158996,-9.633135,0.263369,2.778239,0.485858,3.654465,42.898213,11.881556,11.774485,4635729103079604200.000000,0.598990,0.415779,0.613048,-0.304157,1
-1.969177,-2.026142,-3.520622,-0.262072,2.489823,0.188157,45.955494,-6.761797,5.472567,4635732109556711400.000000,-0.801965,0.051589,-0.586330,-0.102022,0.554437,6.040379,-0.928524,-5.148891,-0.430510,-1.066340,45.021284,-10.242335,6.321588,4635727681384288300.000000,0.618629,-0.483870,0.530384,0.319157,-5.162416,-10.441753,0.488044,2.539202,0.536672,3.230336,43.239128,10.953905,11.676255,4635729103079604200.000000,0.597192,0.430972,0.605515,-0.301623,1
-4.431060,-3.216620,-4.222588,-0.089258,2.233812,0.183756,45.770124,-6.879253,6.540924,4635732109556711400.000000,-0.796351,0.052392,-0.593799,-0.102386,-0.301833,5.337073,-0.763258,-4.331869,-0.328851,-0.544249,45.036692,-10.091561,5.935617,4635727599304179700.000000,0.611238,-0.495691,0.522600,0.327976,-4.653892,-10.486159,0.407961,2.376990,0.605063,2.572181,43.433358,10.309914,11.761115,4635729103079604200.000000,0.594532,0.444076,0.599381,-0.300117,1
-7.218508,-2.355976,-3.650368,-0.110221,1.937409,0.112649,45.692310,-6.826986,7.303872,4635732109556711400.000000,-0.791436,0.053307,-0.600215,-0.102617,-2.517757,2.993108,0.107784,-3.307609,-0.125490,-0.048129,44.910667,-10.164469,5.492224,4635727599304179700.000000,0.604681,-0.503972,0.517621,0.335323,-7.635268,-7.647799,-1.390999,1.861287,0.594018,1.912158,43.525623,9.687400,11.688462,4635729103079604200.000000,0.591925,0.454163,0.594981,-0.298928,1
-9.298768,-1.338526,-3.704652,-0.048349,1.674990,-0.018135,45.623628,-6.735044,7.963114,4635732109556711400.000000,-0.787201,0.054227,-0.605728,-0.102312,-6.759046,0.971187,1.720919,-1.843844,-0.100534,0.498490,44.865081,-10.538947,5.076478,4635727599304179700.000000,0.600305,-0.507356,0.515831,0.340797,-6.635554,-0.407435,2.413210,-0.724481,0.211396,1.404171,43.622418,8.985434,11.693837,4635729103079604200.000000,0.594476,0.456098,0.593767,-0.293279,1
-10.192050,-0.221566,-4.915857,0.121077,1.134764,-0.069597,45.397027,-6.649597,8.536433,4635732109556711400.000000,-0.784362,0.054488,-0.609508,-0.101526,-1.415130,4.224226,6.977737,-0.271692,-0.234649,0.793008,44.874416,-10.933889,5.052432,4635727599304179700.000000,0.599099,-0.505964,0.516541,0.343899,2.357769,2.006711,0.382630,-3.972195,0.102187,0.129592,43.720084,8.572516,11.955817,4635729103079604200.000000,0.601817,0.446630,0.598580,-0.282913,1
-9.571474,0.462748,-5.318684,0.286787,0.343261,-0.078342,45.188379,-6.529827,8.743559,4635732059232310300.000000,-0.783564,0.053890,-0.610762,-0.100464,0.450485,13.299345,9.182535,-0.382115,-0.153417,0.887061,44.881955,-11.210691,5.247736,4635727599304179700.000000,0.597342,-0.504754,0.517485,0.347297,3.731259,-29.602976,2.194122,-2.688307,0.142818,-0.797060,43.670159,8.397607,12.429541,4635729103079604200.000000,0.605450,0.438027,0.603583,-0.277938,1
-7.566868,-0.016341,-2.758431,0.366008,-0.215641,-0.152767,45.257405,-6.519886,8.651622,4635732002182529000.000000,-0.784235,0.052988,-0.610206,-0.099081,0.226674,9.974338,3.393480,-1.359314,-0.008493,1.076101,44.946930,-11.560369,5.035960,4635727599304179700.000000,0.592924,-0.505760,0.517756,0.352956,-3.741094,-27.478101,12.933849,0.343697,-0.072161,-0.614546,43.450222,8.534043,12.645367,4635729103079604200.000000,0.604258,0.437251,0.604155,-0.280500,1
-5.094468,-0.658409,0.924889,0.321619,-0.247697,-0.313523,45.461505,-6.678583,8.606219,4635732002182529000.000000,-0.785041,0.052622,-0.609488,-0.097286,-0.663571,-0.939293,-1.071554,-0.683909,0.337295,1.347126,44.939049,-11.975420,4.624849,4635727599304179700.000000,0.588756,-0.504997,0.520420,0.357082,5.724548,-8.635891,5.311325,0.515317,0.174531,-1.445179,43.433941,8.828943,12.647727,4635729103079604200.000000,0.601146,0.435093,0.606646,-0.285129,1
-2.857555,-0.878933,2.475447,0.279019,0.067651,-0.464827,45.431410,-6.534077,8.594778,4635732002182529000.000000,-0.785092,0.052928,-0.609748,-0.095062,-2.553996,1.084775,-2.036761,-0.192823,0.248016,1.350859,44.669831,-12.443205,4.661022,4635727599304179700.000000,0.585787,-0.502870,0.523583,0.360327,2.123574,-19.610936,-3.814671,1.405488,0.308616,-1.563917,43.411241,9.508691,12.635520,4635729103079604200.000000,0.595904,0.434997,0.608593,-0.292045,1
-1.280462,-0.999052,2.611544,0.229573,0.143872,-0.537077,45.267354,-6.120167,8.621844,4635731901559494700.000000,-0.784965,0.053594,-0.610219,-0.092689,-1.155355,1.917578,-0.536292,-0.285790,0.155229,1.377470,44.429956,-12.996446,4.840929,4635727599304179700.000000,0.582766,-0.500754,0.526419,0.364022,-1.996094,-7.800080,-4.364910,1.114488,0.186158,-1.569034,43.091753,10.205293,12.634663,4635729103079604200.000000,0.591451,0.433985,0.610556,-0.298436,1
0.116971,-1.032356,3.552644,0.072129,-0.042010,-0.502955,45.337079,-5.945005,8.667256,4635731787434164200.000000,-0.785257,0.054616,-0.610025,-0.090869,1.037260,0.065384,0.402521,0.242749,0.472842,1.502042,44.283465,-13.529641,4.882961,4635727599304179700.000000,0.579939,-0.497543,0.531065,0.366184,-0.796073,-1.150325,1.520710,0.635545,0.039206,-1.638621,42.761296,10.753572,12.453080,4635728903432948700.000000,0.588116,0.431408,0.612841,-0.304028,1
2.557762,-0.509599,4.610393,-0.043321,0.036555,-0.440360,45.500393,-5.950723,8.621515,4635731787434164200.000000,-0.785297,0.055886,-0.610057,-0.089528,0.044585,2.223193,1.065287,0.448556,0.569513,1.458817,44.129450,-14.030107,5.011077,4635727599304179700.000000,0.577365,-0.494056,0.536146,0.367568,-3.498153,-1.560059,6.130455,1.104835,-0.001944,-1.561458,42.567885,11.449583,12.439344,4635728988154567700.000000,0.584106,0.430099,0.614256,-0.310685,1
5.480567,0.185596,5.008750,-0.136322,0.595329,-0.336598,45.471493,-5.802835,8.649645,4635731787434164200.000000,-0.783851,0.057406,-0.611903,-0.088634,-0.120489,3.842297,2.041153,0.123162,0.541101,1.353598,43.925564,-14.485342,5.391879,4635727599304179700.000000,0.574320,-0.491522,0.540420,0.369469,-1.747919,-0.341308,5.401531,1.364338,0.068210,-1.536358,42.600397,12.293705,12.246435,4635728995705421800.000000,0.579443,0.429547,0.615418,-0.317798,1
6.926857,0.600334,3.962245,-0.380444,1.311755,-0.160056,45.278491,-5.581871,9.054974,4635731787434164200.000000,-0.780439,0.059536,-0.616028,-0.088765,0.124078,2.484976,2.066867,-0.166781,0.525704,1.294929,43.791580,-14.957787,5.699331,4635727599304179700.000000,0.570787,-0.489773,0.544072,0.371901,-2.654486,0.016844,2.179176,1.290761,0.077674,-1.430673,42.581142,13.012046,11.857351,4635728995705421800.000000,0.574987,0.429071,0.616469,-0.324429,1
6.140385,0.677594,0.508528,-0.442910,1.594288,-0.047581,45.080863,-5.564256,9.680607,4635731787434164200.000000,-0.776213,0.061683,-0.621052,-0.089349,-1.005561,0.345009,1.992940,-0.022944,0.502665,1.217930,43.620409,-15.405520,5.894635,4635727599304179700.000000,0.567699,-0.487805,0.547717,0.373860,-1.577015,2.601152,0.681407,0.759660,0.111734,-1.354262,42.420559,13.493125,11.828974,4635728895894979600.000000,0.571466,0.427542,0.618149,-0.329433,1
3.388395,0.487994,-2.137201,-0.211597,1.293088,-0.047348,45.002205,-5.603198,10.208615,4635731787434164200.000000,-0.772795,0.062967,-0.625163,-0.089409,-1.877882,-0.681556,2.130846,0.305753,0.450301,1.124278,43.388478,-15.873282,6.037215,4635727599304179700.000000,0.565529,-0.485176,0.551543,0.374942,-1.477953,2.897647,0.302200,0.362400,0.149052,-1.334174,42.329067,13.820908,11.919775,4635728888331239400.000000,0.568562,0.425153,0.620404,-0.333288,1
0.004903,0.242013,-1.880507,-0.091886,0.858117,-0.090869,45.048711,-5.523170,10.633234,4635731787434164200.000000,-0.770541,0.063816,-0.627893,-0.089130,-2.193966,-1.359213,1.148463,0.502331,0.351643,1.032827,43.156537,-16.381319,6.199811,4635727599304179700.000000,0.564111,-0.482129,0.555244,0.375546,-1.284139,2.235688,0.678035,0.232110,0.162602,-1.329076,41.937154,14.342614,12.017436,4635728888331239400.000000,0.565842,0.422474,0.622842,-0.336758,1
-1.994220,-0.361025,-1.685918,-0.031408,0.518484,-0.096929,45.094147,-5.432294,10.965104,4635731787434164200.000000,-0.769192,0.064327,-0.629551,-0.088722,-1.740556,-1.167841,-0.150013,0.612857,0.308695,0.972610,43.022532,-16.675556,6.455348,4635727599304179700.000000,0.563094,-0.478881,0.558883,0.375830,-0.406939,1.663006,0.117808,0.282908,0.217057,-1.310899,41.533453,14.947842,12.024292,4635728888331239400.000000,0.562899,0.420024,0.625285,-0.340211,1
-2.223595,-1.037344,-1.812980,0.136483,0.188287,-0.055774,45.094147,-5.432294,11.120944,4635731787434164200.000000,-0.768730,0.064111,-0.630218,-0.088144,-1.004771,-0.500616,-0.794965,0.670927,0.308695,0.918847,42.843878,-16.841767,6.748299,4635727599304179700.000000,0.562263,-0.475610,0.562491,0.375844,-0.443949,1.373906,-0.721189,0.324074,0.238981,-1.256918,41.482472,15.433304,11.922151,4635728888331239400.000000,0.559885,0.417829,0.627607,-0.343594,1
-1.658436,-1.285148,-0.563997,0.242696,0.116983,-0.001686,45.059868,-5.352308,11.206643,4635731787434164200.000000,-0.768463,0.063386,-0.630709,-0.087478,-0.372838,0.201139,-1.090567,0.667802,0.329119,0.859529,42.599731,-17.118089,6.920799,4635727599304179700.000000,0.561458,-0.472507,0.566012,0.375677,-0.463024,1.956588,-0.599669,0.226545,0.196635,-1.184410,41.685061,15.909441,11.812273,4635728888331239400.000000,0.557239,0.415524,0.629826,-0.346618,1
-1.098952,-1.267761,-0.020720,0.289803,0.295730,0.073742,44.980911,-5.261391,11.389755,4635731787434164200.000000,-0.767710,0.062373,-0.631809,-0.086878,-0.390296,0.575802,-0.717269,0.609223,0.283169,0.820956,42.415820,-17.452367,7.018459,4635727599304179700.000000,0.560694,-0.469550,0.569245,0.375640,0.239844,2.569535,-0.245443,0.109723,0.179431,-1.127591,41.405380,16.294732,11.986165,4635728888331239400.000000,0.554909,0.413061,0.632059,-0.349224,1
-0.856865,-0.716466,-0.779639,0.341034,0.248662,0.110498,44.975440,-5.335655,11.401477,4635731787434164200.000000,-0.767079,0.061086,-0.632784,-0.086276,-0.346028,0.411742,-0.013119,0.445846,0.225000,0.788323,42.359688,-17.631369,7.116118,4635727599304179700.000000,0.559789,-0.466953,0.572013,0.376021,-0.036145,2.725875,0.120738,-0.069329,0.148589,-1.046234,40.940485,16.673119,12.272255,4635728888331239400.000000,0.553075,0.410345,0.634328,-0.351216,1
-0.880726,0.023299,-1.065179,0.288036,0.132461,0.100543,45.020905,-5.500052,11.309767,4635731787434164200.000000,-0.766740,0.059958,-0.633364,-0.085818,-0.573593,-0.396833,0.620594,0.256448,0.228622,0.780995,42.261812,-17.874923,7.213770,4635727599304179700.000000,0.558511,-0.464813,0.574471,0.376825,-0.004292,3.018182,0.679889,-0.248084,0.142364,-0.969871,40.827565,16.915358,12.202064,4635728888331239400.000000,0.551665,0.407403,0.636701,-0.352563,1
-1.357717,0.426927,-1.681498,0.227241,0.181693,0.106766,44.980921,-5.590991,11.361958,4635731837674405900.000000,-0.766253,0.059028,-0.634079,-0.085531,-0.951558,-1.660971,1.110452,0.103188,0.253755,0.783113,42.103136,-18.156470,7.311417,4635727599304179700.000000,0.556866,-0.463060,0.576743,0.377947,-0.192932,2.733222,0.935867,-0.366883,0.125182,-0.891053,40.810207,17.226742,12.183847,4635728788507911200.000000,0.550607,0.404363,0.639065,-0.353437,1
-2.470051,1.068884,-2.555717,0.203800,0.056668,0.119927,44.901180,-5.551008,11.453905,4635731894808346600.000000,-0.766087,0.058079,-0.634391,-0.085360,-0.989621,-2.930288,1.585700,-0.010140,0.297012,0.794398,42.147673,-18.355444,7.476814,4635727599304179700.000000,0.554874,-0.461604,0.578951,0.379280,-0.593297,2.165425,1.371988,-0.361021,0.113977,-0.826920,40.593770,17.464639,12.273758,4635728780957057000.000000,0.549656,0.401486,0.641277,-0.354192,1
-3.427570,1.636792,-2.651362,0.141988,-0.216048,0.094421,44.862206,-5.465561,11.453684,4635731894808346600.000000,-0.766634,0.057298,-0.633803,-0.085337,-0.530621,-3.679715,2.008115,-0.068735,0.334775,0.801520,42.115339,-18.624222,7.676827,4635727599304179700.000000,0.552659,-0.460320,0.581160,0.380692,-0.406977,2.101393,1.426546,-0.276563,0.118188,-0.802616,40.202945,17.537738,12.382774,4635728780957057000.000000,0.548580,0.398867,0.643323,-0.355105,1
-3.406074,1.475728,-2.755126,0.098391,-0.466844,0.010925,44.896464,-5.460055,11.361747,4635731894808346600.000000,-0.767861,0.056787,-0.632378,-0.085221,0.055118,-3.729573,2.171085,-0.115180,0.356867,0.797159,41.813626,-19.066725,7.872140,4635727599304179700.000000,0.550301,-0.459182,0.583330,0.382161,-0.810494,2.394708,1.416919,-0.260312,0.116579,-0.786217,40.174564,17.689556,12.390514,4635728780957057000.000000,0.547499,0.396322,0.645307,-0.356022,1
