Accelerometer-X,Accelerometer-Y,Accelerometer-Z,Gyroscope-X,Gyroscope-Y,Gyroscope-Z,Magnetometer-X,Magnetometer-Y,Magnetometer-Z,Barometer-pressure,Orientation-S,Orientation-X,Orientation-Y,Orientation-Z,Accelerometer-X,Accelerometer-Y,Accelerometer-Z,Gyroscope-X,Gyroscope-Y,Gyroscope-Z,Magnetometer-X,Magnetometer-Y,Magnetometer-Z,Barometer-pressure,Orientation-S,Orientation-X,Orientation-Y,Orientation-Z,Accelerometer-X,Accelerometer-Y,Accelerometer-Z,Gyroscope-X,Gyroscope-Y,Gyroscope-Z,Magnetometer-X,Magnetometer-Y,Magnetometer-Z,Barometer-pressure,Orientation-S,Orientation-X,Orientation-Y,Orientation-Z,jump
-9.139928,1.378166,3.168163,-0.155138,0.005341,-0.066071,46.151603,-3.740055,2.755455,4635732109556711400.000000,0.806206,-0.026821,0.589895,0.036551,-8.781999,-4.096978,-5.399211,0.435367,0.192837,0.426595,43.658131,-16.057191,-1.218678,4635727724816675800.000000,0.483945,-0.488870,0.432231,0.583077,-10.153923,-0.181182,-0.694943,0.075486,0.054023,0.088502,41.628563,17.726468,7.847603,4635729425202151400.000000,0.597293,0.411416,0.554734,-0.407736,0
-9.321282,1.095636,3.317097,-0.159094,0.003854,-0.061995,46.306783,-3.588391,2.933879,4635732109556711400.000000,0.806192,-0.027568,0.589867,0.036757,-10.298691,-2.737975,-4.006630,0.776369,0.187767,0.449937,43.771324,-16.184805,-1.194113,4635727814052544500.000000,0.483794,-0.487148,0.435340,0.582331,-10.182738,-0.061037,-0.690821,0.013268,0.022933,0.094988,41.596505,17.535564,7.945256,4635729425202151400.000000,0.597406,0.411670,0.554621,-0.407466,0
-9.464848,0.761767,3.762481,-0.134256,-0.025738,-0.039345,46.376388,-3.576769,3.015816,4635732109556711400.000000,0.806249,-0.028171,0.589747,0.036981,-12.659556,-0.536617,-1.246214,1.006391,0.084396,0.473855,43.604526,-16.185913,-1.071552,4635727814052544500.000000,0.484233,-0.484661,0.438840,0.581413,-10.032130,-0.090453,-0.618017,-0.025250,-0.004324,0.095657,41.644012,17.371136,7.995849,4635729425202151400.000000,0.597649,0.411784,0.554506,-0.407152,0
-9.551450,0.095119,4.312203,-0.082588,-0.026442,0.008762,46.143986,-3.576769,3.031528,4635732109556711400.000000,0.806307,-0.028482,0.589637,0.037240,-12.864856,1.385752,1.862757,1.069606,0.016314,0.439330,43.482769,-16.582245,-0.784925,4635727814052544500.000000,0.485000,-0.481935,0.442278,0.580435,-9.948149,-0.145604,-0.579630,-0.039920,-0.032056,0.093482,41.641221,17.524081,7.948789,4635729425202151400.000000,0.597977,0.411811,0.554349,-0.406858,0
-9.661902,-0.702906,4.615568,-0.023487,-0.000563,0.057794,46.155677,-3.569170,3.116980,4635732109556711400.000000,0.806300,-0.028478,0.589629,0.037515,-12.994996,2.303657,3.939592,0.960717,-0.001521,0.346675,43.482769,-16.756360,-0.639046,4635727814052544500.000000,0.485797,-0.479548,0.445222,0.579493,-10.096966,-0.253248,-0.538901,-0.031957,-0.056777,0.093958,41.590622,17.723818,7.851136,4635729425202151400.000000,0.598346,0.411819,0.554114,-0.406626,0
-9.779301,-1.085873,4.624751,0.021175,-0.011750,0.104849,46.384033,-3.426276,3.180762,4635732109556711400.000000,0.806318,-0.028206,0.589596,0.037840,-12.785618,2.463081,4.011611,0.645750,0.047711,0.282527,43.453933,-16.616335,-0.689341,4635727832169441300.000000,0.486025,-0.478031,0.447373,0.578899,-10.306267,-0.412388,-0.394188,0.008565,-0.073984,0.095065,41.672968,17.614728,7.800531,4635729425202151400.000000,0.598688,0.411902,0.553765,-0.406515,0
-9.797285,-1.052043,4.335900,0.060123,-0.011085,0.151785,46.299174,-3.596574,2.828026,4635732109556711400.000000,0.806331,-0.027689,0.589578,0.038228,-11.157833,1.944616,2.787225,0.335931,0.119092,0.206628,43.285094,-16.682089,-0.504174,4635727921426726900.000000,0.485819,-0.477347,0.448878,0.578470,-10.323809,-0.364794,-0.251810,0.060066,-0.086325,0.091463,41.761528,17.456587,7.800531,4635729425202151400.000000,0.598963,0.412083,0.553305,-0.406551,0
-9.679851,-0.582384,4.118486,0.067297,0.002442,0.175125,46.233516,-3.755252,2.755994,4635732109556711400.000000,0.806308,-0.027092,0.589608,0.038674,-10.231530,0.853534,1.807629,0.095167,0.122010,0.174370,43.196390,-16.984895,-0.356213,4635727921426726900.000000,0.485209,-0.477216,0.449746,0.578417,-10.089571,-0.061412,-0.142843,0.093606,-0.091346,0.075239,41.685083,17.491868,7.847573,4635729425202151400.000000,0.599165,0.412301,0.552805,-0.406713,0
-9.406626,0.001236,3.716845,0.088503,0.009820,0.172476,46.306726,-3.902288,2.946648,4635732109556711400.000000,0.806269,-0.026431,0.589665,0.039059,-9.169278,0.414917,1.240098,-0.031693,0.150261,0.122179,43.421869,-17.098189,-0.410803,4635727921426726900.000000,0.484283,-0.477612,0.450148,0.578553,-9.747763,0.274962,-0.049723,0.101077,-0.090278,0.048575,41.561668,17.453388,7.857028,4635729425202151400.000000,0.599274,0.412523,0.552307,-0.407005,0
-9.042770,0.527252,3.581997,0.084790,0.036419,0.137841,46.143986,-3.821499,3.030337,4635732109556711400.000000,0.806170,-0.025872,0.589808,0.039335,-8.958455,0.232607,0.787308,-0.123835,0.152733,0.059203,43.468365,-16.927275,-0.315196,4635727921426726900.000000,0.483321,-0.478317,0.450208,0.578729,-9.494170,0.486503,-0.053813,0.080739,-0.091782,0.018747,41.552656,17.371136,7.718665,4635729425202151400.000000,0.599370,0.412622,0.551891,-0.407327,0
-8.731756,0.824892,3.433743,0.071260,0.060224,0.093379,46.155645,-3.836623,2.839661,4635732109556711400.000000,0.806017,-0.025471,0.590023,0.039491,-9.140024,-0.403240,0.777425,-0.166945,0.146505,0.021508,43.399376,-16.813971,-0.244148,4635727921426726900.000000,0.482375,-0.479163,0.450076,0.578920,-9.429545,0.537126,-0.097209,0.040902,-0.094511,-0.008666,41.590622,17.412287,7.570389,4635729425202151400.000000,0.599494,0.412555,0.551583,-0.407630,0
-8.553900,0.963803,3.261121,0.063885,0.068667,0.035858,46.388134,-3.902880,2.755970,4635732109556711400.000000,0.805853,-0.025238,0.590260,0.039472,-9.551157,-0.600394,0.858307,-0.138200,0.140981,0.005867,43.423965,-16.997336,-0.225584,4635727921426726900.000000,0.481535,-0.479966,0.449970,0.579036,-9.513197,0.437186,-0.162776,-0.000914,-0.096094,-0.031612,41.596501,17.415435,7.613822,4635729425202151400.000000,0.599654,0.412327,0.551382,-0.407896,0
-8.484725,0.945795,3.295419,0.036981,0.075278,-0.017596,46.380591,-3.829063,2.946045,4635732109556711400.000000,0.805678,-0.025228,0.590508,0.039339,-9.873727,-0.671407,0.699112,-0.073620,0.132948,0.001761,43.466103,-17.187857,-0.105408,4635727921426726900.000000,0.480850,-0.480626,0.449996,0.579038,-9.665096,0.212051,-0.231488,-0.034694,-0.098230,-0.047908,41.638094,17.371136,7.715079,4635729425202151400.000000,0.599850,0.411974,0.551260,-0.408130,0
-8.499260,0.813244,3.284954,0.006052,0.085299,-0.049949,46.225946,-3.759302,3.028017,4635732109556711400.000000,0.805480,-0.025402,0.590782,0.039172,-9.845031,-0.722937,0.373828,0.041021,0.116386,-0.004800,43.309645,-17.098131,0.036622,4635727921426726900.000000,0.480442,-0.481029,0.450252,0.578844,-9.783095,-0.055570,-0.203017,-0.053288,-0.099852,-0.052853,41.746585,17.488653,7.662196,4635729425202151400.000000,0.600116,0.411500,0.551220,-0.408270,0
-8.561439,0.720237,3.305892,-0.023646,0.082399,-0.066073,46.163714,-3.999342,3.035593,4635732109556711400.000000,0.805288,-0.025715,0.591039,0.039025,-9.737226,-0.976592,0.187393,0.149875,0.098602,-0.001776,43.238621,-16.943716,0.005705,4635727939556508700.000000,0.480278,-0.481164,0.450740,0.578487,-9.832380,-0.254533,-0.123441,-0.056612,-0.101434,-0.052379,41.746177,17.685793,7.564081,4635729425202151400.000000,0.600379,0.411036,0.551166,-0.408425,0
-8.649191,0.719082,3.256490,-0.048976,0.086108,-0.062314,46.322392,-4.138972,2.962273,4635732109556711400.000000,0.805084,-0.026105,0.591305,0.038952,-9.637508,-0.933313,0.313903,0.208275,0.089183,0.000000,43.253047,-16.895205,-0.130001,4635728028800909300.000000,0.480246,-0.481157,0.451353,0.578042,-9.845499,-0.246433,-0.026700,-0.053013,-0.102542,-0.051271,41.622741,17.726521,7.519761,4635729528556566500.000000,0.600638,0.410581,0.551101,-0.408588,0
-8.786960,0.692350,3.197182,-0.068255,0.099945,-0.047105,46.466061,-3.898268,3.133775,4635732109556711400.000000,0.804840,-0.026523,0.591616,0.038976,-9.531771,-0.687281,0.611276,0.191414,0.087241,-0.000541,43.336432,-16.970501,-0.017934,4635728028800909300.000000,0.480185,-0.481179,0.451921,0.577631,-9.833292,-0.212483,0.065994,-0.044509,-0.099972,-0.051785,41.660658,17.576913,7.472765,4635729639950516200.000000,0.600877,0.410151,0.551029,-0.408766,0
-8.992169,0.617371,3.172768,-0.088094,0.112307,-0.026304,46.314888,-3.736044,3.304157,4635732109556711400.000000,0.804561,-0.026959,0.591967,0.039118,-9.456618,-0.516680,0.993068,0.117467,0.092054,-0.004105,43.384963,-17.027118,0.150757,4635728028800909300.000000,0.479977,-0.481366,0.452313,0.577341,-9.791713,-0.214776,0.115283,-0.037465,-0.096173,-0.050797,41.790441,17.456587,7.516092,4635729639950516200.000000,0.601097,0.409746,0.550954,-0.408950,0
-9.149102,0.509832,3.148359,-0.098874,0.116065,0.004766,46.314888,-3.747673,3.218149,4635732109556711400.000000,0.804265,-0.027354,0.592333,0.039390,-9.450729,-0.480205,1.059846,0.017626,0.099530,-0.008365,43.336422,-16.943735,0.248405,4635728028800909300.000000,0.479565,-0.481777,0.452471,0.577215,-9.718473,-0.194859,0.146029,-0.035763,-0.090440,-0.046565,41.793655,17.491829,7.617420,4635729639950516200.000000,0.601309,0.409364,0.550884,-0.409116,0
-9.274631,0.448220,3.123944,-0.111239,0.130717,0.038030,46.307404,-3.743643,3.138337,4635732109556711400.000000,0.803926,-0.027711,0.592749,0.039802,-9.527945,-0.504618,0.968229,-0.068468,0.108266,-0.007657,43.384977,-16.895181,0.296687,4635728028800909300.000000,0.478964,-0.482380,0.452441,0.577235,-9.698090,-0.260383,0.146950,-0.034261,-0.081341,-0.041739,41.743446,17.529831,7.523452,4635729639950516200.000000,0.601503,0.409014,0.550825,-0.409259,0
-9.468797,0.373248,3.102983,-0.114090,0.137499,0.074397,46.145254,-3.665675,3.424289,4635732109556711400.000000,0.803563,-0.027989,0.593191,0.040343,-9.595445,-0.537268,0.819386,-0.118769,0.119440,-0.008725,43.309666,-16.943734,0.103408,4635728028800909300.000000,0.478368,-0.483013,0.452415,0.577220,-9.746458,-0.311520,0.128408,-0.032044,-0.075365,-0.036438,41.772349,17.570941,7.375117,4635729639950516200.000000,0.601688,0.408694,0.550768,-0.409385,0
-9.634520,0.264533,3.154692,-0.109767,0.108558,0.111631,45.935190,-3.751010,3.779231,4635732109556711400.000000,0.803265,-0.028155,0.593541,0.041001,-9.800768,-0.606395,0.548911,-0.129054,0.113764,-0.009073,43.238621,-16.895187,-0.048830,4635728028800909300.000000,0.477638,-0.483751,0.452247,0.577339,-9.813363,-0.299313,0.127946,-0.033586,-0.069592,-0.031057,41.775122,17.574177,7.324442,4635729639950516200.000000,0.601870,0.408393,0.550718,-0.409485,0
-9.685771,0.177355,3.263406,-0.104175,0.078791,0.145409,46.163676,-4.073125,3.417040,4635732109556711400.000000,0.803035,-0.028214,0.593796,0.041762,-9.918582,-0.636708,0.339484,-0.118878,0.115168,-0.006769,43.265359,-16.970481,0.014931,4635727992618657800.000000,0.476920,-0.484466,0.452110,0.577439,-9.863118,-0.292978,0.128410,-0.039873,-0.066185,-0.025757,41.625553,17.529831,7.377285,4635729639950516200.000000,0.602035,0.408133,0.550649,-0.409594,0
-9.536428,0.052998,3.349996,-0.093696,0.073652,0.170288,46.303978,-4.235395,3.158697,4635732109556711400.000000,0.802814,-0.028175,0.594039,0.042580,-9.946977,-0.602408,0.211639,-0.092140,0.106792,-0.008185,43.397320,-17.055930,0.378957,4635727814052544500.000000,0.476277,-0.485110,0.452018,0.577502,-9.875790,-0.275363,0.069230,-0.051027,-0.065752,-0.020376,41.464072,17.606161,7.434309,4635729536661011500.000000,0.602227,0.407858,0.550592,-0.409662,0
-9.332362,-0.116167,3.456986,-0.087538,0.071932,0.178948,46.078937,-4.227771,3.358003,4635732109556711400.000000,0.802596,-0.028094,0.594277,0.043413,-9.922439,-0.720610,0.250439,-0.049418,0.094874,-0.005150,43.397320,-17.112600,0.622578,4635727814052544500.000000,0.475866,-0.485532,0.452121,0.577406,-9.858177,-0.262226,0.000466,-0.062817,-0.064603,-0.015076,41.454943,17.764848,7.428438,4635729425202151400.000000,0.602445,0.407567,0.550549,-0.409688,0
-9.198654,-0.249303,3.501806,-0.086019,0.057530,0.168166,46.004940,-4.305204,3.621016,4635732109556711400.000000,0.802415,-0.028031,0.594466,0.044208,-9.830821,-0.913624,0.358250,-0.007771,0.087757,0.002867,43.411707,-17.012760,0.556807,4635727814052544500.000000,0.475404,-0.485940,0.452216,0.577368,-9.821557,-0.321393,-0.012207,-0.066307,-0.065157,-0.009181,41.569274,17.806133,7.375141,4635729425202151400.000000,0.602707,0.407244,0.550528,-0.409653,0
-9.077725,-0.357451,3.470339,-0.075187,0.055027,0.155047,46.156193,-4.216315,3.523357,4635732109556711400.000000,0.802243,-0.027965,0.594647,0.044932,-9.710803,-0.964385,0.455909,0.028186,0.083136,0.013548,43.468382,-16.858300,0.215498,4635727814052544500.000000,0.474998,-0.486245,0.452410,0.577293,-9.790804,-0.343209,-0.018077,-0.058953,-0.065157,-0.005895,41.651661,17.650241,7.283352,4635729425202151400.000000,0.602963,0.406947,0.550489,-0.409624,0
-8.980639,-0.427259,3.538429,-0.061351,0.066576,0.135620,46.156193,-4.065065,3.430280,4635732109556711400.000000,0.802048,-0.027902,0.594866,0.045556,-9.617378,-0.937669,0.535071,0.059309,0.082068,0.023510,43.370603,-16.826157,0.167163,4635727814052544500.000000,0.474635,-0.486467,0.452697,0.577180,-9.754652,-0.258230,-0.006807,-0.050840,-0.065671,-0.007395,41.616444,17.565047,7.238990,4635729425202151400.000000,0.603175,0.406702,0.550410,-0.409660,0
-8.898624,-0.428405,3.496652,-0.048133,0.073853,0.111971,46.156193,-4.069074,3.434862,4635732109556711400.000000,0.801839,-0.027854,0.595110,0.046068,-9.609280,-0.764612,0.537241,0.070657,0.081898,0.028840,43.265321,-16.980613,0.378892,4635727814052544500.000000,0.474283,-0.486655,0.453022,0.577056,-9.699958,-0.207526,0.047419,-0.040364,-0.066225,-0.012181,41.613627,17.679367,7.327019,4635729373583169500.000000,0.603390,0.406437,0.550347,-0.409693,0
-8.888132,-0.449960,3.358178,-0.027172,0.076507,0.085420,46.156193,-4.153945,3.532510,4635732109556711400.000000,0.801632,-0.027803,0.595363,0.046438,-9.625595,-0.553325,0.598163,0.056032,0.085632,0.028301,43.411696,-17.041534,0.622578,4635727814052544500.000000,0.473897,-0.486881,0.453317,0.576950,-9.656526,-0.195789,0.079583,-0.024342,-0.068279,-0.019576,41.692740,17.726561,7.422101,4635729421065932800.000000,0.603571,0.406188,0.550266,-0.409782,0
-8.913114,-0.413342,3.379741,-0.014256,0.068561,0.061924,46.156193,-4.220342,3.621039,4635732109556711400.000000,0.801450,-0.027766,0.595589,0.046700,-9.668378,-0.514765,0.594056,0.026654,0.086879,0.024557,43.468394,-17.027159,0.589720,4635727814052544500.000000,0.473458,-0.487175,0.453537,0.576890,-9.626245,-0.106829,0.084980,-0.010888,-0.069984,-0.028161,41.737110,17.653320,7.375158,4635729532576333800.000000,0.603718,0.405952,0.550171,-0.409927,0
-8.952025,-0.378430,3.343686,0.000600,0.072884,0.038922,46.156193,-4.153945,3.532510,4635732109556711400.000000,0.801263,-0.027736,0.595830,0.046847,-9.751874,-0.526970,0.565539,-0.003771,0.088656,0.018688,43.399372,-16.984813,0.410842,4635727814052544500.000000,0.472969,-0.487544,0.453675,0.576871,-9.613093,-0.065485,0.085925,-0.005341,-0.071996,-0.034611,41.737110,17.615282,7.277505,4635729532576333800.000000,0.603848,0.405712,0.550073,-0.410104,0
-9.042595,-0.378999,3.320414,0.013665,0.077726,0.026105,46.156763,-4.227750,3.630157,4635732109556711400.000000,0.801068,-0.027696,0.596088,0.046918,-9.867684,-0.537126,0.506458,-0.023867,0.088297,0.014945,43.423885,-17.155704,0.346009,4635727814052544500.000000,0.472450,-0.487957,0.453757,0.576882,-9.654636,-0.186139,0.090846,-0.002774,-0.075284,-0.037899,41.737110,17.615282,7.273720,4635729532576333800.000000,0.603975,0.405466,0.549968,-0.410302,0
-9.234482,-0.387795,3.319277,0.031076,0.071838,0.013637,46.164420,-4.309213,3.723258,4635732109556711400.000000,0.800892,-0.027626,0.596329,0.046906,-9.877737,-0.537126,0.406844,-0.030797,0.085443,0.008716,43.480613,-17.283527,0.460089,4635727814052544500.000000,0.471938,-0.488388,0.453804,0.576900,-9.716144,-0.303761,0.109867,0.005646,-0.074812,-0.039993,41.731244,17.650481,7.230579,4635729532576333800.000000,0.604126,0.405179,0.549895,-0.410459,0
-9.352581,-0.331879,3.293149,0.033412,0.054945,0.008495,46.082947,-4.309213,3.723258,4635732109556711400.000000,0.800760,-0.027559,0.596513,0.046872,-9.814661,-0.547374,0.362123,-0.026859,0.078676,0.004452,43.380831,-17.185792,0.636925,4635727814052544500.000000,0.471458,-0.488803,0.453839,0.576914,-9.764970,-0.318345,0.133329,0.015856,-0.073702,-0.040631,41.683845,17.729587,7.088064,4635729532576333800.000000,0.604210,0.404980,0.549765,-0.410706,0
-9.389202,-0.375581,3.236671,0.039920,0.042427,0.007477,46.082947,-4.312632,3.719270,4635732109556711400.000000,0.800661,-0.027469,0.596653,0.046821,-9.759868,-0.608417,0.343858,-0.009955,0.069412,0.005520,43.252977,-17.051691,0.677265,4635727814052544500.000000,0.471028,-0.489159,0.453898,0.576917,-9.772741,-0.240187,0.182159,0.021321,-0.071136,-0.040548,41.715707,17.809173,7.084731,4635729532576333800.000000,0.604279,0.404799,0.549632,-0.410961,0
-9.422414,-0.316259,3.273285,0.048414,0.036466,0.007626,46.082947,-4.390395,3.637806,4635732109556711400.000000,0.800579,-0.027349,0.596774,0.046750,-9.798540,-0.663301,0.343761,0.002162,0.058389,0.007127,43.365087,-17.055889,0.492107,4635727796015124500.000000,0.470640,-0.489460,0.453967,0.576923,-9.765445,-0.188976,0.219256,0.019865,-0.066822,-0.041658,41.874393,17.853088,7.082204,4635729532576333800.000000,0.604339,0.404619,0.549514,-0.411208,0
-9.386359,-0.295813,3.308773,0.055841,0.039621,0.010582,46.082947,-4.549392,3.642342,4635732109556711400.000000,0.800489,-0.027197,0.596908,0.046670,-9.833018,-0.693862,0.301176,0.022642,0.056074,0.011040,43.553876,-17.141334,0.362391,4635727724705060900.000000,0.470290,-0.489708,0.454089,0.576902,-9.795723,-0.201183,0.220212,0.014525,-0.064131,-0.043197,41.915796,17.783196,6.943502,4635729532576333800.000000,0.604397,0.404429,0.549414,-0.411443,0
-9.361373,-0.351742,3.317004,0.062500,0.041956,0.008247,46.086925,-4.460522,3.743989,4635732109556711400.000000,0.800394,-0.027030,0.597051,0.046566,-9.802545,-0.734404,0.354104,0.045042,0.053407,0.013356,43.427434,-17.198092,0.555660,4635727814052544500.000000,0.469987,-0.489901,0.454265,0.576847,-9.791296,-0.201662,0.219254,0.007645,-0.059942,-0.043836,41.724790,17.694871,6.895267,4635729532576333800.000000,0.604455,0.404228,0.549338,-0.411657,0
-9.324759,-0.300661,3.246038,0.074049,0.047374,0.001691,46.172359,-4.305254,3.922535,4635732109556711400.000000,0.800288,-0.026840,0.597214,0.046410,-9.798447,-0.663125,0.408905,0.045034,0.052511,0.016022,43.140877,-17.114693,0.675246,4635727814052544500.000000,0.469680,-0.490086,0.454444,0.576799,-9.765923,-0.248090,0.237804,0.006283,-0.052507,-0.044265,41.607253,17.723709,7.080873,4635729532576333800.000000,0.604474,0.404067,0.549260,-0.411892,0
-9.287567,-0.205258,3.222188,0.081278,0.032369,-0.007923,46.249885,-4.227163,4.000060,4635732109556711400.000000,0.800222,-0.026648,0.597326,0.046207,-9.765850,-0.555401,0.380476,0.039157,0.047709,0.015306,43.118810,-17.039416,0.529083,4635727814052544500.000000,0.469372,-0.490272,0.454597,0.576771,-9.789374,-0.275871,0.226560,0.011152,-0.045502,-0.047469,41.768915,17.767635,7.273684,4635729532576333800.000000,0.604486,0.403892,0.549220,-0.412100,0
-9.237046,-0.158696,3.214505,0.083167,0.017833,-0.017536,46.171793,-4.300964,3.914053,4635732109556711400.000000,0.800195,-0.026470,0.597390,0.045968,-9.696699,-0.535151,0.400870,0.031507,0.046468,0.011929,43.326193,-16.953965,0.692231,4635727814052544500.000000,0.469177,-0.490384,0.454822,0.576657,-9.803027,-0.238285,0.195800,0.013844,-0.040161,-0.049135,41.848907,17.809155,7.183737,4635729532576333800.000000,0.604480,0.403726,0.549194,-0.412304,0
-9.153291,-0.158696,3.295433,0.079715,0.032964,-0.027099,46.248992,-4.379065,3.820352,4635732109556711400.000000,0.800131,-0.026330,0.597502,0.045705,-9.658102,-0.590047,0.459858,0.027229,0.048777,0.013355,43.368675,-16.868517,1.080252,4635727814052544500.000000,0.468968,-0.490505,0.455045,0.576547,-9.755170,-0.290554,0.159666,0.015980,-0.038924,-0.049135,41.721953,17.771027,6.943545,4635729532576333800.000000,0.604467,0.403570,0.549166,-0.412514,0
-9.103903,-0.162080,3.281536,0.071319,0.029908,-0.035249,46.400905,-4.312597,3.813785,4635732109556711400.000000,0.800075,-0.026237,0.597602,0.045436,-9.672351,-0.604239,0.500504,0.018154,0.046283,0.016380,43.228457,-16.825997,0.909099,4635727814052544500.000000,0.468622,-0.490725,0.455148,0.576561,-9.699514,-0.359874,0.122562,0.018116,-0.040590,-0.048622,41.645313,17.612350,6.895232,4635729532576333800.000000,0.604430,0.403450,0.549106,-0.412765,0
-9.043998,-0.234191,3.234962,0.066619,0.030991,-0.035200,46.401299,-4.382458,3.918576,4635732109556711400.000000,0.800015,-0.026160,0.597704,0.045179,-9.698810,-0.586011,0.484153,0.012281,0.042547,0.018695,43.279498,-16.980553,0.545412,4635727814052544500.000000,0.468266,-0.490942,0.455234,0.576597,-9.674611,-0.336923,0.121586,0.019739,-0.038026,-0.047041,41.721978,17.647027,6.987031,4635729532576333800.000000,0.604407,0.403316,0.549066,-0.412983,0
-9.011869,-0.278526,3.234962,0.075163,0.053506,-0.034083,46.168400,-4.379091,3.914088,4635732109556711400.000000,0.799900,-0.026055,0.597883,0.044902,-9.731345,-0.642903,0.386486,0.008540,0.040584,0.022079,43.497083,-17.041534,0.740747,4635727814052544500.000000,0.467900,-0.491155,0.455314,0.576651,-9.668263,-0.246594,0.134281,0.015168,-0.035762,-0.045930,41.839163,17.850148,7.078337,4635729532576333800.000000,0.604393,0.403170,0.549044,-0.413175,0
-9.071784,-0.228574,3.231596,0.083659,0.055298,-0.032143,46.175694,-4.301358,3.824845,4635732109556711400.000000,0.799781,-0.025917,0.598070,0.044611,-9.739464,-0.616447,0.290880,0.003383,0.034891,0.025636,43.525306,-17.029273,0.903348,4635727832027701200.000000,0.467526,-0.491356,0.455378,0.576732,-9.685838,-0.142103,0.175290,0.003462,-0.038367,-0.046956,41.883602,17.856518,7.129124,4635729532576333800.000000,0.604404,0.402987,0.549037,-0.413347,0
-9.110650,-0.157013,3.160034,0.091087,0.050988,-0.034083,46.323167,-4.138309,3.910858,4635732109556711400.000000,0.799674,-0.025759,0.598244,0.044295,-9.729300,-0.592085,0.229950,0.005703,0.031861,0.025814,43.299606,-16.982594,0.903348,4635727921426726900.000000,0.467283,-0.491451,0.455543,0.576717,-9.734177,-0.126951,0.225592,-0.010381,-0.037514,-0.048579,41.883602,17.773979,7.082257,4635729532576333800.000000,0.604434,0.402768,0.549058,-0.413489,0
-9.195541,-0.119830,3.126778,0.097054,0.066459,-0.032044,46.242203,-4.142237,4.012444,4635732109556711400.000000,0.799529,-0.025578,0.598470,0.043969,-9.727258,-0.620535,0.280770,0.014605,0.024385,0.027061,43.265169,-17.053741,0.903348,4635727921426726900.000000,0.467072,-0.491506,0.455719,0.576702,-9.777638,-0.252418,0.208510,-0.020721,-0.032131,-0.049135,41.801594,17.844270,7.031464,4635729532576333800.000000,0.604466,0.402532,0.549111,-0.413601,0
-9.267102,-0.072683,3.166766,0.094095,0.048595,-0.032143,46.257780,-4.227128,4.191628,4635732109556711400.000000,0.799427,-0.025403,0.598636,0.043653,-9.727303,-0.604244,0.297105,0.024393,0.018873,0.028840,43.411613,-17.025155,0.887013,4635727921426726900.000000,0.466890,-0.491524,0.455912,0.576682,-9.807908,-0.406726,0.183111,-0.021962,-0.030421,-0.045547,41.677556,17.885326,6.990466,4635729532576333800.000000,0.604502,0.402305,0.549164,-0.413699,0
-9.300922,-0.063835,3.272703,0.095791,0.037679,-0.034230,46.331468,-4.300923,4.276404,4635732109556711400.000000,0.799353,-0.025226,0.598766,0.043327,-9.774048,-0.567625,0.388634,0.029554,0.022431,0.028304,43.456237,-16.911412,0.822016,4635727921426726900.000000,0.466592,-0.491638,0.456020,0.576741,-9.826960,-0.469738,0.183111,-0.014145,-0.030464,-0.039095,41.639454,17.847223,6.899158,4635729532576333800.000000,0.604535,0.402114,0.549192,-0.413800,0
-9.276507,-0.125432,3.293760,0.088460,0.043598,-0.035053,46.161125,-4.378540,4.093293,4635732109556711400.000000,0.799263,-0.025076,0.598915,0.043016,-9.763925,-0.535084,0.445592,0.031683,0.022074,0.025278,43.309780,-17.094579,0.952353,4635727921426726900.000000,0.466307,-0.491751,0.456126,0.576791,-9.821104,-0.499513,0.171399,-0.002353,-0.029396,-0.033755,41.668734,17.923354,6.801504,4635729532576333800.000000,0.604553,0.401969,0.549192,-0.413914,0
-9.252093,-0.195878,3.242133,0.084237,0.039570,-0.030731,46.016979,-4.285815,3.918017,4635732109556711400.000000,0.799183,-0.024930,0.599049,0.042732,-9.812712,-0.526959,0.476089,0.022960,0.020473,0.023499,43.238621,-17.297890,1.180000,4635727921426726900.000000,0.466013,-0.491881,0.456204,0.576856,-9.791331,-0.536629,0.164552,0.009865,-0.027303,-0.028415,41.741477,18.046908,6.744839,4635729532576333800.000000,0.604555,0.401872,0.549166,-0.414040,0
-9.229913,-0.204735,3.136186,0.081033,0.039564,-0.025440,46.175655,-4.053416,3.901904,4635732109556711400.000000,0.799100,-0.024783,0.599183,0.042475,-9.800504,-0.543248,0.459763,0.013704,0.021184,0.023856,43.252906,-17.271361,1.098666,4635727921426726900.000000,0.465816,-0.491937,0.456361,0.576844,-9.754212,-0.525912,0.194325,0.022726,-0.025123,-0.024099,41.750809,18.015252,6.791185,4635729532576333800.000000,0.604537,0.401821,0.549117,-0.414181,0
-9.252098,-0.145375,3.115672,0.077877,0.017818,-0.020973,46.330436,-4.068406,3.813164,4635732109556711400.000000,0.799071,-0.024633,0.599245,0.042246,-9.778095,-0.571708,0.384551,0.007120,0.020652,0.026171,43.336317,-17.137154,1.114990,4635727921426726900.000000,0.465485,-0.492091,0.456407,0.576943,-9.747362,-0.424393,0.208024,0.026791,-0.024055,-0.019357,41.712696,17.967804,6.848353,4635729532576333800.000000,0.604519,0.401792,0.549056,-0.414315,0
-9.225449,-0.118726,3.170576,0.075546,0.011463,-0.012574,46.396992,-4.138309,3.914740,4635732109556711400.000000,0.799055,-0.024470,0.599286,0.042052,-9.710976,-0.569697,0.410973,0.006054,0.021182,0.029197,43.385084,-17.141262,1.180012,4635727921426726900.000000,0.465146,-0.492242,0.456457,0.577048,-9.753716,-0.289122,0.195318,0.017396,-0.021963,-0.016534,41.671720,18.082021,6.889331,4635729532576333800.000000,0.604516,0.401750,0.549012,-0.414418,0
-9.157223,-0.044933,3.096784,0.069381,0.026895,-0.007428,46.323755,-4.142206,4.093933,4635732109556711400.000000,0.799000,-0.024319,0.599377,0.041891,-9.678432,-0.612409,0.376364,0.009792,0.014240,0.032225,43.297567,-17.226711,1.082355,4635727921426726900.000000,0.464821,-0.492363,0.456509,0.577165,-9.759569,-0.243649,0.189465,0.003467,-0.020295,-0.015554,41.592123,18.199739,6.980636,4635729584066461700.000000,0.604535,0.401678,0.548995,-0.414483,0
-9.192175,0.037735,3.017455,0.068410,0.008058,-0.006555,46.246617,-4.227101,4.192149,4635732109556711400.000000,0.798991,-0.024167,0.599406,0.041739,-9.660112,-0.610351,0.309261,0.011216,0.009968,0.038275,43.165379,-17.297890,1.017309,4635727921426726900.000000,0.464494,-0.492459,0.456569,0.577299,-9.771776,-0.262209,0.206524,-0.010375,-0.016710,-0.013886,41.554001,18.161768,6.990492,4635729639950516200.000000,0.604571,0.401582,0.549009,-0.414506,0
-9.191620,0.061037,3.065169,0.069138,-0.002282,-0.009759,46.098485,-4.289788,4.287567,4635732109556711400.000000,0.799008,-0.024021,0.599400,0.041578,-9.627584,-0.563597,0.329600,0.015134,0.005696,0.037563,43.177605,-17.283626,1.098666,4635727921426726900.000000,0.464186,-0.492538,0.456628,0.577433,-9.772277,-0.291973,0.226088,-0.021743,-0.013330,-0.011838,41.554001,18.003082,6.992832,4635729639950516200.000000,0.604622,0.401467,0.549048,-0.414492,0
-9.181633,0.056595,3.088473,0.063215,-0.006167,-0.013012,46.164513,-4.134423,4.081152,4635732109556711400.000000,0.799035,-0.023901,0.599380,0.041420,-9.678452,-0.628672,0.331638,0.021898,0.001958,0.038632,43.265112,-17.198175,1.082364,4635727921426726900.000000,0.463897,-0.492592,0.456698,0.577563,-9.765923,-0.375917,0.219733,-0.023075,-0.013886,-0.008589,41.594969,17.996550,7.037819,4635729639950516200.000000,0.604682,0.401355,0.549082,-0.414467,0
-9.215480,-0.041063,3.092914,0.067439,-0.023791,-0.017382,46.075730,-4.052858,3.906369,4635732109556711400.000000,0.799107,-0.023774,0.599301,0.041240,-9.739488,-0.587975,0.345882,0.025637,0.000890,0.038987,43.385095,-17.141250,1.001007,4635727921426726900.000000,0.463619,-0.492635,0.456776,0.577688,-9.777626,-0.457022,0.202178,-0.017223,-0.012862,-0.004917,41.668712,18.196200,6.937836,4635729639950516200.000000,0.604734,0.401271,0.549102,-0.414447,0
-9.190513,-0.135389,3.187240,0.070789,-0.029569,-0.023402,45.931451,-4.052858,3.910246,4635732109556711400.000000,0.799195,-0.023650,0.599204,0.041032,-9.788301,-0.537126,0.368258,0.032224,-0.000356,0.035426,43.324074,-17.240947,1.033588,4635727921426726900.000000,0.463367,-0.492668,0.456860,0.577796,-9.790338,-0.481940,0.159707,-0.010302,-0.011750,0.000935,41.659531,18.323313,6.748381,4635729639950516200.000000,0.604779,0.401223,0.549100,-0.414429,0
-9.154998,-0.158141,3.207772,0.076518,-0.022528,-0.021509,46.094048,-4.049527,3.996261,4635732109556711400.000000,0.799265,-0.023504,0.599131,0.040815,-9.767950,-0.537126,0.382502,0.038631,-0.001958,0.029907,43.338326,-17.397595,1.198362,4635727921426726900.000000,0.463146,-0.492695,0.456945,0.577883,-9.784486,-0.517551,0.140132,-0.002825,-0.013286,0.008368,41.503869,18.241399,6.699843,4635729639950516200.000000,0.604827,0.401209,0.549069,-0.414414,0
-9.142793,-0.145384,3.155034,0.068071,-0.024616,-0.024712,46.323781,-3.979061,4.093346,4635732109556711400.000000,0.799340,-0.023394,0.599049,0.040611,-9.708955,-0.535091,0.415052,0.037741,-0.000890,0.023855,43.383078,-17.483036,1.192256,4635727885635333100.000000,0.462936,-0.492738,0.457018,0.577957,-9.783980,-0.566884,0.152339,0.008747,-0.014442,0.016401,41.500105,18.117307,6.838448,4635729639950516200.000000,0.604874,0.401238,0.549004,-0.414404,0
-9.128369,-0.124289,3.270477,0.061856,-0.024812,-0.027578,46.249977,-3.967960,4.171056,4635732109556711400.000000,0.799415,-0.023313,0.598965,0.040414,-9.666230,-0.522885,0.484223,0.026527,0.000534,0.020117,43.222361,-17.540010,1.108840,4635727724565468200.000000,0.462711,-0.492812,0.457059,0.578042,-9.790338,-0.568407,0.152847,0.021697,-0.013374,0.024389,41.744238,18.085014,6.980601,4635729639950516200.000000,0.604912,0.401319,0.548906,-0.414399,0
-9.070101,-0.168142,3.242199,0.059526,-0.007767,-0.023354,46.168400,-3.982927,4.085062,4635732109556711400.000000,0.799447,-0.023233,0.598937,0.040236,-9.666230,-0.535094,0.512709,0.012818,0.002670,0.019761,43.106378,-17.428098,1.114945,4635727814052544500.000000,0.462567,-0.492830,0.457163,0.578059,-9.772789,-0.490838,0.152338,0.026704,-0.014353,0.029864,41.830448,18.085522,6.984668,4635729639950516200.000000,0.604952,0.401424,0.548789,-0.414394,0
-9.071757,-0.107658,3.136198,0.053117,-0.014514,-0.019908,46.172265,-4.063902,3.996791,4635732109556711400.000000,0.799494,-0.023166,0.598887,0.040088,-9.723196,-0.646992,0.439468,0.002136,0.000178,0.023855,43.250827,-17.196165,1.180051,4635727814052544500.000000,0.462397,-0.492854,0.457246,0.578109,-9.742018,-0.345375,0.187940,0.024657,-0.016022,0.033535,41.750848,18.044072,6.892863,4635729639950516200.000000,0.605005,0.401530,0.548664,-0.414380,0
-9.107274,-0.061588,3.112888,0.047143,-0.027820,-0.011412,46.253853,-4.293701,4.101687,4635732109556711400.000000,0.799572,-0.023095,0.598792,0.039986,-9.753716,-0.634800,0.366237,0.003559,0.001068,0.030976,43.299674,-17.053741,1.066152,4635727814052544500.000000,0.462213,-0.492863,0.457350,0.578166,-9.729300,-0.262204,0.202189,0.015267,-0.013975,0.037340,41.706848,18.041009,6.801569,4635729639950516200.000000,0.605074,0.401627,0.548553,-0.414332,0
-9.124438,-0.072694,3.114540,0.049721,-0.029418,-0.003887,46.253302,-4.212745,4.096730,4635732109556711400.000000,0.799653,-0.022999,0.598693,0.039903,-9.759816,-0.571715,0.295018,0.012283,-0.000177,0.030798,43.252854,-17.094408,0.903348,4635727814052544500.000000,0.462053,-0.492851,0.457473,0.578208,-9.752693,-0.344588,0.183111,0.003895,-0.011750,0.042035,41.665402,18.044076,6.657125,4635729639950516200.000000,0.605163,0.401712,0.548458,-0.414245,0
-9.242656,-0.061037,3.151162,0.039040,-0.042622,0.004465,46.238338,-3.982918,3.991821,4635732109556711400.000000,0.799765,-0.022915,0.598549,0.039878,-9.788305,-0.557475,0.252279,0.022251,-0.006765,0.029375,43.326107,-17.326350,0.921644,4635727814052544500.000000,0.461931,-0.492805,0.457605,0.578239,-9.801519,-0.503275,0.171416,0.001535,-0.012261,0.050024,41.586315,17.964988,6.608002,4635729588518102000.000000,0.605256,0.401828,0.548338,-0.414155,0
-9.276527,-0.059938,3.185583,0.028792,-0.063213,0.008786,46.165104,-4.056703,4.005005,4635732109556711400.000000,0.799926,-0.022851,0.598335,0.039894,-9.767978,-0.535095,0.297039,0.032222,-0.009789,0.025815,43.307855,-17.468794,1.011184,4635727814052544500.000000,0.461844,-0.492740,0.457746,0.578252,-9.838653,-0.545029,0.147003,0.008320,-0.014864,0.058057,41.547640,17.920467,6.752941,4635729532576333800.000000,0.605357,0.401976,0.548187,-0.414065,0
-9.251564,-0.036622,3.175024,0.027772,-0.068159,0.014174,46.098450,-4.130619,4.280404,4635732109556711400.000000,0.800099,-0.022775,0.598105,0.039932,-9.723184,-0.526948,0.323483,0.031869,-0.017088,0.021008,43.151167,-17.454583,1.017248,4635727814052544500.000000,0.461783,-0.492666,0.457863,0.578271,-9.833835,-0.465424,0.169361,0.023606,-0.014021,0.065534,41.589081,17.996474,6.801580,4635729532576333800.000000,0.605434,0.402192,0.547990,-0.414002,0
-9.214393,-0.034425,3.199438,0.027916,-0.086856,0.020391,46.171695,-3.960265,4.173957,4635732109556711400.000000,0.800316,-0.022681,0.597813,0.039992,-9.757773,-0.537126,0.356044,0.023860,-0.022431,0.018872,43.108331,-17.397545,1.084464,4635727814052544500.000000,0.461725,-0.492597,0.457949,0.578309,-9.773836,-0.409724,0.213371,0.045433,-0.007613,0.071475,41.697389,18.085010,6.610409,4635729532576333800.000000,0.605492,0.402459,0.547784,-0.413930,0
-9.163376,0.014399,3.222754,0.030209,-0.093230,0.022431,46.244930,-3.816381,3.881559,4635732109556711400.000000,0.800550,-0.022572,0.597500,0.040054,-9.763927,-0.537126,0.362164,0.015309,-0.023319,0.016558,43.250832,-17.468794,0.996983,4635727796206241800.000000,0.461659,-0.492545,0.458007,0.578360,-9.723457,-0.332200,0.213890,0.057169,-0.004273,0.072168,41.855546,17.980341,6.592121,4635729532576333800.000000,0.605524,0.402763,0.547565,-0.413878,0
-9.069032,0.057295,3.217409,0.014213,-0.076018,0.022384,46.304732,-3.986563,3.626220,4635732109556711400.000000,0.800739,-0.022519,0.597242,0.040154,-9.686592,-0.537126,0.358037,0.017445,-0.027949,0.013353,43.236630,-17.454593,0.899326,4635727706678362100.000000,0.461612,-0.492485,0.458054,0.578412,-9.728780,-0.239345,0.201682,0.044340,-0.006829,0.069986,41.915420,17.742557,6.878735,4635729532576333800.000000,0.605583,0.403021,0.547369,-0.413801,0
-9.046108,-0.025259,3.099626,0.021548,-0.056686,0.021326,46.082947,-4.139786,3.909744,4635732109556711400.000000,0.800880,-0.022448,0.597050,0.040231,-9.664166,-0.537126,0.441494,0.018517,-0.028840,0.011036,43.165379,-17.369150,0.815869,4635727706678362100.000000,0.461463,-0.492515,0.457999,0.578549,-9.712293,-0.295170,0.189475,0.027397,-0.011147,0.069941,41.842701,17.650341,6.990563,4635729532576333800.000000,0.605680,0.403227,0.547192,-0.413692,0
-9.071366,-0.073244,3.040698,0.032081,-0.060884,0.019134,46.085689,-4.223762,4.098312,4635732109556711400.000000,0.801033,-0.022346,0.596845,0.040275,-9.702858,-0.545236,0.445591,0.013357,-0.028840,0.012995,43.151186,-17.297890,0.805689,4635727706678362100.000000,0.461299,-0.492550,0.457937,0.578698,-9.651259,-0.390637,0.159742,0.027589,-0.010773,0.072031,41.833203,17.729423,6.899275,4635729532576333800.000000,0.605778,0.403442,0.547010,-0.413579,0
-9.144821,-0.073455,3.100891,0.034218,-0.060958,0.013757,46.243119,-4.219543,3.902994,4635732109556711400.000000,0.801188,-0.022249,0.596640,0.040296,-9.688623,-0.583928,0.408969,0.005873,-0.028130,0.013709,43.094118,-17.312082,0.821909,4635727706678362100.000000,0.461234,-0.492508,0.457957,0.578770,-9.648644,-0.273793,0.157650,0.027444,-0.010590,0.073191,41.871395,17.809032,6.801616,4635729481189290000.000000,0.605875,0.403661,0.546827,-0.413465,0
-9.229844,-0.084614,3.113307,0.036170,-0.065432,0.006281,46.325629,-3.976890,3.712517,4635732109556711400.000000,0.801354,-0.022164,0.596420,0.040288,-9.670291,-0.567666,0.390593,0.010496,-0.025809,0.012818,43.191733,-17.383343,0.921593,4635727706678362100.000000,0.461171,-0.492468,0.457986,0.578831,-9.744727,-0.117281,0.212319,0.020898,-0.012307,0.070078,41.830504,17.888114,6.797426,4635729527963908100.000000,0.605982,0.403854,0.546655,-0.413347,0
-9.290462,-0.035575,3.136884,0.027607,-0.081161,-0.001270,46.243108,-3.824897,3.798178,4635732109556711400.000000,0.801561,-0.022123,0.596145,0.040278,-9.676419,-0.535100,0.469908,0.020827,-0.032399,0.012286,43.324074,-17.369160,1.027397,4635727706678362100.000000,0.461142,-0.492395,0.458024,0.578886,-9.843956,-0.161381,0.244148,0.022293,-0.010216,0.064738,41.750897,17.926835,6.889238,4635729639950516200.000000,0.606110,0.403993,0.546532,-0.413187,0
-9.327294,0.023996,3.112469,0.018049,-0.080349,-0.013001,46.327095,-4.058513,3.892905,4635732109556711400.000000,0.801766,-0.022143,0.595870,0.040252,-9.658082,-0.524918,0.557489,0.021549,-0.034535,0.009791,43.295710,-17.271552,1.098666,4635727706678362100.000000,0.461019,-0.492404,0.457964,0.579023,-9.899152,-0.279193,0.238307,0.066521,0.000143,0.070130,41.712696,17.885423,6.892920,4635729639950516200.000000,0.606111,0.404323,0.546313,-0.413152,0
-9.374870,-0.001040,3.088889,0.011440,-0.094288,-0.023627,46.324390,-4.381209,3.817588,4635732105896813600.000000,0.802007,-0.022210,0.595546,0.040210,-9.656109,-0.524918,0.537126,0.008559,-0.037381,0.011391,43.141017,-17.165529,1.066254,4635727706678362100.000000,0.460872,-0.492428,0.457871,0.579194,-9.801978,-0.603555,0.196900,0.227085,0.031586,0.094373,41.712696,17.812183,6.754913,4635729639950516200.000000,0.605810,0.405169,0.545856,-0.413369,0
-9.350033,-0.063760,3.112678,-0.006977,-0.111142,-0.030958,46.165467,-4.306281,3.625599,4635731894808346600.000000,0.802289,-0.022353,0.595162,0.040190,-9.578823,-0.545164,0.555347,-0.012260,-0.043789,0.015308,43.108270,-17.326234,0.889176,4635727724486008800.000000,0.460687,-0.492468,0.457722,0.579425,-9.644906,-1.190001,0.152857,0.497130,0.075470,0.122328,41.712696,17.773979,6.699749,4635729639950516200.000000,0.604998,0.406835,0.544995,-0.414056,0
-9.302665,-0.221189,3.103592,-0.040158,-0.114656,-0.029817,45.998950,-4.138309,3.628719,4635731894808346600.000000,0.802576,-0.022603,0.594761,0.040257,-9.485214,-0.679381,0.675333,-0.047476,-0.050198,0.018153,43.279172,-17.468794,0.817896,4635727814052544500.000000,0.460435,-0.492554,0.457483,0.579741,-9.835487,-1.214857,0.105614,0.698669,0.096180,0.136630,41.788608,17.809015,6.750694,4635729639950516200.000000,0.603820,0.409073,0.543812,-0.415125,0
-9.338663,-0.303326,3.269725,-0.077865,-0.136143,-0.024351,46.085632,-4.136864,3.810156,4635731894808346600.000000,0.802911,-0.022962,0.594282,0.040438,-9.411977,-0.842311,0.819919,-0.105558,-0.053596,0.027217,43.407572,-17.482955,0.817896,4635727814052544500.000000,0.460050,-0.492725,0.457115,0.580191,-10.263781,-0.203249,0.061037,0.665963,0.082804,0.138859,41.941458,17.853062,6.610568,4635729639950516200.000000,0.602724,0.411209,0.542643,-0.416136,0
-9.338250,-0.197797,3.156760,-0.135019,-0.165597,-0.011460,46.241642,-4.050173,3.892509,4635731894808346600.000000,0.803311,-0.023475,0.593696,0.040807,-9.356940,-0.840288,0.856404,-0.108279,-0.042909,0.051772,43.309981,-17.540083,0.801711,4635727814052544500.000000,0.459690,-0.492793,0.456905,0.580584,-10.386385,0.567910,0.026010,0.500689,0.062789,0.147032,42.017883,17.818566,6.411014,4635729639950516200.000000,0.601966,0.412913,0.541690,-0.416787,0
-9.316314,-0.347797,2.870186,-0.224018,-0.230935,0.005630,46.238751,-3.892923,3.791752,4635731898441598000.000000,0.803860,-0.024233,0.592877,0.041459,-9.369287,-0.834149,0.996891,-0.067324,-0.037391,0.084188,43.163425,-17.468794,0.720237,4635727814052544500.000000,0.459325,-0.492733,0.456871,0.580950,-10.244139,-0.045592,-0.076423,0.380357,0.044817,0.178936,41.982856,17.698087,6.453462,4635729639950516200.000000,0.601509,0.414353,0.540846,-0.417114,0
-9.438374,-0.698283,2.958088,-0.332867,-0.306908,0.022593,46.070740,-3.823583,3.512656,4635732109556711400.000000,0.804580,-0.025299,0.591784,0.042445,-9.281669,-0.832280,1.025499,-0.034221,-0.031337,0.103229,43.106284,-17.482945,0.736410,4635727814052544500.000000,0.458975,-0.492586,0.456970,0.581274,-10.292413,-0.982374,-0.152326,0.319241,0.013704,0.236704,42.026356,17.580260,6.602072,4635729639950516200.000000,0.601327,0.415713,0.539930,-0.417209,0
-9.557986,-0.842311,3.188388,-0.436100,-0.391435,0.032529,46.072176,-3.985152,3.329544,4635732109556711400.000000,0.805492,-0.026672,0.590388,0.043728,-9.340447,-0.689916,1.010877,-0.000721,-0.029187,0.124783,43.191735,-17.568395,0.834067,4635727814052544500.000000,0.458636,-0.492339,0.457198,0.581571,-10.499925,-1.404341,-0.147024,0.302052,-0.013095,0.303529,42.109703,17.507020,6.472108,4635729639950516200.000000,0.601349,0.417134,0.538859,-0.417145,0
-9.531504,-0.844583,3.324751,-0.517325,-0.483977,0.061607,46.156193,-4.310659,3.148064,4635732109556711400.000000,0.806611,-0.028229,0.588666,0.045318,-9.596607,-0.539146,1.220913,-0.005611,-0.037378,0.135647,43.248897,-17.651819,0.899394,4635727814052544500.000000,0.458275,-0.492062,0.457419,0.581917,-10.608233,-1.468097,0.029136,0.302520,-0.005949,0.370218,42.062479,17.427940,6.140369,4635729639950516200.000000,0.601464,0.418721,0.537684,-0.416906,0
-9.384212,-0.981514,3.582101,-0.600361,-0.553076,0.104561,46.158859,-4.394665,3.059137,4635732109556711400.000000,0.807873,-0.029946,0.586694,0.047263,-9.938671,-0.547313,0.993630,-0.079481,-0.040782,0.143647,43.191725,-17.698803,0.801737,4635727814052544500.000000,0.457642,-0.491986,0.457379,0.582510,-10.724947,-1.368301,0.423445,0.317370,0.028459,0.441129,42.023719,17.272465,6.087205,4635729639950516200.000000,0.601596,0.420562,0.536442,-0.416460,0
-9.186881,-1.270995,3.894773,-0.667023,-0.602845,0.161291,46.314684,-4.397516,2.766601,4635732109556711400.000000,0.809226,-0.031738,0.584541,0.049569,-10.069089,-0.533088,0.451768,-0.146866,-0.032920,0.158961,43.263039,-17.627491,0.720237,4635727814052544500.000000,0.456928,-0.491942,0.457314,0.583158,-10.799868,-1.395328,0.752558,0.364178,0.069093,0.507168,42.105943,17.081383,6.183319,4635729588627899400.000000,0.601667,0.422735,0.535104,-0.415879,0
-8.871321,-1.352578,3.932616,-0.696236,-0.625845,0.225220,46.301459,-4.568419,2.496206,4635732109556711400.000000,0.810605,-0.033468,0.582304,0.052163,-10.079102,-0.526852,0.414879,-0.159439,-0.045908,0.171065,43.236776,-17.641632,0.687914,4635727814052544500.000000,0.456187,-0.491864,0.457221,0.583877,-10.707505,-1.406002,0.907032,0.395537,0.113720,0.559232,42.188786,16.964069,6.042744,4635729532576333800.000000,0.601667,0.425180,0.533726,-0.415158,0
-8.669278,-1.210150,4.039235,-0.684435,-0.556512,0.279388,46.229233,-4.735057,2.122471,4635732109556711400.000000,0.811793,-0.035042,0.580302,0.054902,-10.176935,-0.660773,0.438162,-0.216072,-0.061069,0.188308,43.063946,-17.741218,0.478466,4635727814052544500.000000,0.455314,-0.491824,0.456994,0.584768,-10.762617,-1.255841,1.075234,0.384220,0.174130,0.601586,42.188786,16.843616,5.896176,4635729532576333800.000000,0.601618,0.427793,0.532437,-0.414198,0
-8.795031,-1.310264,3.952145,-0.669996,-0.493983,0.315175,46.219875,-4.651021,2.024800,4635732105974994900.000000,0.812811,-0.036493,0.578511,0.057716,-10.146473,-0.990715,-0.123579,-0.243062,-0.061555,0.220188,42.874314,-17.883846,0.260288,4635727814052544500.000000,0.454307,-0.491775,0.456763,0.585773,-11.097926,-1.304998,1.563831,0.292363,0.246713,0.618599,42.270453,16.649930,6.082845,4635729532576333800.000000,0.601596,0.430334,0.531455,-0.412856,0
-9.138213,-1.553979,3.774311,-0.685786,-0.524118,0.318616,46.373299,-4.657893,1.924525,4635731894808346600.000000,0.813886,-0.037983,0.576607,0.060585,-10.093504,-1.078194,-0.395055,-0.192392,-0.088640,0.239778,42.957757,-17.883846,0.388237,4635727814052544500.000000,0.453408,-0.491523,0.456645,0.586772,-11.767058,-1.704599,2.717903,0.118596,0.303571,0.625462,42.441357,16.458823,6.374314,4635729532576333800.000000,0.601768,0.432547,0.530898,-0.411005,0
-9.563414,-1.771278,3.906770,-0.688291,-0.568433,0.272181,46.214619,-5.068882,1.666393,4635731894808346600.000000,0.815067,-0.039580,0.574536,0.063308,-10.095426,-1.131445,-0.144664,-0.094141,-0.102870,0.254917,43.006779,-17.897975,0.624596,4635727814052544500.000000,0.452592,-0.491104,0.456681,0.587724,-12.633734,-1.918188,4.222575,-0.018125,0.338449,0.667748,42.571422,16.271514,6.423262,4635729532576333800.000000,0.602174,0.434568,0.530581,-0.408681,0
-9.865388,-1.842716,3.930382,-0.712999,-0.644360,0.195152,46.059737,-5.232962,1.301174,4635731894808346600.000000,0.816432,-0.041425,0.572178,0.065840,-10.174713,-0.914171,-0.024309,0.003855,-0.126172,0.266127,42.933543,-18.009637,0.586377,4635727814052544500.000000,0.451995,-0.490420,0.456936,0.588556,-13.220471,-1.932428,5.394146,-0.044875,0.381160,0.722185,42.621877,15.922948,6.378096,4635729532576333800.000000,0.602619,0.436713,0.530311,-0.406082,0
-9.970619,-1.807909,3.908188,-0.745903,-0.725265,0.110988,46.134204,-4.990200,0.996156,4635731894808346600.000000,0.817993,-0.043560,0.569511,0.068177,-10.246268,-0.527047,-0.111657,0.052221,-0.159281,0.273309,42.886512,-18.241666,0.343823,4635727814052544500.000000,0.451650,-0.489465,0.457351,0.589294,-13.384602,-2.042294,5.871218,0.023068,0.428029,0.764401,42.669076,15.563499,6.477783,4635729532576333800.000000,0.602930,0.439156,0.529993,-0.403391,0
-9.798531,-1.880141,4.020651,-0.765792,-0.788574,0.040797,46.276862,-4.834332,0.701809,4635731898338527200.000000,0.819703,-0.045910,0.566598,0.070332,-10.210864,-0.490197,-0.260272,0.137062,-0.192393,0.245195,42.943743,-18.384350,0.384248,4635727814052544500.000000,0.451610,-0.488320,0.457854,0.589882,-13.526185,-2.227961,6.070568,0.206792,0.452146,0.808607,42.719534,15.366558,6.673091,4635729532576333800.000000,0.602920,0.442189,0.529343,-0.400940,0
-9.555408,-1.895336,4.285994,-0.761310,-0.805645,-0.011082,46.192814,-4.847734,0.323622,4635732109556711400.000000,0.821451,-0.048361,0.563606,0.072302,-10.595540,-0.529312,-0.367993,0.250390,-0.225502,0.212593,42.886502,-18.384350,0.537126,4635727814052544500.000000,0.451837,-0.487025,0.458417,0.590342,-13.461848,-2.391558,6.653587,0.563220,0.461249,0.868867,42.772554,15.137907,6.821753,4635729532576333800.000000,0.602323,0.446255,0.528001,-0.399098,0
-9.369066,-2.092482,4.359046,-0.743656,-0.822196,-0.035723,46.195422,-4.933195,-0.041237,4635732109556711400.000000,0.823231,-0.050803,0.560546,0.074147,-10.785794,-0.344067,-0.568982,0.305746,-0.258967,0.191429,42.931669,-18.398448,0.474690,4635727831767867400.000000,0.452292,-0.485582,0.459009,0.590722,-12.889372,-2.288795,7.359611,1.075262,0.469794,0.929863,42.940180,14.832722,6.826124,4635729532576333800.000000,0.600802,0.451788,0.525660,-0.398255,0
-8.988946,-2.398189,4.419673,-0.691895,-0.869940,-0.064262,46.352696,-5.017243,-0.320557,4635732109556711400.000000,0.825125,-0.053119,0.557319,0.075782,-10.460253,-0.129286,-0.851144,0.362914,-0.296149,0.157813,42.758899,-18.483891,0.142594,4635727921426726900.000000,0.453123,-0.483918,0.459691,0.590920,-12.197232,-1.810375,7.625989,1.596411,0.474258,0.974260,43.178485,14.597512,6.769279,4635729532576333800.000000,0.598331,0.458708,0.522353,-0.398415,0
-8.501441,-2.740787,4.457878,-0.609077,-0.897966,-0.075289,46.423371,-5.017243,-0.518842,4635732106077648900.000000,0.827087,-0.055166,0.554008,0.077191,-10.169158,0.442971,-0.496739,0.394908,-0.339801,0.110287,42.555008,-18.569342,0.061037,4635727921426726900.000000,0.454221,-0.482173,0.460273,0.591051,-11.550866,-0.752731,7.347114,2.015996,0.476298,1.010861,43.264689,14.403864,6.768730,4635729532576333800.000000,0.595068,0.466720,0.518244,-0.399363,0
-8.063953,-3.133399,4.589786,-0.490595,-0.877157,-0.107611,46.337918,-5.016057,-0.897270,4635731894808346600.000000,0.829023,-0.056884,0.550789,0.078210,-10.005784,0.651670,-0.349989,0.366256,-0.369147,0.058851,42.597277,-18.638692,0.046947,4635727921426726900.000000,0.455445,-0.480505,0.460623,0.591195,-10.845088,0.693480,6.521953,2.350492,0.485669,1.048416,43.232241,14.166111,6.775109,4635729532576333800.000000,0.591134,0.475607,0.513474,-0.400879,0
-7.745076,-3.644237,4.576218,-0.312256,-0.890688,-0.157041,46.255022,-4.940296,-1.275806,4635731894808346600.000000,0.831034,-0.058094,0.547560,0.078650,-10.149994,0.354147,-0.289348,0.346880,-0.411696,0.001876,42.811363,-18.642586,-0.070705,4635727921426726900.000000,0.456849,-0.478877,0.460727,0.591351,-10.158229,1.977035,5.423702,2.543793,0.482269,1.078538,43.273578,13.968600,6.687716,4635729532576333800.000000,0.586798,0.484968,0.508246,-0.402691,0
-7.329386,-4.045362,4.482865,-0.133769,-0.947602,-0.225994,46.328273,-4.710880,-1.669433,4635731894808346600.000000,0.833227,-0.058823,0.544166,0.078457,-10.362074,0.256773,-0.017065,0.399366,-0.450534,-0.051350,42.771136,-18.713949,-0.337367,4635727921426726900.000000,0.458558,-0.477156,0.460774,0.591383,-9.879944,2.819312,4.692396,2.542416,0.445009,1.093903,43.422548,13.781344,6.405587,4635729532576333800.000000,0.582487,0.494231,0.502827,-0.404487,0
-6.877910,-4.335198,4.649647,0.049712,-0.956803,-0.330878,46.397593,-4.638813,-2.240039,4635731894808346600.000000,0.835506,-0.059149,0.540766,0.077485,-10.355901,0.105426,0.335634,0.456591,-0.476333,-0.104041,42.581295,-18.699870,-0.500504,4635727921426726900.000000,0.460454,-0.475440,0.460721,0.591333,-9.924619,3.334279,4.420190,2.366461,0.368197,1.114102,43.584591,13.549389,6.113969,4635729532576333800.000000,0.578690,0.502876,0.497450,-0.405927,0
-6.440867,-4.432254,4.558026,0.217424,-0.941664,-0.448296,46.228081,-4.634945,-2.615672,4635731894808346600.000000,0.837814,-0.059159,0.537433,0.075721,-10.342104,0.357053,0.376278,0.477965,-0.506441,-0.159747,42.664734,-18.614420,-0.516593,4635727921426726900.000000,0.462693,-0.473628,0.460635,0.591106,-9.977047,3.448610,4.598554,2.095749,0.271729,1.144178,43.670038,13.282509,6.064853,4635729532576333800.000000,0.575614,0.510753,0.492140,-0.406939,0
-6.147856,-4.490961,4.086168,0.322200,-0.982418,-0.562278,46.143791,-4.389600,-2.827703,4635731894808346600.000000,0.840257,-0.059044,0.533952,0.073334,-10.140628,0.851916,0.469467,0.492051,-0.526734,-0.221694,42.711841,-18.530986,-0.614242,4635727921426726900.000000,0.465150,-0.471852,0.460419,0.590767,-10.011187,3.768352,4.297708,1.781672,0.176452,1.170397,43.790432,12.936570,5.981943,4635729532576333800.000000,0.573394,0.517721,0.487033,-0.407410,0
-5.849498,-4.402619,3.888336,0.432139,-1.096345,-0.656179,46.131585,-4.072245,-3.314394,4635731894808346600.000000,0.842986,-0.058715,0.530067,0.070400,-10.001883,1.032191,0.635377,0.485948,-0.551601,-0.283294,42.666590,-18.413524,-0.681753,4635727921426726900.000000,0.467788,-0.470142,0.460011,0.590365,-10.206992,4.377434,3.845575,1.285503,0.025493,1.160280,43.989900,12.586706,5.648751,4635729532576333800.000000,0.572493,0.523196,0.482394,-0.407202,0
-5.216648,-4.135409,4.285185,0.537242,-1.053421,-0.744328,46.120921,-3.756013,-3.699037,4635731894808346600.000000,0.845644,-0.058223,0.526326,0.066911,-10.014239,0.712646,0.380589,0.427025,-0.597733,-0.342582,42.825282,-18.101869,-0.610370,4635727921426726900.000000,0.470435,-0.468625,0.459163,0.590129,-10.443714,4.340902,4.725077,0.669601,-0.193799,1.136754,44.158322,12.205827,5.357143,4635729532576333800.000000,0.573311,0.526762,0.478306,-0.406276,0
-4.710714,-3.944260,4.297891,0.601586,-0.866809,-0.801050,46.203678,-3.510551,-3.714313,4635731894808346600.000000,0.847898,-0.057677,0.523229,0.063035,-9.943322,0.508381,0.367760,0.375826,-0.632992,-0.398134,42.985970,-17.981348,-0.656564,4635727921426726900.000000,0.473183,-0.467220,0.458006,0.589944,-10.227696,3.825542,6.124477,0.110101,-0.424241,1.123016,44.162244,11.846792,5.220629,4635729532576333800.000000,0.575776,0.528559,0.474632,-0.404762,0
-4.629676,-3.244985,3.578999,0.614666,-0.767904,-0.864467,46.118033,-3.182486,-3.929130,4635731894808346600.000000,0.849931,-0.057247,0.520454,0.058880,-9.776278,0.576227,0.611752,0.363955,-0.664481,-0.446403,43.142816,-18.042542,-0.939343,4635727921426726900.000000,0.476191,-0.465763,0.456745,0.589654,-9.759114,2.819409,6.984182,-0.349208,-0.630718,1.100321,44.158316,11.608467,5.175939,4635729532576333800.000000,0.579607,0.528846,0.471275,-0.402836,0
-4.824781,-2.336012,2.951144,0.578068,-0.829799,-0.886161,46.024197,-2.950573,-4.600650,4635731894808346600.000000,0.852070,-0.056976,0.517431,0.054741,-9.668738,0.340590,0.838611,0.334168,-0.699082,-0.484505,43.186092,-18.000369,-1.248381,4635727921426726900.000000,0.479291,-0.464349,0.455258,0.589407,-9.095610,1.449245,7.337410,-0.649277,-0.802349,1.069445,44.319456,11.230978,5.042022,4635729532576333800.000000,0.584366,0.528041,0.468061,-0.400759,0
-5.004844,-1.839288,2.759449,0.590938,-0.887967,-0.927935,46.169551,-2.718413,-5.278203,4635731894808346600.000000,0.854318,-0.056733,0.514177,0.050439,-9.495187,-0.033788,0.597480,0.335121,-0.705885,-0.519764,43.029255,-17.731998,-1.622923,4635727921426726900.000000,0.482484,-0.462978,0.453682,0.589095,-8.195135,0.265016,7.580979,-0.802817,-0.947542,1.024618,44.528658,10.728816,4.854417,4635729532576333800.000000,0.589648,0.526510,0.464830,-0.398793,0
-4.990543,-1.583535,2.797971,0.605858,-0.909210,-0.908312,46.239167,-2.472962,-5.568290,4635731894808346600.000000,0.856582,-0.056389,0.510837,0.046178,-9.556224,-0.291467,0.019387,0.377511,-0.700164,-0.551955,42.983942,-17.428489,-1.883788,4635727921426726900.000000,0.485717,-0.461670,0.452072,0.588703,-7.271502,-0.294851,7.808226,-0.945487,-1.084676,0.942996,44.658810,10.334795,4.675818,4635729532576333800.000000,0.595379,0.524176,0.461703,-0.396980,0
-4.840292,-1.360426,2.946633,0.551058,-0.923194,-0.796021,46.082758,-2.144912,-5.679655,4635731894808346600.000000,0.858814,-0.055995,0.507447,0.042437,-9.599200,-0.079601,-0.310209,0.415918,-0.706704,-0.595397,43.156677,-17.271637,-1.965392,4635727921426726900.000000,0.489137,-0.460341,0.450451,0.588154,-6.404261,-0.582730,7.910398,-1.123808,-1.199638,0.818311,44.773362,9.947569,4.208791,4635729532576333800.000000,0.601483,0.520942,0.458833,-0.395361,0
-4.453246,-0.925117,2.462683,0.476840,-0.942050,-0.675145,46.071874,-1.911649,-5.891527,4635731894808346600.000000,0.861022,-0.055606,0.503990,0.039288,-9.574431,0.012207,0.078712,0.468104,-0.733005,-0.638450,43.384747,-17.146116,-2.013495,4635727921426726900.000000,0.492804,-0.458912,0.448814,0.587461,-5.578898,-0.938987,7.858015,-1.322598,-1.281109,0.645651,44.884921,9.559380,3.636371,4635729532576333800.000000,0.607849,0.516717,0.456430,-0.393947,0
-4.299840,-0.759126,2.267440,0.504688,-0.868523,-0.611718,46.145119,-1.595391,-6.376799,4635731894808346600.000000,0.863050,-0.054993,0.500803,0.036291,-9.710205,0.144571,0.355149,0.496414,-0.775178,-0.689886,43.507187,-16.814478,-2.292463,4635727921426726900.000000,0.496720,-0.457408,0.447051,0.586679,-4.779596,-0.976441,7.817992,-1.576249,-1.361482,0.425798,44.882502,9.358959,3.306355,4635729532576333800.000000,0.614510,0.511263,0.454680,-0.392752,0
-4.482930,-0.907099,2.839824,0.469263,-0.739734,-0.590669,46.214790,-1.352584,-6.668243,4635731894808346600.000000,0.864779,-0.054482,0.498068,0.033413,-10.047819,0.809875,0.759639,0.466796,-0.826082,-0.747214,43.505181,-16.474682,-2.497980,4635727921426726900.000000,0.500805,-0.455937,0.444990,0.585918,-4.020510,-0.824852,8.104851,-1.871351,-1.446978,0.193315,44.913445,9.244414,3.070878,4635729532576333800.000000,0.621528,0.504427,0.453651,-0.391736,0
-4.666062,-1.147874,2.543222,0.422772,-0.708232,-0.589436,46.057210,-1.196326,-6.863584,4635731894808346600.000000,0.866417,-0.054139,0.495432,0.030629,-10.436222,0.718971,1.260632,0.466349,-0.882129,-0.802050,43.506999,-16.157144,-2.693275,4635727921426726900.000000,0.505217,-0.454341,0.442775,0.585047,-3.411444,-1.189727,8.840920,-2.103766,-1.530847,-0.024053,45.066313,9.057203,2.690637,4635729532576333800.000000,0.628738,0.496428,0.453148,-0.391031,0
-4.847464,-1.170973,2.029616,0.408166,-0.711157,-0.577441,45.971767,-1.193888,-7.060379,4635731898106617900.000000,0.868041,-0.053821,0.492777,0.027919,-10.735456,0.473895,1.586010,0.493100,-0.938677,-0.853842,43.594259,-15.902812,-2.904600,4635727921426726900.000000,0.509898,-0.452632,0.440395,0.584107,-3.068047,-2.140885,9.850145,-2.168170,-1.606017,-0.226083,45.131340,9.011464,2.167998,4635729532576333800.000000,0.635848,0.487660,0.452956,-0.390788,0
-4.918839,-1.110874,2.234141,0.347581,-0.695700,-0.549396,45.888747,-1.033908,-7.354810,4635732109556711400.000000,0.869602,-0.053666,0.490169,0.025430,-10.332400,0.434758,1.912183,0.503432,-0.959466,-0.906919,43.738939,-15.642621,-3.213624,4635727921426726900.000000,0.514751,-0.450932,0.437881,0.583054,-3.042605,-3.350603,10.710208,-2.038084,-1.667656,-0.407947,45.037108,9.205059,1.733917,4635729532576333800.000000,0.642434,0.478734,0.452700,-0.391349,0
-4.872242,-1.111060,2.248209,0.304849,-0.646168,-0.503287,45.960687,-0.791062,-7.745448,4635732109556711400.000000,0.871035,-0.053575,0.487740,0.023185,-10.008667,-0.044428,2.014221,0.512851,-0.990839,-0.949864,43.814173,-15.314885,-3.588180,4635727939030319100.000000,0.519764,-0.449200,0.435224,0.581932,-3.275772,-4.290795,11.279246,-1.778364,-1.720702,-0.562201,44.941841,9.361360,1.400809,4635729532576333800.000000,0.648278,0.470069,0.452135,-0.392869,0
-4.975725,-1.127393,2.377819,0.192992,-0.501721,-0.445387,45.947353,-0.631035,-8.131631,4635732109556711400.000000,0.872135,-0.053785,0.485832,0.021345,-9.800734,-0.244615,1.932116,0.521306,-1.009508,-0.978515,43.883614,-15.046488,-3.865166,4635728028800909300.000000,0.524875,-0.447442,0.432474,0.580748,-3.803734,-4.932059,11.810555,-1.408881,-1.760165,-0.669752,45.034346,9.516046,0.922912,4635729532576333800.000000,0.653230,0.462084,0.451022,-0.395407,0
-5.450269,-1.408503,2.200982,0.102086,-0.345223,-0.373471,45.861910,-0.388218,-8.226488,4635732106283815900.000000,0.872885,-0.054193,0.484498,0.019916,-9.735307,-0.876806,1.405592,0.515921,-1.035860,-1.007071,43.859393,-14.702878,-4.092518,4635728028800909300.000000,0.530075,-0.445664,0.429584,0.579536,-4.571035,-5.160137,11.968997,-0.878551,-1.786968,-0.740095,45.131344,9.795080,0.349197,4635729532576333800.000000,0.657042,0.455326,0.449060,-0.399148,0
-5.827210,-1.704944,1.660463,0.071609,-0.359256,-0.278194,45.779066,-0.229522,-8.145314,4635731896444598300.000000,0.873646,-0.054517,0.483129,0.018897,-9.753916,-1.504314,0.756463,0.583348,-1.055348,-1.015563,43.813971,-14.313883,-4.467107,4635728028800909300.000000,0.535437,-0.443686,0.426782,0.578193,-5.452279,-4.177459,11.562021,-0.365723,-1.827309,-0.837202,44.990613,10.112453,-0.311752,4635729532576333800.000000,0.659748,0.449687,0.446287,-0.404156,0
-6.096872,-1.439366,2.474017,0.003936,-0.382365,-0.169175,45.861921,-0.073244,-8.340609,4635732002182529000.000000,0.874426,-0.054866,0.481695,0.018418,-9.790733,-1.181521,0.258357,0.665368,-1.050865,-1.045208,43.998681,-14.057528,-4.776093,4635728028800909300.000000,0.540989,-0.441571,0.424110,0.576608,-6.393401,-2.685911,10.789959,-0.041400,-1.883971,-0.961056,44.722050,10.424029,-0.975558,4635729532576333800.000000,0.661659,0.444618,0.442972,-0.410241,0
-5.640769,-1.369075,3.002837,-0.087976,-0.378258,-0.056434,45.772965,-0.074536,-8.532791,4635732002182529000.000000,0.875166,-0.055323,0.480293,0.018532,-10.399244,-0.667819,0.374881,0.752837,-1.062809,-1.098396,44.261961,-13.757723,-5.152727,4635728028800909300.000000,0.546824,-0.439304,0.421501,0.574745,-6.919289,-1.763593,9.691304,0.179992,-1.910000,-1.074828,44.604698,10.769903,-1.548697,4635729634874270700.000000,0.662963,0.439868,0.439383,-0.417060,0
-4.902432,-1.494614,2.997406,-0.113448,-0.244862,-0.044718,45.460369,-0.158696,-8.519302,4635732000571851800.000000,0.875630,-0.055860,0.479377,0.018710,-10.838461,-0.184667,1.110297,0.774018,-1.107405,-1.137488,44.249348,-13.223152,-5.477856,4635728028800909300.000000,0.552744,-0.437001,0.418671,0.572903,-6.964613,-1.361966,8.144458,0.360034,-1.881715,-1.175279,44.612824,11.166330,-2.221831,4635729747324698600.000000,0.663690,0.435405,0.435743,-0.424342,0
-4.580523,-1.843684,3.438521,-0.128210,-0.049428,-0.034960,45.462750,-0.157414,-8.426038,4635731894808346600.000000,0.875699,-0.056446,0.479174,0.018907,-10.229370,0.458654,2.154686,0.705596,-1.150611,-1.161273,44.286951,-12.672053,-5.838368,4635727984985232400.000000,0.558644,-0.434770,0.415512,0.571176,-7.301268,-0.795712,6.275568,0.413163,-1.841077,-1.268511,44.506428,11.563360,-2.938568,4635729747324698600.000000,0.664025,0.430952,0.432252,-0.431867,0
-4.768578,-1.875424,3.987671,-0.129176,0.075235,-0.015542,45.620163,-0.074526,-8.619891,4635731898029701100.000000,0.875517,-0.057006,0.479431,0.019148,-8.960708,-0.040406,2.985343,0.538909,-1.203150,-1.147626,44.503960,-12.289361,-6.053633,4635727835968009200.000000,0.564366,-0.432687,0.411907,0.569742,-8.201687,0.105846,4.606765,0.263362,-1.815850,-1.335187,44.276820,11.988857,-3.650053,4635729645052529700.000000,0.664407,0.425971,0.429182,-0.439220,0
-5.290260,-2.387951,4.516922,-0.053947,0.321667,0.016647,45.694691,-0.159978,-8.714622,4635732109556711400.000000,0.874856,-0.057247,0.480600,0.019297,-7.801886,-1.947871,3.217818,0.385541,-1.246178,-1.095030,44.612835,-12.000655,-6.406352,4635727921426726900.000000,0.569736,-0.430747,0.407913,0.568740,-9.294410,1.068952,3.304213,-0.044023,-1.791387,-1.371907,44.071642,12.568927,-4.419027,4635729532576333800.000000,0.665164,0.420082,0.426767,-0.446046,0
-6.406265,-2.892389,4.517687,-0.018575,0.683389,0.059047,45.853548,-0.242695,-8.612978,4635732109556711400.000000,0.873472,-0.057302,0.483099,0.019444,-6.227909,-2.956638,2.682404,0.323717,-1.258214,-1.031553,44.527382,-11.585604,-6.972384,4635727921426726900.000000,0.574741,-0.428866,0.403763,0.568087,-10.404046,1.894969,2.286393,-0.424817,-1.773330,-1.390524,43.874026,13.236231,-5.188045,4635729532576333800.000000,0.666461,0.413103,0.425100,-0.452178,0
-7.869916,-3.663241,3.777986,0.023895,0.738830,0.152778,46.018515,-0.145238,-8.246485,4635732109556711400.000000,0.871972,-0.057018,0.485820,0.019834,-4.522809,-3.684029,2.599146,0.297859,-1.245025,-0.958638,44.474303,-11.202934,-7.480589,4635727921426726900.000000,0.579479,-0.426935,0.399695,0.567604,-11.394001,2.512871,1.370890,-0.832567,-1.762752,-1.390425,43.570028,13.707693,-5.811799,4635729532576333800.000000,0.668378,0.404973,0.424191,-0.457526,0
-9.266004,-4.557505,4.172410,-0.022403,0.718650,0.373832,45.788889,-0.065902,-7.857243,4635732109556711400.000000,0.870473,-0.056452,0.488512,0.021125,-3.766872,-4.673896,2.908325,0.320652,-1.241582,-0.866029,44.567453,-10.981447,-8.044088,4635727943319051300.000000,0.584009,-0.424785,0.395837,0.567278,-12.195003,3.017449,0.461202,-1.239361,-1.740784,-1.374204,43.345030,14.129059,-6.240791,4635729532576333800.000000,0.670909,0.395733,0.424048,-0.462017,0
-10.133876,-4.843067,4.001705,-0.092173,0.846728,0.589134,45.719226,-0.396534,-7.561263,4635732109556711400.000000,0.868665,-0.055711,0.491705,0.023309,-3.718755,-4.866014,3.112297,0.372535,-1.234561,-0.747858,44.701021,-10.843728,-8.505243,4635728028800909300.000000,0.588415,-0.422245,0.392384,0.567020,-12.987309,3.252392,-0.471196,-1.606713,-1.703656,-1.343587,43.194492,14.713253,-6.631428,4635729532576333800.000000,0.673919,0.385583,0.424580,-0.465715,0
-11.084700,-5.452833,3.855436,-0.114496,0.823336,0.774861,45.890112,-0.796849,-7.063832,4635732109556711400.000000,0.866864,-0.054667,0.494845,0.026216,-3.913469,-4.939964,3.583397,0.418682,-1.233929,-0.621364,44.656462,-10.521838,-8.865771,4635728028800909300.000000,0.592584,-0.419369,0.389250,0.566973,-13.787731,3.533002,-1.580758,-1.954806,-1.661440,-1.295986,42.853952,15.329985,-6.969759,4635729583673766900.000000,0.677457,0.374532,0.425806,-0.468472,0
-11.945931,-6.030126,4.547003,-0.201448,0.664140,0.953273,46.057292,-1.026663,-6.775109,4635732109556711400.000000,0.865331,-0.053550,0.497429,0.029983,-4.616511,-4.915904,4.047465,0.458493,-1.240656,-0.485879,44.488063,-10.344876,-9.080970,4635728028800909300.000000,0.596493,-0.416146,0.386416,0.567187,-14.388891,4.076492,-2.896716,-2.287856,-1.598947,-1.232719,42.434800,15.870614,-7.157576,4635729639950516200.000000,0.681424,0.362720,0.427693,-0.470292,0
-12.435822,-6.841995,4.953925,-0.245118,0.647018,1.133619,45.973257,-1.120268,-6.771918,4635732109556711400.000000,0.863778,-0.052213,0.499972,0.034494,-5.867331,-4.051248,4.463165,0.458925,-1.269496,-0.338475,44.364190,-10.412915,-9.411261,4635728028800909300.000000,0.600081,-0.412602,0.383752,0.567800,-14.634906,4.590384,-4.548562,-2.601383,-1.490116,-1.156174,42.215563,16.375155,-7.301113,4635729639950516200.000000,0.685705,0.350307,0.430313,-0.471089,0
-13.037884,-7.244308,5.638958,-0.281204,0.628784,1.302061,45.986528,-1.768502,-6.552008,4635732109556711400.000000,0.862200,-0.050652,0.502464,0.039690,-7.201278,-3.808051,4.462478,0.418179,-1.294418,-0.189986,44.356502,-10.360684,-9.929620,4635728006924096500.000000,0.603266,-0.408853,0.381168,0.568876,-14.609413,5.252886,-6.653230,-2.950922,-1.337751,-1.069763,42.042407,16.959304,-7.502819,4635729639950516200.000000,0.690260,0.337284,0.433843,-0.470702,0
-13.911521,-7.608225,6.412077,-0.373885,0.677718,1.448195,46.069676,-2.497400,-6.319004,4635732109556711400.000000,0.860440,-0.049123,0.505125,0.045593,-8.112457,-4.234368,4.422893,0.395650,-1.305117,-0.037259,44.256146,-10.156560,-10.551009,4635727921426726900.000000,0.605954,-0.404944,0.378684,0.570473,-14.382227,5.985403,-8.719825,-3.315874,-1.122600,-0.940971,41.786068,17.541193,-7.512300,4635729691028310000.000000,0.695042,0.323796,0.438432,-0.468882,0
-15.254174,-7.811332,6.636003,-0.450514,0.710178,1.580368,45.998900,-2.984407,-6.012449,4635732109556711400.000000,0.858526,-0.047595,0.507890,0.052122,-8.821434,-4.381807,4.865901,0.405831,-1.322897,0.121346,44.080068,-10.191348,-10.892139,4635727921426726900.000000,0.608290,-0.400702,0.376434,0.572467,-13.849380,6.426775,-10.575350,-3.542639,-0.811564,-0.735919,41.657468,17.973792,-7.096313,4635729747324698600.000000,0.699803,0.310556,0.443986,-0.465518,0
-16.586893,-7.720832,7.149001,-0.582277,0.553164,1.694235,46.094108,-3.388249,-5.612442,4635732109556711400.000000,0.856842,-0.046261,0.510056,0.059366,-10.224064,-4.017226,5.432515,0.451189,-1.353261,0.300986,43.838388,-10.362263,-11.127243,4635727921426726900.000000,0.610400,-0.395911,0.374571,0.574772,-13.487396,7.026285,-12.477220,-3.664585,-0.441758,-0.478834,41.634835,18.250523,-6.524246,4635729747324698600.000000,0.704372,0.298076,0.450417,-0.460581,0
-17.229004,-8.124722,7.682815,-0.741690,0.471099,1.779061,46.020866,-3.865733,-5.408751,4635732109556711400.000000,0.855225,-0.045293,0.511873,0.067264,-11.324893,-3.226316,5.401618,0.507086,-1.388488,0.473376,43.638767,-10.548057,-11.592379,4635727921426726900.000000,0.612222,-0.390609,0.373022,0.577462,-14.071528,8.228638,-14.029696,-3.753249,-0.042934,-0.178378,41.602829,18.482448,-6.100438,4635729747324698600.000000,0.708706,0.286594,0.457704,-0.453989,0
-17.537326,-8.594535,7.976495,-0.919033,0.549287,1.819956,45.949886,-4.441746,-5.465779,4635732109556711400.000000,0.853333,-0.044889,0.513889,0.075666,-12.295009,-3.712658,4.928991,0.543763,-1.416421,0.653137,43.550615,-10.826989,-12.331846,4635727921426726900.000000,0.613589,-0.384915,0.371698,0.580681,-14.748771,9.861889,-15.407627,-3.695835,0.415664,0.167831,41.608634,18.714388,-5.589076,4635729696259789800.000000,0.712576,0.276744,0.465708,-0.445829,0
-18.065120,-8.631844,7.470173,-1.098809,0.640889,1.807830,46.036539,-5.174103,-5.241923,4635732109556711400.000000,0.851145,-0.045175,0.516129,0.084387,-13.044482,-4.825346,4.128077,0.562299,-1.436572,0.866533,43.371835,-11.259421,-12.923741,4635727921426726900.000000,0.614570,-0.378709,0.370757,0.584314,-14.518531,11.669078,-17.283117,-3.550613,0.902165,0.552978,41.673085,18.795389,-4.743560,4635729639950516200.000000,0.715878,0.268910,0.474331,-0.436136,0
-18.798775,-8.717988,6.555828,-1.304035,0.641161,1.769119,46.201736,-5.904128,-4.731978,4635732109556711400.000000,0.848856,-0.046270,0.518245,0.093405,-14.112382,-5.481527,3.489250,0.563909,-1.474841,1.130866,43.064197,-11.725114,-13.226832,4635727921426726900.000000,0.614935,-0.371975,0.370117,0.588645,-14.045104,13.428629,-19.150494,-3.427716,1.389650,0.986781,41.829977,18.605469,-3.746625,4635729639950516200.000000,0.718690,0.263120,0.483582,-0.424737,0
-19.616670,-8.854343,5.720541,-1.594274,0.659284,1.712553,45.971006,-6.464630,-4.418734,4635732109556711400.000000,0.846411,-0.048516,0.520250,0.102837,-14.124177,-4.841171,3.780358,0.515826,-1.524247,1.426663,42.766673,-12.124223,-13.691943,4635727921426726900.000000,0.614528,-0.364762,0.369659,0.593849,-13.846191,14.325688,-20.071181,-3.232376,1.888072,1.470216,42.065925,18.219026,-2.660953,4635729639950516200.000000,0.720942,0.259702,0.493318,-0.411624,0
-20.432241,-9.128395,4.530699,-1.938537,0.598293,1.659182,45.825563,-6.955097,-4.395522,4635732109556711400.000000,0.843955,-0.052061,0.521823,0.112827,-13.797577,-4.328391,4.672078,0.347895,-1.590953,1.768433,42.497328,-12.793085,-14.411506,4635727921426726900.000000,0.613069,-0.357255,0.369100,0.600234,-13.166995,14.470173,-20.537449,-2.888590,2.425812,1.962166,42.433730,17.603682,-1.335221,4635729639950516200.000000,0.722343,0.259175,0.503399,-0.397037,0
-21.085785,-8.920908,3.795645,-2.308266,0.379052,1.607881,45.752149,-7.601060,-4.456559,4635732109556711400.000000,0.841810,-0.056909,0.522371,0.123473,-14.962772,-4.779536,5.019323,0.119077,-1.675606,2.169997,42.033449,-13.472138,-14.943066,4635727921426726900.000000,0.610331,-0.349459,0.368311,0.608047,-15.470738,9.466511,-16.004644,-3.040315,2.536338,2.411218,42.903386,16.677992,0.139377,4635729639950516200.000000,0.724169,0.259226,0.513407,-0.380519,0
-21.343169,-7.853207,3.752948,-2.686577,0.140856,1.555178,45.665668,-8.172580,-4.517768,4635732109556711400.000000,0.839989,-0.063068,0.521796,0.134795,-17.192133,-4.347213,4.643957,-0.129606,-1.783209,2.601830,41.554690,-14.261235,-15.371312,4635727921426726900.000000,0.606212,-0.341306,0.367189,0.617406,-18.977477,-4.624956,0.797596,-2.459618,2.242842,2.722187,43.298237,15.619944,1.438998,4635729639950516200.000000,0.726233,0.261140,0.521094,-0.364489,0
-21.655116,-6.402717,4.977707,-2.924679,-0.098736,1.553623,45.506973,-8.587460,-4.591012,4635732108049298400.000000,0.838475,-0.069918,0.520153,0.146667,-20.985381,-3.290449,2.940405,-0.466071,-1.936722,2.993174,41.000271,-15.179160,-16.059997,4635727921426726900.000000,0.600721,-0.332943,0.365297,0.628365,-16.325077,-13.601324,14.930618,-0.764538,2.168827,2.680004,43.556989,14.717025,2.401746,4635729639950516200.000000,0.726349,0.267912,0.525888,-0.352253,0
-20.713528,-5.985904,4.789408,-2.927652,-0.435056,1.667262,45.349482,-8.991616,-4.668156,4635732002182529000.000000,0.837455,-0.076315,0.517264,0.159010,-25.844930,-2.450459,-0.444325,-0.914796,-2.122718,3.313466,40.328157,-16.104378,-16.836634,4635727877817241600.000000,0.593901,-0.324643,0.362115,0.640907,-14.138772,-13.740554,16.033801,-0.516620,1.797917,2.199515,43.839918,13.900993,3.268417,4635729639950516200.000000,0.726162,0.273789,0.529637,-0.342363,0
-18.782384,-7.188710,5.966754,-2.685282,-0.682690,1.733438,45.276070,-9.493138,-5.023530,4635732002182529000.000000,0.836837,-0.081544,0.513591,0.171110,-30.385942,-2.273444,-6.321645,-1.349024,-2.270651,3.511422,39.463829,-17.022501,-17.713556,4635727706678362100.000000,0.586003,-0.316626,0.357563,0.654597,-13.680725,-10.318029,17.858792,-0.599720,1.405162,1.921847,44.119122,13.156698,3.949504,4635729639950516200.000000,0.726451,0.278204,0.532569,-0.333530,0
-16.689023,-9.708268,7.488179,-2.298438,-0.539531,1.642566,45.188437,-10.065639,-5.473802,4635732002182529000.000000,0.835657,-0.086584,0.510429,0.183419,-34.547395,-2.692906,-13.971172,-1.751716,-2.282478,3.565294,38.572133,-17.930402,-18.675437,4635727706678362100.000000,0.577239,-0.309369,0.351829,0.668806,-7.275850,-2.455534,15.391110,0.180316,1.492595,2.026844,44.267418,12.568958,4.338558,4635729639950516200.000000,0.725705,0.285306,0.534502,-0.325975,0
-15.040778,-11.722827,6.102691,-1.893844,-0.395480,1.390674,44.944289,-10.551914,-5.827817,4635732002182529000.000000,0.834701,-0.089971,0.508064,0.192483,-36.929191,-4.409357,-22.664760,-1.807809,-2.043485,3.565580,37.519732,-18.780256,-19.570515,4635727706678362100.000000,0.567847,-0.302802,0.346389,0.682550,1.391153,0.692917,6.772097,0.605808,1.396731,1.812731,44.383078,11.944264,4.817109,4635729639950516200.000000,0.724298,0.293060,0.535767,-0.320097,0
-14.246624,-13.763481,6.038711,-1.352581,-0.416328,0.999629,44.703510,-10.891194,-6.182168,4635732002182529000.000000,0.834242,-0.092281,0.505876,0.199034,-34.736286,-6.377775,-26.854837,-1.183801,-1.544828,3.471363,36.510499,-19.740215,-20.279080,4635727706678362100.000000,0.558498,-0.296275,0.343628,0.694422,6.021155,3.281149,7.157911,0.917275,1.122655,1.561153,44.493553,11.311631,5.355731,4635729639950516200.000000,0.722722,0.300799,0.536050,-0.315978,0
-13.386878,-15.918120,6.622608,-0.754710,-0.556264,0.602777,44.705681,-11.048869,-6.557881,4635732002182529000.000000,0.834605,-0.093229,0.503525,0.202992,-28.017349,-6.169197,-27.905757,-0.010250,-0.889035,3.080984,35.932412,-20.826517,-21.054223,4635727706678362100.000000,0.550774,-0.289349,0.345278,0.702643,4.036433,10.066185,11.192381,1.526598,0.936332,1.729559,44.591208,10.762329,5.560168,4635729588943269900.000000,0.720951,0.310478,0.534709,-0.312922,0
-11.252936,-15.848948,6.231740,-0.097109,-0.928829,0.317082,44.862206,-11.134321,-6.743664,4635732002182529000.000000,0.836230,-0.092173,0.500314,0.204717,-22.167548,-6.671864,-28.252237,1.133057,-0.411586,2.442877,35.508041,-21.845963,-21.305226,4635727706678362100.000000,0.545527,-0.282069,0.350548,0.707073,-0.452834,13.402507,7.729894,1.855614,0.976843,1.940529,44.764239,10.178241,5.566576,4635729532576333800.000000,0.718844,0.321634,0.532718,-0.309880,0
-8.404441,-12.539262,9.357647,0.451734,-1.282550,0.150274,44.859868,-11.219940,-7.124597,4635732002182529000.000000,0.838926,-0.089249,0.496262,0.204848,-17.456186,-18.502330,-25.575084,3.326828,-0.263428,1.701328,35.175795,-22.620162,-20.640070,4635727706678362100.000000,0.544730,-0.271268,0.361680,0.706308,-7.699871,7.079049,-4.082733,1.433472,1.503561,1.854524,44.910427,9.665830,5.798506,4635729532576333800.000000,0.715920,0.331975,0.532890,-0.305417,0
-5.250994,-8.240936,13.409158,0.676746,-1.417179,0.048193,44.688985,-11.319574,-7.683424,4635732002182529000.000000,0.842039,-0.085630,0.491875,0.204200,-11.134122,-39.740814,-18.785302,5.390949,-0.169738,0.255304,34.884149,-23.494713,-19.623800,4635727706678362100.000000,0.550181,-0.258132,0.377327,0.698780,-25.726404,-7.162728,-22.045621,0.781918,2.194307,1.840745,44.871066,9.199847,6.559260,4635729532576333800.000000,0.712240,0.341173,0.535894,-0.298551,0
-1.784522,-3.814475,16.475969,0.723045,-1.551963,-0.022910,44.520401,-11.561579,-8.048519,4635732002182529000.000000,0.845466,-0.081876,0.487006,0.203247,-11.263994,-57.657731,-19.748107,6.196866,0.187275,-0.996418,35.080768,-24.426344,-18.469323,4635727684914891800.000000,0.559258,-0.246001,0.394562,0.686320,-38.497341,-14.363803,-26.993476,0.550954,2.297855,2.057691,44.801739,8.457512,7.535894,4635729532576333800.000000,0.708811,0.350242,0.539099,-0.290328,0
1.610172,0.212940,17.023417,0.873828,-1.386794,-0.216113,44.519242,-11.643711,-8.333227,4635732002182529000.000000,0.848732,-0.078117,0.482757,0.201241,-22.778739,-37.367587,-17.024275,6.886995,-0.034710,-2.511921,35.679096,-24.934613,-17.407606,4635727599304179700.000000,0.573291,-0.233917,0.411376,0.668872,-29.401041,-2.461364,-9.455788,0.122308,1.996168,1.770975,44.771431,7.585187,8.276379,4635729481170235400.000000,0.706233,0.356981,0.542272,-0.282383,0
4.181773,3.286381,13.901654,1.113081,-0.859240,-0.557540,44.434785,-11.485052,-8.904400,4635732002182529000.000000,0.851264,-0.074638,0.480443,0.197367,-37.629374,0.682595,-7.349990,3.846701,-0.299908,-4.408274,36.350812,-24.562178,-16.485303,4635727599304179700.000000,0.589670,-0.231423,0.416919,0.651852,-15.313063,10.919987,5.019110,-0.511340,1.946038,1.318562,44.728966,7.061078,8.944116,4635729425202151400.000000,0.704096,0.360737,0.546655,-0.274384,0
3.734862,4.397743,11.870184,1.117469,-0.252659,-0.956926,44.423879,-11.325218,-9.287395,4635732002182529000.000000,0.852879,-0.072438,0.480141,0.191872,-37.397146,-8.958081,-19.053024,0.145595,-0.299351,-5.385682,37.134641,-22.991572,-15.889251,4635727599304179700.000000,0.604810,-0.239593,0.411238,0.638500,-8.304041,5.852820,6.834786,-0.533059,2.019639,1.371165,44.680139,6.705932,9.753510,4635729425202151400.000000,0.701806,0.364600,0.551139,-0.266047,0
0.004469,5.554830,9.470533,1.051542,0.261522,-1.429914,44.509169,-11.076680,-9.102170,4635732002182529000.000000,0.853785,-0.071825,0.481448,0.184664,-39.509579,-22.651525,-22.764664,-0.699005,-0.547305,-5.777616,38.009100,-21.116108,-16.000058,4635727599304179700.000000,0.620241,-0.249774,0.402068,0.625505,-7.413263,-0.633207,5.439475,-0.287933,2.070199,1.432020,44.754011,6.124667,10.573496,4635729425202151400.000000,0.699016,0.369337,0.555345,-0.257991,0
-5.156081,7.411385,7.473307,1.006118,0.485739,-2.045232,44.583531,-10.500905,-8.760403,4635732002182529000.000000,0.854637,-0.072774,0.483299,0.175278,-34.045868,-20.359912,-19.384765,-0.670654,-0.395459,-6.280716,39.010058,-19.059802,-16.368271,4635727512322718700.000000,0.636355,-0.260960,0.392580,0.610601,-12.039684,1.451840,2.717104,-0.235418,2.105916,1.441199,44.803790,5.417245,11.301580,4635729425202151400.000000,0.695992,0.374242,0.559523,-0.249943,0
-10.098734,8.436129,6.719789,0.839210,0.458514,-2.585329,44.742245,-9.766098,-8.418556,4635732002182529000.000000,0.855792,-0.075376,0.484713,0.164293,-31.329023,-11.535624,-16.908376,-0.258585,-0.273773,-6.704520,39.963964,-16.861241,-16.558179,4635727191534871600.000000,0.653325,-0.271864,0.383712,0.593314,-17.307777,1.704273,4.513454,-0.013881,2.192113,1.586602,44.646681,4.813869,11.985152,4635729425202151400.000000,0.692487,0.380175,0.563425,-0.241827,0
-13.047619,8.508438,5.325773,0.731787,-0.087177,-2.690355,44.899797,-8.863987,-8.085651,4635732002182529000.000000,0.857974,-0.078188,0.484010,0.153300,-29.824503,-9.504107,-13.441191,-0.093369,0.086772,-6.736875,40.710861,-14.892596,-16.565297,4635727277181632500.000000,0.669378,-0.283110,0.375849,0.574908,-21.298060,-1.054298,11.770781,0.454679,2.356549,1.635178,44.375413,4.296862,12.715537,4635729527962801200.000000,0.687805,0.387691,0.567173,-0.234383,0
-12.858443,9.436818,4.674725,0.576274,-1.020385,-2.342130,44.972711,-8.044271,-8.422717,4635732002182529000.000000,0.861657,-0.080246,0.479925,0.144150,-26.683668,-7.831339,-11.054182,0.077141,0.624660,-6.611528,41.404640,-12.687607,-16.427658,4635727277181632500.000000,0.683975,-0.294751,0.369745,0.555508,-26.002443,-0.192713,15.148747,0.552269,2.324669,1.559711,44.091505,3.776237,13.543496,4635729639950516200.000000,0.682864,0.395223,0.570773,-0.227406,0
-10.368931,11.328878,5.560045,0.291288,-1.440683,-1.911640,45.022980,-7.080845,-9.317283,4635732002182529000.000000,0.865733,-0.082204,0.474252,0.137241,-24.154331,-4.072604,-9.768447,-0.178069,1.137745,-6.546928,42.234665,-10.336456,-15.985764,4635727233732004900.000000,0.696880,-0.307924,0.364351,0.535527,-30.199705,0.396147,14.564975,0.420341,2.214733,1.464608,43.889845,3.376118,14.369766,4635729639950516200.000000,0.678220,0.401997,0.574265,-0.220538,0
-7.960897,12.264841,6.914659,0.023638,-1.013048,-1.640638,45.181516,-6.193857,-9.547946,4635732002182529000.000000,0.868645,-0.084829,0.470021,0.131679,-22.013771,0.935666,-8.876257,-0.839961,1.590585,-6.355240,43.027721,-7.892364,-15.479752,4635727040708454400.000000,0.707297,-0.323498,0.358768,0.516107,-30.101650,-4.696610,14.712653,0.627778,2.178042,1.393559,43.618617,3.017851,15.238100,4635729639950516200.000000,0.673164,0.409102,0.577510,-0.214401,0
-7.162265,11.043953,7.294514,-0.128176,-0.566056,-1.389798,45.325930,-5.624607,-9.686641,4635732002182529000.000000,0.870446,-0.087752,0.467390,0.127158,-18.232394,5.272860,-8.397006,-1.737314,2.095566,-6.073522,43.627774,-5.424481,-14.776820,4635726955059085300.000000,0.714602,-0.342132,0.352851,0.497780,-27.402380,-7.674733,15.993855,0.896318,2.048517,1.460626,43.334684,2.579998,16.115381,4635729639950516200.000000,0.667937,0.416956,0.579967,-0.208917,0
-6.872818,8.870243,5.933930,-0.209952,-0.810063,-0.906315,45.312773,-5.393616,-10.161623,4635732002182529000.000000,0.872408,-0.089898,0.463992,0.124635,-13.945380,9.047892,-7.521463,-2.593539,2.597403,-5.793947,44.042786,-3.061001,-14.065574,4635726955059085300.000000,0.718796,-0.363676,0.346771,0.480438,-26.253327,-8.895357,16.454019,1.069949,1.786932,1.565811,43.168036,2.103939,16.843534,4635729639950516200.000000,0.663050,0.425267,0.581293,-0.203990,0
-4.984018,6.644358,5.093018,-0.255758,-1.162527,-0.454581,45.226371,-5.232863,-10.549886,4635732002182529000.000000,0.874776,-0.091150,0.459446,0.123970,-10.557675,12.090528,-6.372264,-3.410746,3.130898,-5.426233,44.489915,-0.605305,-12.993149,4635726911640439800.000000,0.719630,-0.387895,0.340919,0.464160,-26.421076,-11.914829,16.076086,1.540982,1.477958,1.574218,43.040124,1.697904,17.433744,4635729639950516200.000000,0.658004,0.434583,0.581281,-0.200701,0
-2.441191,5.027288,5.278212,-0.291812,-0.859084,-0.173573,45.069574,-4.918476,-10.757254,4635732002182529000.000000,0.876385,-0.092151,0.456084,0.124281,-7.488591,13.866336,-6.429005,-4.212547,3.688384,-4.939240,45.031535,1.664540,-11.664879,4635726653514549200.000000,0.716769,-0.414540,0.335665,0.449142,-25.350201,-14.920340,17.263150,2.601356,1.211442,1.512834,42.864992,1.450043,17.781922,4635729639950516200.000000,0.651531,0.446366,0.579677,-0.200600,0
-1.490557,2.971044,4.675240,-0.307791,-0.310912,0.031746,45.058623,-4.834132,-10.953646,4635732002182529000.000000,0.876831,-0.093102,0.454789,0.125161,-4.337506,13.120282,-6.465545,-4.727945,4.220404,-4.376884,45.379978,3.722530,-10.174812,4635726310813990900.000000,0.710499,-0.442517,0.331676,0.435155,-23.230517,-17.914667,19.301236,4.127755,0.951257,1.406767,42.709473,1.443102,17.977228,4635729588615013400.000000,0.642585,0.461700,0.576133,-0.204909,0
-1.584141,0.498762,2.756017,-0.320623,-0.238037,0.173931,45.143919,-4.835229,-11.233162,4635732002182529000.000000,0.877058,-0.093868,0.453808,0.126555,-1.774161,12.030929,-5.382363,-4.853686,4.684222,-3.791412,45.450629,5.625993,-8.330856,4635726310813990900.000000,0.701555,-0.470440,0.329573,0.421769,-19.374593,-17.050328,19.360145,5.180032,0.624739,1.414719,42.699892,1.677670,18.120019,4635729635247338500.000000,0.632130,0.479396,0.570555,-0.212270,0
-1.349216,-0.578872,0.647398,-0.333950,-0.475804,0.240662,45.214202,-4.920670,-11.416252,4635731999450820600.000000,0.877689,-0.094431,0.451975,0.128311,-0.554392,11.856737,-3.776842,-4.835445,5.055923,-3.234445,45.480103,7.156435,-6.184241,4635726310813990900.000000,0.690429,-0.497705,0.329347,0.408813,-12.883091,-12.057197,16.814085,5.299218,0.253560,1.432918,42.697269,1.989209,18.158780,4635729747324698600.000000,0.622008,0.496873,0.563562,-0.220503,0
0.059078,-0.978456,-0.266855,-0.304463,-0.759701,0.098966,45.054265,-5.004104,-11.600760,4635731787434164200.000000,0.878933,-0.095001,0.449059,0.129603,-0.753249,12.153162,-2.413462,-4.661803,5.332225,-2.653591,45.530909,8.493584,-3.784301,4635726310813990900.000000,0.677593,-0.523636,0.331091,0.396298,-6.039108,-6.435659,14.948772,5.348590,-0.241692,1.504205,42.646833,2.224357,18.018207,4635729747324698600.000000,0.612682,0.513922,0.554796,-0.229578,0
0.843494,-1.120131,-0.124034,-0.307260,-0.604354,-0.014530,44.801170,-4.929772,-11.891253,4635731787434164200.000000,0.879939,-0.095875,0.446661,0.130423,-1.452017,11.576411,-0.407301,-4.258675,5.545450,-2.061932,45.413886,9.498801,-1.325922,4635726267441676300.000000,0.663712,-0.547459,0.335082,0.384051,-1.015856,1.213449,13.430089,5.546085,-0.836617,1.724775,42.745488,2.272190,17.597399,4635729747324698600.000000,0.604174,0.531121,0.543537,-0.239691,0
-0.039898,-0.886987,0.672330,-0.278383,0.083053,-0.149774,44.802247,-4.772018,-11.984132,4635731787434164200.000000,0.879745,-0.097268,0.446743,0.130417,-2.555025,9.947135,2.573969,-3.581166,5.652412,-1.514900,45.352733,10.164667,1.076651,4635726096065626100.000000,0.649769,-0.568338,0.341411,0.371794,-0.070002,10.802238,6.365910,4.031915,-1.410582,1.439252,42.959385,2.350653,17.017816,4635729747324698600.000000,0.599743,0.543037,0.532719,-0.248255,0
-2.239351,-0.552846,0.715772,-0.247258,0.649099,-0.336322,44.888797,-4.686401,-11.701000,4635731787434164200.000000,0.878606,-0.099202,0.448838,0.129440,-4.232620,9.374739,6.495389,-2.942165,5.637595,-0.990901,45.176347,10.532976,3.527298,4635726096065626100.000000,0.636047,-0.586277,0.349674,0.359794,-3.184165,15.854469,-2.168414,0.108586,-2.130844,0.735879,42.939367,2.775646,16.344381,4635729747324698600.000000,0.604928,0.542723,0.525632,-0.251445,0
-4.572894,0.131610,-1.565914,-0.287251,0.701120,-0.408032,45.059525,-4.585985,-11.243172,4635731787434164200.000000,0.877382,-0.101442,0.451067,0.128251,-4.658621,10.543076,9.676367,-2.645388,5.576808,-0.457875,44.754127,10.730421,5.805042,4635726096065626100.000000,0.621898,-0.602150,0.359287,0.348670,-3.575646,5.673551,0.267835,-3.934546,-2.997482,0.116174,42.635820,3.100680,15.540363,4635729747324698600.000000,0.620334,0.529850,0.521830,-0.249276,0
-6.118786,0.869486,-4.702440,-0.280950,0.307371,-0.406299,45.215154,-4.272591,-11.256445,4635731790114653200.000000,0.876892,-0.103444,0.451857,0.127222,-3.511376,12.251847,13.040928,-2.391332,5.427566,0.088621,44.419830,10.692906,8.016992,4635726096065626100.000000,0.607418,-0.615940,0.370029,0.338733,1.236412,-11.178955,13.643610,-6.101189,-3.684166,-0.495062,42.597351,2.768175,14.511383,4635729747324698600.000000,0.640975,0.508990,0.519515,-0.245324,0
-7.317618,0.103616,-4.892917,-0.284849,-0.314934,-0.268487,45.127695,-4.274745,-11.357500,4635732002182529000.000000,0.877494,-0.104870,0.450427,0.126972,-2.658648,13.801474,16.965861,-2.170261,5.117757,0.647777,44.133959,10.231226,10.218774,4635726139381200900.000000,0.592843,-0.627508,0.381526,0.330467,5.639615,-21.522921,22.683834,-6.141877,-3.977381,-1.108207,43.141119,2.229877,13.039364,4635729747324698600.000000,0.661126,0.485928,0.517286,-0.243314,0
-7.728728,-1.351120,-3.760034,-0.426226,-1.147810,-0.214361,44.887392,-4.440419,-11.726490,4635732002182529000.000000,0.879555,-0.106269,0.445895,0.127547,-2.491888,14.785135,18.521869,-2.538900,4.782711,1.169327,43.748381,9.598665,12.283592,4635726310813990900.000000,0.576800,-0.638352,0.392852,0.324770,8.952351,-25.805071,20.506916,-5.253673,-3.946135,-1.930591,43.585717,2.155276,11.498476,4635729798621544400.000000,0.677996,0.463146,0.515454,-0.245202,0
-6.871418,-1.997292,-3.795395,-0.511685,-1.869787,-0.187448,44.945526,-4.195538,-12.315878,4635732002182529000.000000,0.882864,-0.107543,0.438662,0.128692,-2.038443,14.369124,20.651701,-2.785294,4.487601,1.644598,43.480212,8.800088,14.060520,4635726310813990900.000000,0.559633,-0.648266,0.404192,0.321234,10.124182,-25.429923,14.700803,-4.396680,-3.768043,-2.876759,43.464894,2.615166,10.302064,4635729957280263200.000000,0.691346,0.440579,0.514680,-0.251069,0
-5.790972,-1.588880,-5.642989,-0.430358,-2.166297,-0.142220,44.768608,-3.894313,-13.182200,4635732002182529000.000000,0.886660,-0.108267,0.430369,0.129979,-1.746688,12.919909,22.828648,-2.622358,4.147349,2.087532,43.357790,7.864968,15.603206,4635726310813990900.000000,0.542599,-0.656261,0.415948,0.319211,7.208716,-25.050144,11.313886,-3.330985,-3.533128,-3.531635,43.819120,3.217657,9.188158,4635730069447245800.000000,0.701085,0.419628,0.514324,-0.260506,0
-5.184073,1.197244,-5.855441,-0.426169,-2.257997,0.018781,44.115442,-3.907425,-14.022246,4635732002182529000.000000,0.890457,-0.108628,0.421775,0.131882,-0.789748,9.665714,23.904056,-2.364070,3.787198,2.480752,42.978957,6.785447,17.065531,4635726354062641200.000000,0.526116,-0.662193,0.428118,0.318460,4.430473,-24.391705,9.805710,-1.689556,-3.215355,-3.911404,45.027004,3.799825,7.998141,4635730069447245800.000000,0.706493,0.402725,0.513525,-0.273811,0
-4.832095,2.234954,-2.626329,-0.768673,-2.169966,0.242024,43.946502,-3.990924,-14.682714,4635732002182529000.000000,0.893739,-0.109906,0.413380,0.135163,0.177431,8.070570,27.675919,-2.113207,3.333389,2.815935,42.388307,5.442536,18.444535,4635726547194375200.000000,0.510464,-0.666085,0.440368,0.319113,2.009621,-21.323551,7.679519,0.135788,-2.825358,-4.278702,45.735308,4.972625,6.807708,4635729915593633800.000000,0.707255,0.390659,0.512166,-0.291311,0
-2.667511,1.317029,-4.773587,-0.994629,-2.386729,0.467958,43.928410,-3.918727,-15.455189,4635732002182529000.000000,0.897067,-0.111502,0.404110,0.139759,1.226659,7.563841,33.163899,-1.898991,2.859400,3.032414,41.976094,4.099850,19.471894,4635726632936538100.000000,0.495792,-0.668231,0.452326,0.321028,-1.509857,-17.817308,5.113346,1.686017,-2.461708,-4.596328,45.425859,6.839263,5.682089,4635729747324698600.000000,0.703992,0.382732,0.510263,-0.312321,0
-0.227704,0.232094,-7.715826,-0.923154,-2.332055,0.734632,43.440923,-3.932935,-16.488139,4635732002182529000.000000,0.900074,-0.112400,0.395162,0.145188,2.059721,7.553340,36.549941,-1.700253,2.048623,3.296418,41.802982,2.707872,20.267833,4635726632936538100.000000,0.482684,-0.668150,0.463464,0.325258,-4.082814,-15.204796,2.330855,3.089362,-2.157785,-4.740448,44.977581,8.795742,4.660849,4635729747324698600.000000,0.697254,0.378787,0.507359,-0.336073,0
1.107900,0.230489,-5.744914,-0.870403,-1.659029,0.887370,43.031097,-4.111932,-17.137720,4635732002182529000.000000,0.901818,-0.113246,0.388802,0.150774,3.312961,7.015568,42.530849,-2.154489,1.501677,3.495460,41.731951,1.074249,21.034176,4635726676174810100.000000,0.468944,-0.667637,0.473292,0.332185,-5.858935,-12.069881,-0.657597,4.359430,-1.953530,-4.694129,44.774240,10.605653,3.544444,4635729747324698600.000000,0.687656,0.378644,0.502838,-0.361816,0
2.209052,-0.117172,-2.959593,-1.103264,-1.021644,1.011918,43.031097,-4.364385,-17.402867,4635732002182529000.000000,0.902281,-0.115158,0.384723,0.156895,3.056384,-9.976573,46.897549,-3.158723,0.191822,2.946840,41.544097,-0.680606,21.467605,4635726934120282100.000000,0.455599,-0.668134,0.477488,0.343558,-7.909257,-5.675731,-3.714338,4.979631,-1.858626,-4.452385,44.423304,12.251495,2.286686,4635729644834089000.000000,0.676697,0.380619,0.496869,-0.387727,0
2.166119,-0.631800,-2.204175,-1.228797,-0.372764,1.071866,43.021343,-4.520153,-17.589878,4635732002182529000.000000,0.901556,-0.117865,0.383010,0.163122,-9.394546,-122.841854,22.973747,-10.328400,0.146672,-1.182870,41.574249,-1.909417,20.985340,4635727277181632500.000000,0.427747,-0.689718,0.459219,0.361163,-10.007546,3.342483,-5.870081,4.810677,-1.824785,-4.066639,43.786025,13.842618,1.035704,4635729430085724200.000000,0.666027,0.382667,0.490263,-0.411844,0
1.396663,-1.751392,-1.868207,-1.206254,0.082681,1.057219,42.783555,-4.605585,-17.862825,4635732002182529000.000000,0.900082,-0.120815,0.382997,0.169026,-47.469629,-250.270571,-52.362146,-8.840673,-3.234135,-5.714929,42.174881,-1.974869,19.691688,4635727277181632500.000000,0.416653,-0.710791,0.423346,0.376769,-11.863255,10.619244,-5.869908,4.470264,-1.761821,-3.510250,43.263891,15.332682,-0.122554,4635729317827969000.000000,0.656275,0.384754,0.483195,-0.433347,0
0.878782,-2.341766,3.693062,-0.368606,-0.102907,1.026610,42.704891,-4.707041,-17.943913,4635732002182529000.000000,0.899317,-0.120538,0.382850,0.173567,-92.051330,43.926946,25.481878,7.993907,-4.809894,4.210942,42.804604,-1.833902,18.563860,4635727233994896400.000000,0.441788,-0.681279,0.439716,0.383840,-13.222707,15.012686,-6.243520,4.305521,-1.682751,-2.675891,42.958725,16.401097,-1.352889,4635729317827969000.000000,0.647774,0.387998,0.475034,-0.451874,0
-0.286706,-6.398988,17.232515,0.731394,-0.476806,1.042990,42.786949,-5.205117,-17.926789,4635732002182529000.000000,0.899666,-0.115839,0.382095,0.176597,-37.412889,174.868097,45.536929,2.856547,-3.023857,0.484585,43.317278,-2.151272,17.477287,4635727062433267700.000000,0.454508,-0.670247,0.440002,0.388060,-15.072993,19.160269,-10.262288,4.209876,-1.760353,-1.602183,42.583644,17.071703,-2.821927,4635729317827969000.000000,0.641310,0.392789,0.464892,-0.467242,0
0.206216,-13.505153,19.872973,1.166600,-0.551169,0.750404,42.774342,-5.931174,-18.088862,4635732002182529000.000000,0.900526,-0.109916,0.381227,0.177869,-29.296510,73.810504,-6.514913,-4.487022,-4.280823,-0.848322,43.830013,-2.419586,16.163278,4635727062433267700.000000,0.450954,-0.673203,0.422096,0.406538,-20.233403,25.068756,-18.355189,3.700998,-2.021627,-0.406276,42.330010,17.399695,-4.114249,4635729317827969000.000000,0.638284,0.397886,0.452917,-0.478692,0
1.257557,-27.866698,22.321242,1.287326,-0.168849,0.858171,42.466646,-6.498133,-18.307796,4635732002182529000.000000,0.900719,-0.103648,0.381917,0.179171,-97.768221,-22.169277,2.449559,-4.769579,-3.830469,-2.466529,44.354901,-2.389809,14.471349,4635727062433267700.000000,0.448294,-0.679750,0.399826,0.420845,-26.301164,32.099559,-24.733899,3.166738,-2.534094,0.760873,42.369091,17.182337,-5.297953,4635729317827969000.000000,0.639248,0.402622,0.438575,-0.486734,0
-1.258644,-36.974450,24.424582,1.640568,1.625895,0.582193,42.419582,-6.894186,-17.890985,4635731997918479400.000000,0.898351,-0.097826,0.389461,0.178089,-147.519570,-2.991356,9.511410,-2.698220,-4.899004,-2.136004,44.911529,-1.935577,12.647847,4635727062433267700.000000,0.452395,-0.679540,0.379861,0.435051,-28.504848,46.182527,-22.429015,4.053249,-3.080474,2.375688,42.421288,16.225382,-7.065297,4635729317827969000.000000,0.642727,0.411394,0.418085,-0.492810,0
-5.169528,-22.755533,14.379600,2.549185,2.577627,-0.752713,42.998654,-7.113542,-16.856810,4635731903287968800.000000,0.895650,-0.091458,0.400632,0.170119,-58.832498,14.954172,21.205424,0.887415,-4.904146,-0.992072,45.397360,-1.339460,11.175573,4635727062433267700.000000,0.464344,-0.670392,0.369422,0.445518,-27.403147,71.765653,-38.053238,2.593178,-2.803647,3.650809,42.519160,14.972933,-8.781552,4635729317827969000.000000,0.650508,0.418840,0.398929,-0.492208,0
-6.202811,-7.997193,8.449697,2.075952,1.779162,-1.211459,43.406988,-7.017928,-16.198017,4635732109556711400.000000,0.894252,-0.087038,0.408235,0.161499,0.856057,2.704795,0.574778,2.012984,-4.289496,-3.709038,45.839071,-0.348026,9.507670,4635727105573645300.000000,0.483283,-0.664037,0.354469,0.447039,-27.344812,50.058460,-76.840130,-0.256333,-0.811345,3.024921,42.879211,14.037876,-9.282115,4635729317827969000.000000,0.658452,0.421473,0.391976,-0.484929,0
-6.515440,-1.980456,9.224060,1.592948,2.581090,-1.206285,43.664670,-6.682407,-15.506074,4635732109556711400.000000,0.891160,-0.084932,0.418434,0.153403,-28.722700,-23.426125,2.163637,2.274799,-4.977958,-2.114891,46.112375,0.867701,7.427778,4635727320322010100.000000,0.500696,-0.653121,0.342801,0.453016,-33.172019,-43.087942,-77.874048,1.547034,0.660316,2.570144,43.303992,13.041778,-9.220724,4635729420254744600.000000,0.659797,0.431214,0.386152,-0.479175,0
-13.657547,8.612990,12.378147,1.468785,5.296510,-1.589796,44.247661,-6.495944,-13.712923,4635732101079124000.000000,0.883202,-0.085659,0.438343,0.143082,9.512029,4.752404,2.978324,1.428477,-4.413406,-1.887212,46.261308,1.880504,5.633635,4635727491929997300.000000,0.514316,-0.644378,0.331154,0.458905,-17.663831,-66.722487,-61.396299,2.249624,1.447752,2.822746,43.651599,11.761771,-9.306171,4635729532576333800.000000,0.658971,0.444777,0.380550,-0.472347,0
-23.716196,15.813979,12.353634,0.766417,5.388855,-1.221957,44.750223,-6.224047,-11.679414,4635731894808346600.000000,0.874116,-0.088306,0.458063,0.135286,24.802239,-0.773587,-5.186254,-0.706820,-3.758781,-1.853530,46.373437,2.502795,4.142378,4635727491929997300.000000,0.521048,-0.641177,0.316798,0.465876,-14.397324,-7.757302,-72.485771,-0.297256,2.919818,3.586118,44.174403,10.478373,-8.757129,4635729532576333800.000000,0.661815,0.455320,0.382460,-0.456518,0
-24.095974,13.402932,4.781922,0.720324,1.503238,-0.245829,45.002751,-5.883968,-10.405687,4635731894808346600.000000,0.871621,-0.087040,0.463830,0.132522,21.626795,-19.084919,-9.100154,-0.647187,-3.355783,-1.550702,46.312438,2.961910,2.845790,4635727470382993400.000000,0.526676,-0.638054,0.304153,0.472218,-53.519710,18.615755,-47.000886,-2.949384,3.072430,4.184237,44.777625,9.233296,-7.238501,4635729532576333800.000000,0.670253,0.459570,0.388511,-0.434298,0
-20.641378,9.437943,9.693991,1.156752,0.297454,0.037197,45.168599,-5.890196,-10.203457,4635731894808346600.000000,0.871427,-0.082974,0.465546,0.130376,21.125017,-22.022882,-9.801819,0.470387,-2.932626,-0.876917,46.351692,3.516050,1.488577,4635727384555814900.000000,0.533305,-0.632333,0.296360,0.477402,-64.194001,3.149422,1.487334,-4.438068,2.563471,2.924628,45.143710,8.057920,-5.646510,4635729532576333800.000000,0.679677,0.456423,0.398011,-0.413889,0
-24.337844,7.247500,22.589697,0.797117,3.690456,0.062521,45.510405,-6.041706,-9.487969,4635731894808346600.000000,0.864395,-0.081996,0.479331,0.127830,5.300638,-21.365809,-8.372260,1.448253,-2.803329,-0.271174,46.563973,3.891827,0.556185,4635727384555814900.000000,0.541058,-0.623842,0.292345,0.482299,-47.637270,-23.509482,26.322862,-2.583815,2.073411,2.737196,45.358177,7.069897,-4.623882,4635729532576333800.000000,0.685749,0.457161,0.403099,-0.397823,0
-27.993829,3.802965,15.286261,1.017573,4.426388,0.149627,45.843123,-6.020652,-7.707696,4635731894808346600.000000,0.855660,-0.080417,0.495769,0.124868,-1.097263,-14.009617,-4.843744,1.753138,-2.551361,0.218874,46.585766,3.996616,-0.222653,4635727384555814900.000000,0.548223,-0.614469,0.290732,0.487191,-29.996157,-16.633304,41.949559,0.048850,1.514712,3.295648,45.634932,6.133455,-3.993290,4635729532576333800.000000,0.688480,0.465310,0.401051,-0.385538,0
-32.020071,2.169565,8.683155,1.765544,2.573572,0.015495,45.952497,-6.085035,-6.302114,4635731903234398200.000000,0.850848,-0.075463,0.505815,0.120471,-4.245773,-7.500170,-0.190197,1.606789,-2.142909,0.424803,46.353814,3.801180,-1.106562,4635727384555814900.000000,0.554018,-0.605923,0.290232,0.491617,-12.900549,0.185902,41.137624,2.147611,0.876062,2.770269,45.960423,5.009684,-3.541166,4635729532576333800.000000,0.687208,0.477469,0.394730,-0.379415,0
-34.368733,1.987653,13.312639,1.790777,1.929390,-0.138834,46.050146,-6.231507,-5.440053,4635732109556711400.000000,0.847357,-0.070410,0.513470,0.115660,-12.795210,-7.321784,4.289197,1.770469,-1.809364,0.601225,46.187974,3.464324,-2.058580,4635727449119503400.000000,0.559389,-0.597400,0.291233,0.495359,3.743287,4.904045,30.085808,3.796976,0.527730,1.969264,46.118998,3.944960,-3.329088,4635729532576333800.000000,0.681775,0.492348,0.386292,-0.378886,0
-33.258547,-0.566082,14.538623,1.847353,2.572442,-0.415599,46.147329,-6.368444,-4.390694,4635732109556711400.000000,0.842514,-0.066049,0.523265,0.109546,-20.527408,-6.402637,8.316753,1.969171,-1.608056,0.754597,46.288091,3.127317,-2.993713,4635727706678362100.000000,0.564630,-0.588572,0.293459,0.498655,15.674090,13.321583,14.903225,4.131444,0.865437,1.604671,46.102691,3.194635,-3.219228,4635729532576333800.000000,0.674303,0.507958,0.378901,-0.379114,0
-32.582539,-2.898630,11.254209,2.248527,2.715621,-0.800423,46.233255,-6.255027,-3.357367,4635732109556711400.000000,0.837477,-0.061170,0.533536,0.101147,-19.624485,-4.776650,9.687168,1.850626,-1.316214,0.880037,46.378375,2.712276,-3.742931,4635727706678362100.000000,0.568902,-0.580410,0.296396,0.501621,12.046814,16.896354,2.894483,3.756462,1.075879,1.544382,46.088191,2.531336,-3.022102,4635729532576333800.000000,0.666972,0.522586,0.372693,-0.378355,0
-34.800403,1.511553,11.801356,2.102789,2.804138,-1.178682,46.330428,-5.751246,-2.422564,4635732109556711400.000000,0.832171,-0.057663,0.543835,0.091706,-19.172464,-7.211052,8.026234,1.839265,-0.948747,1.077210,46.407705,2.297264,-3.984531,4635727706678362100.000000,0.572225,-0.572743,0.300624,0.504131,4.532970,15.718117,-4.024345,3.120126,1.061828,1.123076,46.188794,1.974579,-2.729141,4635729532576333800.000000,0.660210,0.534633,0.368268,-0.377716,0
-37.122507,2.631608,10.979599,1.693508,2.789782,-1.218858,46.416368,-5.168568,-1.315388,4635732109556711400.000000,0.826630,-0.055647,0.553797,0.083038,-17.636055,-10.330831,4.950466,2.150089,-0.461654,1.312445,46.490684,1.816158,-4.106680,4635727706678362100.000000,0.575129,-0.565003,0.307194,0.505599,-0.496142,17.003020,-9.902128,2.169565,1.399351,0.540339,46.284083,1.659573,-2.529235,4635729532576333800.000000,0.654017,0.543616,0.367501,-0.376412,0
-36.799438,2.025748,7.518502,1.555580,2.283670,-1.246888,46.507352,-4.671457,-0.302295,4635732109556711400.000000,0.822082,-0.053984,0.561861,0.074693,-14.840965,-12.209959,3.462362,2.450229,0.048662,1.631430,46.515100,1.071542,-4.375230,4635727706678362100.000000,0.577340,-0.557134,0.316325,0.506180,-4.142207,17.598188,-15.756775,0.932196,1.991816,-0.127974,46.302107,1.613748,-2.070945,4635729532576333800.000000,0.648603,0.549078,0.371763,-0.373656,0
-36.308549,5.125000,7.738005,1.067609,2.242961,-1.222377,46.440760,-4.259300,0.711757,4635732109556711400.000000,0.817393,-0.053915,0.569558,0.067574,-12.397271,-12.204744,4.626944,2.745394,0.510649,2.075924,46.505300,0.309929,-4.511790,4635727706678362100.000000,0.578584,-0.548844,0.328157,0.506283,-8.626715,15.889925,-15.467461,-0.266301,2.567797,-0.779834,46.291625,1.917834,-0.995466,4635729532576333800.000000,0.643956,0.551129,0.380902,-0.369447,0
-35.120640,7.805935,6.323457,0.484191,2.557077,-1.035233,46.541286,-3.917456,1.745212,4635732109556711400.000000,0.811665,-0.055469,0.578127,0.062398,-9.626703,-11.360369,6.426135,2.956221,0.938109,2.593342,46.410125,-0.586150,-4.077170,4635727706678362100.000000,0.578497,-0.540101,0.342565,0.506243,-13.694542,12.728221,-5.506258,-1.013855,2.914543,-1.389562,46.318396,2.271197,0.322843,4635729532576333800.000000,0.639432,0.550650,0.393461,-0.364829,0
-33.265733,8.195986,2.018180,0.080431,2.572479,-0.711036,46.705998,-3.579039,2.673238,4635732109556711400.000000,0.805617,-0.057604,0.586643,0.059279,-9.773542,-12.214794,7.092440,3.047440,1.283098,3.144922,46.505328,-1.780031,-3.469258,4635727706678362100.000000,0.576780,-0.530896,0.359130,0.506457,-17.913003,10.116788,4.666146,-1.300557,3.014931,-2.011426,46.311959,2.648517,1.507501,4635729532576333800.000000,0.634307,0.548416,0.408057,-0.361087,0
-31.987703,7.022141,-0.376839,-0.346485,2.335337,-0.366471,46.708715,-3.325978,3.602394,4635732109556711400.000000,0.799871,-0.060266,0.594275,0.058410,-12.122122,-12.090093,6.237860,3.153392,1.527031,3.660345,46.510202,-3.161794,-2.868710,4635727706678362100.000000,0.573620,-0.520959,0.377500,0.507007,-20.145701,10.154225,8.292895,-1.375316,3.091677,-2.654598,46.171887,3.336685,2.632142,4635729532576333800.000000,0.628070,0.544849,0.424317,-0.358640,0
-29.856850,4.918354,-2.245676,-0.614898,2.123144,0.102317,46.479658,-3.170680,4.258611,4635732109556711400.000000,0.794396,-0.062604,0.601197,0.059817,-16.871091,-9.294522,3.461846,3.252510,1.642383,3.975872,46.356381,-4.734104,-2.221709,4635727706678362100.000000,0.569555,-0.510282,0.396854,0.507667,-19.901675,10.778620,7.803003,-1.492335,3.190750,-3.329024,46.025417,4.487480,4.032883,4635729532576333800.000000,0.620688,0.539731,0.442390,-0.357391,0
-26.646846,3.317833,-4.672190,-0.451977,1.862626,0.672562,46.330868,-3.402620,4.851639,4635732109556711400.000000,0.789411,-0.062904,0.607399,0.062767,-28.048151,-5.000027,-1.155026,3.224308,1.611192,4.215770,46.104918,-6.262436,-1.406271,4635727706678362100.000000,0.564686,-0.498936,0.416378,0.508745,-19.392921,9.703368,6.441653,-1.718711,3.180399,-3.959291,45.762700,5.964576,5.492578,4635729532576333800.000000,0.612616,0.532601,0.461994,-0.357210,0
-23.827383,1.970921,-4.800179,0.105917,1.530192,1.118438,46.425225,-3.641117,5.617324,4635732101284273200.000000,0.785244,-0.060151,0.612729,0.065854,-46.159121,0.770739,-10.580148,3.016922,1.500974,4.546371,45.926725,-7.932178,-0.505472,4635727706678362100.000000,0.558574,-0.486992,0.435662,0.510913,-21.516729,7.203582,5.445722,-1.994899,2.958987,-4.521625,45.250060,7.435776,6.583698,4635729532576333800.000000,0.604416,0.523069,0.482440,-0.358233,0
-22.830596,0.204599,-2.273640,0.863196,1.311409,1.201421,46.425207,-4.043959,6.286360,4635731894808346600.000000,0.781751,-0.054645,0.617532,0.067331,-63.804346,8.268247,-23.460098,2.575152,1.368963,5.621591,45.558112,-9.951075,0.309970,4635727706678362100.000000,0.549173,-0.473531,0.455604,0.516335,-27.073758,1.540195,6.256072,-2.082145,2.519542,-5.147881,44.603109,9.092302,7.565983,4635729532576333800.000000,0.595985,0.511084,0.502978,-0.361397,0
-21.533618,-1.757771,1.730448,1.013487,0.779530,1.215029,46.128966,-4.446757,6.591510,4635731894808346600.000000,0.779609,-0.048461,0.620611,0.068584,-62.204355,16.878252,-34.753674,1.915842,1.175273,6.554000,45.099157,-12.104339,0.805596,4635727728130008100.000000,0.536418,-0.459025,0.475172,0.525132,-35.523838,-9.022032,8.910567,-1.840372,1.747492,-5.741947,43.950305,10.919365,8.648394,4635729532576333800.000000,0.587370,0.496947,0.522169,-0.367940,0
-17.685043,-3.276760,4.736903,0.693999,0.301492,1.018761,46.061814,-4.849602,6.892945,4635731894808346600.000000,0.778663,-0.043685,0.621980,0.070119,-32.783543,29.412168,-38.108483,-0.086788,0.928900,5.333590,44.476694,-14.406603,1.249878,4635727814052544500.000000,0.522636,-0.450555,0.487155,0.535286,-45.964028,-24.469719,11.917678,-1.124776,0.750800,-6.138741,43.285333,12.846776,9.360644,4635729532576333800.000000,0.578435,0.481822,0.538292,-0.378816,0
-13.130318,-2.886003,5.587789,0.851594,-0.174143,0.411385,46.137423,-5.234164,7.081720,4635731894808346600.000000,0.779138,-0.039831,0.621728,0.069361,-34.652411,-2.972348,-37.343277,-0.618364,1.204905,4.208057,43.770994,-16.132942,1.740660,4635727814052544500.000000,0.509593,-0.445943,0.496239,0.543320,-60.190802,-37.680711,9.507301,-0.792399,0.025449,-7.153347,42.480372,15.166452,9.447444,4635729532576333800.000000,0.568403,0.463695,0.553752,-0.394036,0
-8.237561,2.704368,11.537331,0.954196,-0.880805,-0.607134,45.975884,-5.142232,6.788830,4635731898919287800.000000,0.781736,-0.038078,0.619028,0.065147,-51.061524,-68.026770,-22.355683,4.041686,0.427782,3.015442,43.346117,-17.324547,2.219137,4635727814052544500.000000,0.509321,-0.431961,0.511810,0.540418,-68.872570,-32.995391,-6.352687,-2.784053,0.054724,-6.851033,41.545620,17.509873,9.512919,4635729532576333800.000000,0.562121,0.441170,0.571450,-0.403527,0
-3.235495,8.155837,17.049580,0.664065,-1.165554,-1.442134,46.061327,-4.570783,6.193411,4635732002182529000.000000,0.785209,-0.039343,0.615157,0.059002,-7.229106,-98.821728,0.201832,8.160494,0.215119,3.069632,42.980000,-18.220531,3.173411,4635727835493878800.000000,0.516342,-0.408266,0.535836,0.528763,-65.020001,9.837187,-25.801308,-5.844840,0.179074,-3.820608,40.775278,18.929359,10.384482,4635729532576333800.000000,0.565757,0.418507,0.588499,-0.398045,2
5.724525,10.037275,16.068626,0.569252,-1.856492,-1.924560,46.442586,-3.766017,5.669435,4635732002182529000.000000,0.790479,-0.041980,0.608864,0.051630,18.802277,-92.272390,-9.613073,12.338688,0.833709,3.836918,42.381896,-18.938405,4.992047,4635727964309395500.000000,0.526303,-0.374374,0.570544,0.507276,-32.274509,66.857245,-24.037025,-7.393529,0.298891,-1.627151,40.339163,18.985654,11.870833,4635729532576333800.000000,0.574916,0.397385,0.604033,-0.383015,2
16.346167,10.568529,17.227714,0.397384,-2.261947,-1.845948,46.585780,-3.286775,5.157862,4635732002182529000.000000,0.796621,-0.044890,0.601127,0.045015,20.321668,-8.778088,-31.827752,11.337993,1.025904,1.731530,41.781067,-19.268301,7.377511,4635728136175091700.000000,0.537331,-0.347093,0.598785,0.481932,5.204135,78.175404,-2.408414,-7.321253,0.635195,-0.890965,40.124069,18.385752,13.235234,4635729532576333800.000000,0.583725,0.378439,0.618451,-0.365468,2
22.524470,14.625694,21.023834,0.151330,-1.601763,-1.343102,46.644022,-2.725172,4.371769,4635732002182529000.000000,0.800879,-0.047474,0.595562,0.040557,0.723845,29.666542,-25.294964,7.438331,0.649112,-1.439256,41.832177,-18.697397,9.098993,4635728136175091700.000000,0.549144,-0.335105,0.612780,0.458962,9.292430,27.085617,11.623610,-5.287576,0.435674,-0.164812,39.970013,17.940406,14.342542,4635729532576333800.000000,0.590528,0.365731,0.627700,-0.351440,2
22.628375,17.896169,21.633954,0.021145,-0.067624,-0.746687,46.632282,-2.172547,3.806751,4635732002182529000.000000,0.801169,-0.049271,0.595187,0.038106,-16.403756,7.761942,-4.291068,3.353343,-0.282324,-3.435206,42.220297,-17.366975,9.865992,4635728050461295600.000000,0.561066,-0.335536,0.613615,0.442829,3.841278,-34.780172,11.816985,-1.425906,0.183971,1.407115,40.074364,17.477894,15.119450,4635729532576333800.000000,0.594244,0.366162,0.628106,-0.343922,2
16.019341,14.337578,19.598143,-0.337999,1.818030,-0.310799,46.629953,-1.855059,4.108856,4635732002182529000.000000,0.796613,-0.051482,0.601118,0.037613,-3.881899,-6.178115,-4.763701,-1.358454,0.035243,-3.826364,42.781744,-15.794473,9.863721,4635727706678362100.000000,0.566119,-0.348447,0.605747,0.437225,1.210423,-37.845064,8.008209,2.635503,0.031921,3.795643,40.532912,16.634643,15.189126,4635729532576333800.000000,0.595454,0.382598,0.618536,-0.341273,2
6.957139,9.683392,12.972233,-0.421781,2.713181,-0.143785,46.562392,-1.839591,5.248898,4635732002182529000.000000,0.789693,-0.053689,0.609985,0.037688,-4.853686,-2.073615,-17.491760,-4.681304,0.515014,-4.183767,43.458052,-14.688413,9.558565,4635727706678362100.000000,0.565508,-0.370806,0.592148,0.438252,1.976767,-1.106177,6.914871,5.587539,-0.012096,4.993282,41.129887,15.588822,14.450700,4635729532576333800.000000,0.593372,0.409121,0.602337,-0.343103,2
1.305472,4.665513,5.410323,-0.195775,2.137840,-0.018218,46.336507,-1.748453,6.179178,4635732002182529000.000000,0.784183,-0.054738,0.616959,0.037728,-7.738777,6.028393,-17.372398,-5.754200,1.061912,-4.382308,43.939213,-13.780364,9.311814,4635727706678362100.000000,0.561783,-0.396897,0.577094,0.440268,-5.394873,13.136212,5.189873,7.014152,0.168789,5.223197,41.676927,14.663398,13.356182,4635729532576333800.000000,0.588049,0.439535,0.583461,-0.347248,2
-0.904805,0.313351,3.705938,-0.009834,1.149008,0.178194,46.269310,-1.824940,6.554313,4635732002182529000.000000,0.781185,-0.054516,0.620743,0.038154,-5.346526,6.016703,-5.772098,-5.138734,1.778781,-4.041052,44.146733,-12.610915,9.316648,4635727663852374000.000000,0.556240,-0.421702,0.564921,0.440032,-12.334120,2.102797,-1.826610,6.906042,0.447029,5.553805,42.146584,13.705058,12.492143,4635729532576333800.000000,0.581929,0.470301,0.564029,-0.349352,2
-1.937383,-2.283444,5.736087,0.129749,1.048663,0.429538,46.348723,-1.980385,6.861684,4635732002182529000.000000,0.778421,-0.053172,0.624265,0.039060,-6.270531,8.393048,5.360335,-4.368265,1.725762,-3.214252,44.373705,-11.531621,9.353387,4635727491929997300.000000,0.550288,-0.442383,0.555125,0.439677,-15.670055,-6.137506,-2.860171,5.825006,0.697762,5.860259,42.750322,12.398131,11.972263,4635729532576333800.000000,0.577037,0.498931,0.545455,-0.347240,2
-3.716432,-2.889797,5.562460,0.388477,1.426239,0.762055,46.269472,-2.056861,7.526068,4635732002182529000.000000,0.774651,-0.050185,0.629106,0.040287,-6.884580,8.834852,5.582680,-4.150187,0.799060,-2.377803,44.632657,-10.859927,9.245953,4635727491929997300.000000,0.545081,-0.458718,0.544884,0.442227,-19.604382,-4.819283,0.871933,4.395204,0.736150,5.909573,43.425293,10.772454,11.693104,4635729532576333800.000000,0.574480,0.523758,0.528353,-0.341312,2
-4.126265,-2.156511,2.003308,0.464145,0.882436,0.871791,46.037557,-2.221539,8.003695,4635732002182529000.000000,0.772272,-0.046572,0.632203,0.041782,-0.445723,6.943622,0.107889,-4.055210,0.548021,-1.906530,44.688870,-10.527903,9.184791,4635727491929997300.000000,0.539541,-0.473142,0.534941,0.445949,-19.005934,-8.119435,2.528302,3.167770,0.703665,5.413812,43.948021,9.104036,11.562217,4635729532576333800.000000,0.573492,0.544084,0.513563,-0.333665,2
-3.175194,-1.412527,0.760614,0.543537,0.686524,0.583873,45.811607,-2.532950,8.218188,4635731998110737400.000000,0.770456,-0.043428,0.634612,0.042180,2.209109,6.311068,-4.052051,-3.678364,0.948170,-1.452198,44.693687,-10.205583,9.292121,4635727491929997300.000000,0.532834,-0.486300,0.527326,0.448918,-13.390017,-21.138491,4.145541,2.715910,0.681255,4.525717,44.312037,7.619791,11.622422,4635729532576333800.000000,0.572001,0.561079,0.501055,-0.327031,2
-2.565755,-1.078934,-0.160253,0.818013,1.113756,0.053929,45.747155,-2.685629,8.604657,4635731894808346600.000000,0.767633,-0.040878,0.638328,0.040072,-4.753593,6.369898,-6.069827,-3.585351,0.880518,-0.992228,44.752342,-9.976029,9.426646,4635727491929997300.000000,0.525458,-0.497984,0.520531,0.452719,-3.375859,-28.548988,8.072334,2.781211,0.512054,3.383590,44.505772,6.474906,11.737116,4635729532576333800.000000,0.568916,0.575382,0.490517,-0.323516,2
-1.984532,-2.712162,-2.321771,0.998160,0.425847,-0.071662,45.912259,-2.679648,8.874322,4635731894808346600.000000,0.766671,-0.037969,0.639836,0.037199,-7.071980,12.520662,-1.367878,-3.386060,0.875971,-0.534615,44.720747,-9.890204,9.302208,4635727470553090000.000000,0.517515,-0.508117,0.514930,0.456993,3.179940,-26.261183,8.008945,2.976835,0.333337,2.220181,44.528015,5.755381,11.702914,4635729481550081000.000000,0.563995,0.587362,0.481941,-0.323493,2
-1.565820,-1.731897,-1.023154,0.876670,-0.282996,-0.173877,46.228974,-2.517703,8.862113,4635731894808346600.000000,0.767582,-0.035610,0.639033,0.034436,-14.832588,8.760526,1.723722,-2.492534,0.622883,0.164296,44.579063,-10.161134,9.213874,4635727384555814900.000000,0.510589,-0.514259,0.511882,0.461317,3.861257,-17.192638,8.833968,1.193767,-0.236838,0.948591,44.530787,5.435933,11.571063,4635729425202151400.000000,0.562789,0.591748,0.477470,-0.324231,2
-2.361001,0.812858,1.788667,0.924109,0.683958,-0.637433,46.205233,-2.269867,8.867899,4635731894808346600.000000,0.765975,-0.034472,0.641248,0.029920,-3.593926,48.767497,23.669370,-3.077788,0.908761,0.839067,44.539093,-10.520924,9.394788,4635727384555814900.000000,0.500425,-0.520677,0.509688,0.467642,7.102905,-9.106761,20.142778,-1.557699,-1.041163,-0.506253,44.638826,5.324252,11.289368,4635729425202151400.000000,0.567971,0.585669,0.478392,-0.324872,2
-4.730181,1.276843,0.618606,0.925091,1.709796,-0.821045,45.891583,-1.928595,9.345891,4635731894808346600.000000,0.761609,-0.033947,0.646676,0.024667,9.465932,34.866417,31.601763,-6.962426,1.375931,0.205706,44.610271,-11.044373,9.062639,4635727384555814900.000000,0.481808,-0.537174,0.499258,0.479632,3.236503,-12.974214,30.044070,-1.761172,-1.447141,-1.578045,44.738917,5.471397,10.765337,4635729425202151400.000000,0.572952,0.576366,0.481196,-0.328602,2
-6.468966,0.571372,-1.679773,0.828928,1.265594,-0.802979,45.676884,-1.598499,10.177257,4635731894808346600.000000,0.758377,-0.033630,0.650647,0.019792,-16.939293,-47.612718,1.231512,-2.763419,-0.963139,2.106950,44.495293,-11.804530,8.588333,4635727384555814900.000000,0.473385,-0.536322,0.496503,0.491680,-1.682212,-19.414708,27.106077,-0.530619,-1.523166,-2.282901,44.787745,5.977992,10.267939,4635729425202151400.000000,0.574091,0.568402,0.483764,-0.336616,2
-7.001608,1.719813,-1.871400,0.413589,0.601172,-0.569965,45.591900,-1.260401,10.709102,4635731894808346600.000000,0.756844,-0.033938,0.652496,0.016871,6.349357,-5.900549,-8.815632,4.071065,1.571107,3.082997,44.015789,-12.646926,9.240746,4635727384555814900.000000,0.472824,-0.524967,0.514749,0.485676,4.383256,-22.069982,12.229474,0.968432,-1.213957,-2.980251,44.836570,6.867860,10.009159,4635729425202151400.000000,0.569988,0.562954,0.486545,-0.348527,2
-5.197471,0.660105,-1.916949,0.237593,0.472540,-0.357326,45.518209,-1.016282,10.794544,4635731894808346600.000000,0.755612,-0.034213,0.653950,0.015118,10.445226,16.016284,-16.976096,5.026501,3.606689,3.145276,43.440634,-13.504794,10.753747,4635727384555814900.000000,0.469556,-0.515352,0.538733,0.472966,3.305637,-20.742976,0.166109,1.752163,-1.194370,-3.423677,44.752040,8.265903,9.529115,4635729476202633200.000000,0.563228,0.558360,0.489157,-0.362951,2
-2.580944,-1.538323,-0.660471,0.479864,0.809192,-0.091620,45.433221,-0.781274,10.887277,4635731886792654800.000000,0.753473,-0.033023,0.656510,0.013493,-10.310384,7.024852,-3.373550,5.153220,2.700413,3.648634,42.793720,-14.403802,12.539898,4635727384555814900.000000,0.467218,-0.502136,0.561827,0.462513,-1.430315,-10.973988,-5.076196,1.483601,-1.265354,-3.540260,44.444767,9.797778,8.614602,4635729532576333800.000000,0.556903,0.552634,0.492138,-0.377167,2
-1.724835,-2.223640,-0.499065,0.037814,0.684323,0.054538,45.359967,-0.784016,11.161680,4635731680059981800.000000,0.751597,-0.032813,0.658666,0.013553,-11.286158,-4.543204,3.373898,5.969548,2.121223,3.401844,42.131227,-15.007647,14.086222,4635727384555814900.000000,0.468017,-0.486357,0.584359,0.450490,-4.714101,-4.694544,-9.414726,0.867590,-1.178372,-3.709017,44.059973,11.201452,7.732347,4635729532576333800.000000,0.551397,0.545114,0.496538,-0.390208,2
-0.520214,-3.553825,-3.561220,-0.151274,-0.107309,0.118240,45.292192,-0.860876,11.260621,4635731680059981800.000000,0.751861,-0.032976,0.658338,0.014439,-0.758772,6.248137,3.669557,6.061144,2.660125,2.763064,41.370953,-15.138253,15.643396,4635727384555814900.000000,0.468475,-0.472518,0.606296,0.435503,-6.690512,-11.568240,-7.548189,1.119027,-1.033530,-3.810877,43.727890,12.605383,7.228371,4635729532576333800.000000,0.544699,0.538040,0.500951,-0.403564,2
0.551150,-4.179705,-2.381138,0.345515,-0.439467,0.308202,45.365434,-1.034506,11.073876,4635731680059981800.000000,0.753090,-0.031041,0.657022,0.014604,-6.695821,9.580094,7.155273,4.769913,2.887844,2.808033,40.571493,-15.055930,17.304203,4635727384555814900.000000,0.465371,-0.461117,0.625946,0.423075,-6.734040,-11.218766,-1.404483,2.148917,-0.802740,-3.569265,43.406567,14.049731,6.876838,4635729430625610800.000000,0.535455,0.534030,0.503464,-0.417880,2
0.603629,-3.008211,1.326957,0.045587,-0.111700,0.431316,45.435955,-1.272759,10.804007,4635731680059981800.000000,0.753371,-0.029730,0.656730,0.015933,-13.204900,10.245690,9.085966,3.040346,2.376667,2.950173,39.986080,-15.407541,18.588698,4635727384555814900.000000,0.459772,-0.451544,0.641484,0.416193,-6.727582,2.220536,0.693034,2.075821,-0.658424,-3.375439,43.034597,15.567816,6.433488,4635729317827969000.000000,0.526253,0.530352,0.505846,-0.431166,2
0.748738,-2.175083,-0.412190,-0.170650,0.085578,0.365562,45.430506,-1.351843,10.822571,4635731680059981800.000000,0.753088,-0.029291,0.657031,0.017624,-5.627100,11.665715,9.526353,2.081600,2.165089,3.230860,39.327438,-16.246493,19.563328,4635727384555814900.000000,0.452274,-0.442522,0.655236,0.412660,-4.138031,4.787318,-1.567194,1.714537,-0.374215,-3.377898,42.632993,16.863226,6.037893,4635729317827969000.000000,0.517108,0.526245,0.509371,-0.442953,2
0.846823,-1.549829,-2.167865,0.147776,-0.107451,0.230637,45.292183,-1.269570,10.998870,4635731680059981800.000000,0.753380,-0.028209,0.656733,0.018043,-2.611584,8.990153,10.386558,1.529761,2.015373,3.359315,38.580078,-16.978022,20.543156,4635727384555814900.000000,0.443807,-0.433777,0.667785,0.411018,-3.740268,5.161777,-1.569891,1.414003,-0.168713,-3.349131,42.165178,17.835884,5.791267,4635729317827969000.000000,0.508114,0.521802,0.513706,-0.453485,2
0.665550,-0.280783,-0.497388,-0.386252,-0.170023,0.146021,45.365877,-1.272738,10.995249,4635731680059981800.000000,0.753784,-0.029030,0.656186,0.019664,-3.235762,7.864329,10.191754,0.928245,1.912610,3.047749,37.702536,-17.603380,21.543039,4635727384555814900.000000,0.434958,-0.426704,0.678372,0.410544,-4.035071,13.371117,-0.663120,0.192124,-0.218498,-3.268571,41.652496,18.879457,5.549614,4635729317827969000.000000,0.501929,0.514743,0.519958,-0.461248,2
