Accelerometer-X,Accelerometer-Y,Accelerometer-Z,Gyroscope-X,Gyroscope-Y,Gyroscope-Z,Magnetometer-X,Magnetometer-Y,Magnetometer-Z,Barometer-pressure,Orientation-S,Orientation-X,Orientation-Y,Orientation-Z,Accelerometer-X,Accelerometer-Y,Accelerometer-Z,Gyroscope-X,Gyroscope-Y,Gyroscope-Z,Magnetometer-X,Magnetometer-Y,Magnetometer-Z,Barometer-pressure,Orientation-S,Orientation-X,Orientation-Y,Orientation-Z,Accelerometer-X,Accelerometer-Y,Accelerometer-Z,Gyroscope-X,Gyroscope-Y,Gyroscope-Z,Magnetometer-X,Magnetometer-Y,Magnetometer-Z,Barometer-pressure,Orientation-S,Orientation-X,Orientation-Y,Orientation-Z,jump
-9.059894,-0.661602,1.494507,0.487005,-0.149436,-0.404145,46.057733,0.713233,7.077493,4635732431679258600.000000,0.796716,0.095593,0.594717,-0.049169,-9.696319,-0.603089,-1.555766,0.120807,0.306790,-0.135043,39.999233,-7.097427,23.595340,4635728136175091700.000000,0.642190,-0.300549,0.697690,0.102421,-6.763569,0.155185,-3.754530,3.315897,1.496256,-0.004433,44.797659,10.761745,-1.694990,4635729103079604200.000000,0.514388,0.456435,0.551297,-0.472381,0
-9.090310,-0.397046,1.418059,0.473908,-0.160572,-0.383658,45.899040,0.640787,6.901388,4635732431679258600.000000,0.796830,0.096131,0.594267,-0.051658,-9.651124,-0.650630,-1.716311,0.176129,0.276060,-0.122542,40.047558,-7.193531,23.693008,4635728136175091700.000000,0.641456,-0.300590,0.698498,0.101393,-6.998687,0.028429,-3.502020,3.184003,1.451803,-0.185433,44.764549,10.827967,-1.462213,4635729103079604200.000000,0.504506,0.465711,0.548523,-0.477188,0
-9.194933,-0.192325,1.445462,0.469287,-0.166241,-0.374114,45.752351,0.734969,6.802751,4635732431679258600.000000,0.796956,0.096676,0.593791,-0.054106,-9.583595,-0.651137,-1.660207,0.209470,0.246904,-0.108339,39.931479,-7.267323,23.790662,4635728161295626200.000000,0.640840,-0.300491,0.699257,0.100345,-7.099189,-0.242786,-3.450345,3.074209,1.411802,-0.371205,44.804677,10.827967,-1.432942,4635729220735116300.000000,0.494453,0.474159,0.546130,-0.482112,0
-9.378063,-0.164690,1.508503,0.461877,-0.187519,-0.377843,45.754125,1.070595,6.683883,4635732431679258600.000000,0.797132,0.097180,0.593244,-0.056556,-9.534773,-0.798879,-1.680185,0.224076,0.222202,-0.096091,39.695139,-7.023213,23.885451,4635728243549274100.000000,0.640309,-0.300296,0.699975,0.099308,-7.091334,-0.543281,-3.486965,3.012372,1.379304,-0.555473,44.750855,11.001841,-1.370096,4635729317827969000.000000,0.484126,0.481902,0.544049,-0.487240,0
-9.556164,-0.235931,1.593945,0.467392,-0.206851,-0.388241,45.906820,1.440474,6.490111,4635732431679258600.000000,0.797346,0.097672,0.592631,-0.059062,-9.537333,-0.950896,-1.708541,0.262051,0.199295,-0.084702,39.601311,-6.816160,23.973767,4635728243549274100.000000,0.639887,-0.299948,0.700664,0.098213,-7.093671,-0.679265,-3.590472,2.990507,1.348502,-0.725570,44.545330,11.352696,-1.127947,4635729317827969000.000000,0.473472,0.489060,0.542186,-0.492624,0
-9.669260,-0.280770,1.672414,0.475391,-0.216354,-0.408250,45.978313,1.440474,6.579791,4635732431679258600.000000,0.797569,0.098138,0.591989,-0.061658,-9.688247,-0.786790,-1.549850,0.311193,0.166338,-0.082997,39.740018,-6.730710,24.071423,4635728243549274100.000000,0.639621,-0.299451,0.701286,0.097020,-7.144838,-0.628941,-3.688974,3.005751,1.319589,-0.883245,44.528581,11.610734,-0.847180,4635729317827969000.000000,0.462434,0.495736,0.540450,-0.498312,0
-9.689448,-0.288750,1.680394,0.489715,-0.234469,-0.436395,45.892855,1.467406,6.562833,4635732431679258600.000000,0.797818,0.098576,0.591289,-0.064389,-9.762277,-0.482113,-1.422559,0.318877,0.152634,-0.089197,39.756183,-6.588192,24.120560,4635728243549274100.000000,0.639405,-0.298943,0.701866,0.095803,-7.258193,-0.460074,-3.724424,3.047051,1.294439,-1.031189,44.605850,11.769411,-0.673430,4635729317827969000.000000,0.450964,0.502006,0.538775,-0.504324,0
-9.797310,-0.398350,1.769077,0.507719,-0.226318,-0.454682,45.826337,1.795971,6.355332,4635732431679258600.000000,0.798028,0.099031,0.590615,-0.067222,-9.827431,-0.310420,-1.381024,0.312496,0.140275,-0.105718,39.605259,-6.275722,24.036377,4635728243549274100.000000,0.639223,-0.298486,0.702393,0.094570,-7.478220,-0.399652,-3.762209,3.126706,1.269390,-1.164368,44.505561,12.095250,-0.688273,4635729317827969000.000000,0.439006,0.507969,0.537048,-0.510706,0
-9.877779,-0.613624,1.743939,0.511643,-0.200986,-0.450671,45.973805,2.107362,6.155785,4635732431679258600.000000,0.798168,0.099514,0.590016,-0.070040,-9.960441,-0.258860,-1.334711,0.292952,0.119912,-0.125122,39.519816,-6.062176,24.010710,4635728243549274100.000000,0.639083,-0.298125,0.702835,0.093362,-7.805769,-0.333666,-3.730813,3.223087,1.242484,-1.289918,44.242239,12.692805,-0.678962,4635729317827969000.000000,0.426534,0.513656,0.535210,-0.517472,0
-9.894227,-0.520679,1.579990,0.513212,-0.199898,-0.447860,46.106619,2.351535,6.054872,4635732431679258600.000000,0.798299,0.100009,0.589415,-0.072851,-9.989311,-0.435811,-1.411161,0.278857,0.104570,-0.148370,39.454327,-6.023147,23.952167,4635728193399230500.000000,0.638978,-0.297866,0.703200,0.092156,-8.232163,0.031115,-3.572985,3.294195,1.217154,-1.420056,43.999545,13.354045,-0.587987,4635729317827969000.000000,0.413582,0.519001,0.533323,-0.524552,0
-9.826960,-0.616338,1.486592,0.531914,-0.166607,-0.423952,45.953911,2.589686,6.061834,4635732431679258600.000000,0.798341,0.100633,0.588904,-0.075615,-9.941288,-0.449629,-1.363573,0.280570,0.093959,-0.171549,39.491382,-6.042231,24.124741,4635728028800909300.000000,0.638913,-0.297668,0.703506,0.090898,-8.734988,0.382212,-3.398887,3.345542,1.187703,-1.553572,43.915552,13.936504,-0.609500,4635729317827969000.000000,0.400186,0.523943,0.531427,-0.531903,0
-9.824973,-0.686594,1.315420,0.545512,-0.184986,-0.383454,45.882376,2.752625,6.132378,4635732431679258600.000000,0.798428,0.101396,0.588305,-0.078284,-9.870091,-0.428488,-1.394493,0.301183,0.078579,-0.196933,39.610173,-5.880700,24.480341,4635728028800909300.000000,0.638929,-0.297473,0.703751,0.089523,-9.226424,0.536243,-3.279151,3.365047,1.150704,-1.682981,43.762988,14.479087,-0.759456,4635729317827969000.000000,0.386434,0.528413,0.529567,-0.539451,0
-9.777714,-0.700372,1.290716,0.568291,-0.262080,-0.344802,45.959879,2.819910,6.018827,4635732431679258600.000000,0.798701,0.102302,0.587421,-0.080913,-9.848525,-0.504163,-1.435194,0.322334,0.058034,-0.223993,39.583719,-5.769632,24.630043,4635728028800909300.000000,0.639039,-0.297290,0.703916,0.088037,-9.730556,0.599330,-3.188152,3.364768,1.109315,-1.802036,43.414105,15.016361,-0.895808,4635729317827969000.000000,0.372399,0.532386,0.527760,-0.547132,0
-9.470549,-0.473110,1.393630,0.595081,-0.291144,-0.316223,45.941715,2.832819,5.733799,4635732431679258600.000000,0.799037,0.103357,0.586414,-0.083523,-9.859112,-0.424801,-1.555229,0.353809,0.034926,-0.260738,39.527573,-5.795248,24.392012,4635728028800909300.000000,0.639266,-0.297134,0.703978,0.086400,-10.227685,0.697346,-3.176272,3.373930,1.065509,-1.907094,43.045774,15.687440,-0.939970,4635729317827969000.000000,0.358097,0.535896,0.525952,-0.554937,0
-9.144983,-0.417680,1.429923,0.623367,-0.292641,-0.291459,45.870145,2.998413,5.561301,4635732431679258600.000000,0.799365,0.104565,0.585376,-0.086120,-9.924619,-0.236413,-1.611377,0.380190,0.006835,-0.301896,39.561760,-5.607255,24.359882,4635728028800909300.000000,0.639621,-0.297016,0.703923,0.084611,-10.664804,1.016612,-3.352219,3.377175,1.018202,-1.991314,42.836602,16.428572,-1.000184,4635729317827969000.000000,0.343595,0.538967,0.524107,-0.562822,0
-8.867183,-0.153078,1.583001,0.657114,-0.224856,-0.276852,45.961539,3.229687,5.646752,4635732431679258600.000000,0.799511,0.105944,0.584539,-0.088721,-9.918923,-0.136729,-1.597138,0.378232,-0.018051,-0.342909,39.637039,-5.380217,24.477475,4635728028800909300.000000,0.640059,-0.297010,0.703749,0.082744,-11.033001,1.662255,-3.733315,3.329208,0.968003,-2.058090,42.686604,17.042900,-1.210387,4635729317827969000.000000,0.329053,0.541556,0.522305,-0.570647,0
-8.629969,0.055761,1.526251,0.686041,-0.141658,-0.265737,46.113302,3.314147,5.709429,4635732431679258600.000000,0.799439,0.107476,0.583959,-0.091318,-9.880269,-0.021567,-1.553188,0.357545,-0.039485,-0.388341,39.495430,-5.212161,24.376969,4635728028800909300.000000,0.640547,-0.297183,0.703453,0.080844,-11.369272,2.554856,-4.177104,3.172634,0.929508,-2.110675,42.376412,17.753909,-1.449837,4635729317827969000.000000,0.314732,0.543578,0.520798,-0.578132,0
-8.471290,0.149114,1.391644,0.716465,-0.080523,-0.250063,46.173685,3.401227,5.514132,4635732431679258600.000000,0.799202,0.109170,0.583558,-0.093908,-9.783430,-0.054920,-1.548310,0.339353,-0.056896,-0.431885,39.464083,-4.993672,24.315513,4635728028800909300.000000,0.641076,-0.297524,0.703048,0.078901,-11.684324,3.271750,-4.664564,2.907324,0.911203,-2.145002,41.994806,18.568294,-1.645156,4635729317827969000.000000,0.300888,0.544997,0.519852,-0.584978,0
-8.323471,0.327281,1.382744,0.753820,0.021959,-0.237881,46.088232,3.638454,5.318814,4635732431679258600.000000,0.798696,0.111056,0.583472,-0.096501,-9.686163,-0.232322,-1.470200,0.308274,-0.068860,-0.474109,39.613404,-4.595737,24.387546,4635728028800909300.000000,0.641613,-0.298058,0.702549,0.076943,-11.943841,3.603847,-5.201655,2.600581,0.921488,-2.160687,41.607374,19.342828,-1.733451,4635729317827969000.000000,0.287610,0.545900,0.519586,-0.591020,0
-8.304989,0.448365,1.268924,0.804425,0.143328,-0.220444,46.009705,3.791216,5.138328,4635732431679258600.000000,0.797869,0.113201,0.583754,-0.099102,-9.724810,-0.362554,-1.338765,0.279036,-0.070747,-0.514200,39.752175,-4.313703,24.358260,4635728028800909300.000000,0.642128,-0.298783,0.701983,0.074965,-12.082144,3.740136,-5.892563,2.276104,0.954627,-2.157046,41.192346,20.071729,-1.733451,4635729317827969000.000000,0.274950,0.546395,0.520048,-0.596159,0
-8.344927,0.561182,1.095435,0.871452,0.209349,-0.199689,46.003780,3.889494,5.141920,4635732431679258600.000000,0.796849,0.115644,0.584211,-0.101765,-9.796030,-0.413405,-1.248001,0.279855,-0.071566,-0.549664,39.825419,-4.191256,24.312655,4635728028800909300.000000,0.642655,-0.299612,0.701366,0.072895,-11.989369,4.172169,-6.730522,1.826804,1.003028,-2.153590,40.824106,20.687301,-1.733451,4635729317827969000.000000,0.263168,0.546410,0.521585,-0.600106,0
-8.283890,0.693847,0.764488,0.934677,0.249130,-0.185457,45.936459,4.127718,5.325031,4635732431679258600.000000,0.795695,0.118347,0.584757,-0.104514,-9.797683,-0.511056,-1.257362,0.284584,-0.068579,-0.574550,39.901502,-3.984114,24.400944,4635728028800909300.000000,0.643182,-0.300499,0.700723,0.070739,-11.809780,5.401604,-7.237262,1.136146,1.078353,-2.144407,40.501234,21.229876,-1.579676,4635729317827969000.000000,0.252781,0.545801,0.524839,-0.602285,0
-8.232727,0.667458,0.575723,0.987825,0.291856,-0.167126,45.936459,4.284799,5.493331,4635732431679258600.000000,0.794404,0.121287,0.585402,-0.107308,-9.738663,-0.583111,-1.217538,0.304630,-0.057255,-0.597976,39.947126,-3.898664,24.475843,4635728028800909300.000000,0.643704,-0.301406,0.700082,0.068451,-11.823746,6.627192,-6.855304,0.327517,1.183180,-2.128208,40.090261,21.893999,-1.292232,4635729317827969000.000000,0.244016,0.544576,0.530135,-0.602371,0
-8.293763,0.612705,0.584341,1.036213,0.332854,-0.146572,45.936459,4.284799,5.501229,4635732422995529700.000000,0.792983,0.124453,0.586140,-0.110131,-9.737831,-0.610713,-1.094989,0.321118,-0.051344,-0.622687,39.841779,-3.756351,24.404757,4635728003790314500.000000,0.644231,-0.302344,0.699423,0.066044,-11.970243,7.794835,-6.089985,-0.441740,1.316581,-2.096084,39.601940,22.750026,-0.952437,4635729317827969000.000000,0.236756,0.542915,0.537368,-0.600355,0
-8.340005,0.513320,0.434160,1.061480,0.357061,-0.123420,45.923642,4.298601,5.613666,4635732324305076200.000000,0.791484,0.127768,0.586921,-0.112924,-9.777296,-0.766566,-1.142985,0.332825,-0.049062,-0.641841,39.724900,-3.406847,24.170658,4635727921426726900.000000,0.644767,-0.303302,0.698746,0.063548,-12.183574,8.355093,-5.365141,-1.205316,1.458711,-2.074343,39.207268,23.463801,-0.420272,4635729317827969000.000000,0.230931,0.540837,0.546534,-0.596211,0
-8.232719,0.668072,0.521583,1.056464,0.412896,-0.102900,45.784664,4.468518,5.878661,4635732324305076200.000000,0.789844,0.131139,0.587865,-0.115605,-9.817596,-0.873246,-1.228437,0.360450,-0.055574,-0.664770,39.788781,-2.991795,24.190563,4635727921426726900.000000,0.645357,-0.304243,0.698026,0.060911,-12.184740,10.715319,-7.657641,-1.955472,1.678965,-1.955609,38.856469,24.000897,0.446113,4635729317827969000.000000,0.226554,0.538765,0.557419,-0.589652,0
-8.311469,0.785802,0.601904,1.027041,0.454376,-0.067397,45.869119,4.614398,5.964104,4635732324305076200.000000,0.788118,0.134518,0.588927,-0.118072,-9.846862,-0.834616,-1.262710,0.388162,-0.069210,-0.690829,39.862022,-2.633618,24.256111,4635727921426726900.000000,0.646024,-0.305174,0.697239,0.058138,-11.577303,14.270930,-7.573103,-3.128980,1.503541,-1.718888,38.437931,24.624922,1.597380,4635729317827969000.000000,0.225754,0.535581,0.570366,-0.580406,0
-8.588302,0.976592,0.372129,0.951823,0.430774,-0.027737,45.936459,4.608492,6.043649,4635732324305076200.000000,0.786495,0.137733,0.589914,-0.120235,-9.955037,-0.720758,-1.216536,0.393327,-0.083519,-0.723791,39.918209,-2.425793,24.230536,4635727921426726900.000000,0.646740,-0.306184,0.696364,0.055282,-13.029017,12.544544,1.230193,-4.515415,1.058393,-1.544121,38.079860,25.100134,2.889239,4635729317827969000.000000,0.229455,0.530246,0.585662,-0.568498,0
-8.809412,1.008091,0.480808,0.850333,0.385429,0.025756,45.917756,4.534264,6.062747,4635732332963037200.000000,0.785056,0.140721,0.590763,-0.121998,-10.192101,-0.561541,-1.443619,0.397378,-0.109454,-0.766291,39.932411,-2.036572,24.166128,4635727921426726900.000000,0.647539,-0.307294,0.695360,0.052329,-16.854572,12.638572,5.300814,-4.887417,0.925695,-1.309551,37.839205,25.312900,4.172992,4635729317827969000.000000,0.234760,0.524576,0.600935,-0.555504,0
-8.918856,1.416378,0.929569,0.784495,0.384841,0.081171,45.684858,4.462583,6.160395,4635732431679258600.000000,0.783675,0.143628,0.591602,-0.123417,-10.487850,-0.567222,-1.517944,0.410766,-0.150064,-0.819127,39.996288,-1.527311,24.231695,4635727921426726900.000000,0.648477,-0.308499,0.694177,0.049239,-17.000761,13.126918,4.151326,-4.999158,0.821722,-1.093649,37.598263,25.372508,5.571858,4635729317827969000.000000,0.240964,0.518849,0.615613,-0.541990,0
-9.165953,2.017902,0.679271,0.709330,0.395567,0.147310,45.467250,4.553933,6.257071,4635732431679258600.000000,0.782336,0.146456,0.592468,-0.124426,-10.429956,-0.568914,-1.347648,0.422267,-0.173293,-0.876832,40.052490,-1.310726,24.231695,4635727921426726900.000000,0.649499,-0.309834,0.692849,0.045992,-14.361627,7.865481,5.115456,-5.632330,0.552910,-1.036766,37.336399,25.320208,7.104366,4635729435380409300.000000,0.249234,0.511748,0.631005,-0.527095,0
-9.439843,2.516439,0.817232,0.615835,0.332066,0.211779,45.558601,4.692969,6.327779,4635732431679258600.000000,0.781237,0.149104,0.593130,-0.125033,-10.565663,-0.467280,-1.386815,0.430464,-0.217556,-0.946183,40.086563,-1.148615,24.206140,4635727921426726900.000000,0.650661,-0.311340,0.691298,0.042597,-13.928363,2.914954,6.704003,-5.794587,0.242939,-0.820674,37.113466,25.187989,8.535509,4635729532576333800.000000,0.258998,0.504060,0.645599,-0.511904,0
-9.629262,2.993506,1.415389,0.504627,0.254500,0.266843,45.704517,4.595724,6.246829,4635732431679258600.000000,0.780421,0.151485,0.593559,-0.125232,-10.938734,-0.198104,-1.327767,0.427233,-0.245848,-1.018822,40.233061,-0.693774,24.099107,4635727921426726900.000000,0.651902,-0.313052,0.689563,0.039050,-13.797864,1.201993,8.485382,-5.326026,-0.031037,-0.502509,37.005011,25.023768,9.824871,4635729532576333800.000000,0.269057,0.496867,0.657876,-0.497927,0
-9.727766,3.515120,1.973244,0.406980,0.222910,0.302678,45.705499,4.375587,6.378277,4635732431679258600.000000,0.779759,0.153619,0.593909,-0.125093,-11.394905,0.203836,-1.312721,0.412851,-0.252679,-1.095672,40.325594,-0.130585,23.975906,4635727946398665700.000000,0.653143,-0.315012,0.687694,0.035341,-12.871816,0.276260,10.202798,-5.040728,-0.207254,-0.400901,36.928306,24.771550,11.170157,4635729473812997100.000000,0.279096,0.489666,0.668842,-0.484750,0
-9.564716,4.411589,2.051274,0.340756,0.252468,0.321437,45.709855,4.303876,6.741982,4635732431679258600.000000,0.779073,0.155599,0.594375,-0.124710,-11.737279,0.226263,-1.220169,0.396332,-0.258467,-1.188204,40.254339,0.360550,23.791093,4635728028800909300.000000,0.654376,-0.317272,0.685670,0.031433,-13.120483,-2.003098,10.857672,-4.992218,-0.243375,-0.469386,36.818445,24.408567,12.451382,4635729542717157400.000000,0.288881,0.482034,0.679513,-0.471649,0
-9.511081,5.170592,1.900882,0.274709,0.365945,0.345698,45.631275,4.375597,6.921597,4635732431679258600.000000,0.778156,0.157483,0.595225,-0.124010,-11.979986,0.244425,-0.914148,0.377181,-0.247562,-1.283239,40.249792,0.897924,23.726646,4635728028800909300.000000,0.655547,-0.319844,0.683529,0.027301,-13.389657,-6.410784,10.631021,-4.680778,-0.212419,-0.484453,36.701898,24.011250,13.297117,4635729639950516200.000000,0.297806,0.474593,0.689357,-0.459194,0
-9.689827,5.230560,1.690859,0.210877,0.497936,0.351156,45.644997,4.278383,6.930419,4635732431679258600.000000,0.776953,0.159241,0.596529,-0.123047,-12.447748,0.283964,-0.685338,0.364930,-0.248479,-1.367858,40.293802,1.483273,23.812084,4635728028800909300.000000,0.656694,-0.322673,0.681254,0.022968,-12.374642,-12.674185,11.226416,-3.823682,-0.232956,-0.322544,36.653305,23.701944,13.769485,4635729639950516200.000000,0.305312,0.468486,0.696992,-0.448896,0
-9.951546,4.998599,1.343796,0.147841,0.527809,0.319871,45.802177,4.045440,7.055015,4635732414416942100.000000,0.775695,0.160731,0.597977,-0.122008,-12.938400,-0.101297,-0.593345,0.394736,-0.254467,-1.452076,40.301457,1.842137,23.877682,4635728003841855500.000000,0.657884,-0.325650,0.678826,0.018330,-11.460938,-15.381151,13.772474,-2.390568,-0.302220,-0.042807,36.672190,23.423265,14.254753,4635729639950516200.000000,0.310692,0.464797,0.701187,-0.442461,0
-10.149295,4.735394,1.366765,0.063954,0.573568,0.273396,45.790434,3.815046,7.355757,4635732216930893800.000000,0.774350,0.161857,0.599644,-0.120879,-13.172046,-0.490273,-0.480387,0.456881,-0.263975,-1.529700,40.354837,2.333763,23.761368,4635727921426726900.000000,0.659163,-0.328666,0.676243,0.013320,-12.229165,-11.240494,16.570135,-0.900580,-0.386623,0.249343,36.783428,23.065800,14.568032,4635729639950516200.000000,0.313955,0.463705,0.701918,-0.440137,0
-10.516495,4.127495,1.473132,0.021440,0.660160,0.234348,45.636118,3.740823,7.722907,4635732216930893800.000000,0.772792,0.162790,0.601632,-0.119711,-13.325044,-0.503110,-0.287308,0.526581,-0.299121,-1.596885,40.359640,3.081112,23.328988,4635727921426726900.000000,0.660612,-0.331664,0.673444,0.007978,-14.207286,-4.840227,17.607669,0.173913,-0.471667,0.517292,36.946494,22.848815,14.405247,4635729639950516200.000000,0.315879,0.464640,0.700041,-0.440764,0
-10.885137,3.668464,1.134776,-0.031584,0.667282,0.214184,45.412519,3.662221,7.828393,4635732216930893800.000000,0.771235,0.163505,0.603678,-0.118468,-13.479168,-0.390637,-0.248720,0.567303,-0.330614,-1.657693,40.380993,3.795451,23.189494,4635727921426726900.000000,0.662175,-0.334700,0.670444,0.002395,-15.359617,-1.568731,17.558424,0.953198,-0.548168,0.781813,37.173101,22.909118,13.966743,4635729639950516200.000000,0.316996,0.467225,0.696105,-0.443455,0
-11.139509,2.963428,1.004434,-0.093060,0.595168,0.207861,45.436450,3.649518,8.038347,4635732216930893800.000000,0.769893,0.163969,0.605523,-0.117140,-13.681885,-0.382135,-0.208617,0.591048,-0.379365,-1.721779,40.254128,4.391839,23.272108,4635727921426726900.000000,0.663872,-0.337825,0.667186,-0.003368,-14.889097,-1.132052,15.417738,1.586677,-0.529073,0.950878,37.392628,22.899736,13.585283,4635729639950516200.000000,0.317122,0.471151,0.690662,-0.447701,0
-11.357771,2.025907,1.194866,-0.162533,0.498220,0.201324,45.596123,3.490822,8.402120,4635732216930893800.000000,0.768834,0.164145,0.607090,-0.115723,-13.805694,-0.274716,-0.292978,0.617347,-0.445503,-1.788336,40.147511,5.080133,23.260378,4635727921426726900.000000,0.665750,-0.341037,0.663615,-0.009301,-13.245329,-1.059557,8.200861,1.961629,-0.363328,0.878693,37.591372,22.574140,13.245589,4635729522501146600.000000,0.315877,0.475642,0.684832,-0.452760,0
-11.410014,1.270526,1.390698,-0.249310,0.330351,0.177610,45.746510,3.338967,8.589620,4635732216930893800.000000,0.768244,0.163902,0.608176,-0.114277,-13.885688,0.089776,-0.295811,0.652863,-0.519894,-1.863606,40.313842,5.807835,22.964548,4635727921426726900.000000,0.667838,-0.344344,0.659683,-0.015429,-12.004689,-3.192680,-0.854444,2.066982,-0.155981,0.735244,37.816611,22.323913,12.760406,4635729425202151400.000000,0.313534,0.480216,0.679304,-0.457860,0
-11.381676,0.694873,2.373931,-0.390799,0.160536,0.108877,45.655214,3.271584,8.672635,4635732216930893800.000000,0.768146,0.162950,0.608829,-0.112808,-14.173557,0.588668,-0.293858,0.700601,-0.615882,-1.943479,40.489126,6.459359,22.682045,4635727921426726900.000000,0.670205,-0.347725,0.655316,-0.021764,-10.874722,-5.690206,-10.331022,2.091963,0.066543,0.527471,37.949565,22.424204,12.240083,4635729425202151400.000000,0.310087,0.484624,0.674378,-0.462817,0
-11.593076,0.387257,4.147535,-0.558490,-0.001609,-0.031235,45.496536,3.284248,8.586219,4635732216930893800.000000,0.768503,0.161030,0.609135,-0.111471,-14.822501,1.174052,-0.352635,0.738663,-0.734309,-2.038903,40.434440,7.101949,22.451866,4635727921426726900.000000,0.672888,-0.351244,0.650422,-0.028294,-10.151026,-6.304718,-17.095934,1.719725,0.124075,0.282331,37.923844,22.701704,11.917516,4635729425202151400.000000,0.306736,0.487943,0.670695,-0.466897,0
-11.837740,0.209474,4.469669,-0.674155,-0.074032,-0.234653,45.350502,3.430280,8.496353,4635732234066442200.000000,0.769022,0.158188,0.609395,-0.110540,-15.815601,1.560832,-0.829966,0.728599,-0.873924,-2.154182,40.295757,8.031128,22.121206,4635727921426726900.000000,0.675860,-0.355079,0.644913,-0.034920,-13.152662,-3.610850,-14.012860,0.931107,-0.177277,0.369180,37.912937,22.933472,11.615443,4635729425202151400.000000,0.305988,0.489896,0.667961,-0.469256,0
-11.909659,0.230968,5.336581,-0.753755,-0.134514,-0.427085,45.356338,3.436117,8.487599,4635732431679258600.000000,0.769649,0.154572,0.609618,-0.110062,-17.739194,2.582758,-1.575757,0.681391,-1.019222,-2.275209,40.330430,9.169483,21.711864,4635727921426726900.000000,0.679064,-0.359348,0.638761,-0.041550,-14.536666,3.400432,-6.046251,0.327070,-0.450597,0.493144,38.067393,22.924208,11.278189,4635729425202151400.000000,0.307471,0.490885,0.665796,-0.470329,0
-11.492845,0.172064,5.293870,-0.799996,-0.221996,-0.566651,45.429585,3.522982,8.385513,4635732431679258600.000000,0.770453,0.150411,0.609661,-0.109968,-19.283846,3.885110,-2.304370,0.607241,-1.127783,-2.398255,40.318224,9.840516,21.341065,4635727921426726900.000000,0.682346,-0.364134,0.632053,-0.048159,-12.188975,6.497110,-2.377579,-0.197623,-0.500961,0.372092,38.265958,22.638754,11.152031,4635729425202151400.000000,0.309927,0.490764,0.664837,-0.470199,0
-10.486877,-0.459268,4.512909,-0.811792,-0.244862,-0.632179,45.503808,3.768126,8.381097,4635732431679258600.000000,0.771277,0.146033,0.609666,-0.110066,-19.865753,4.828170,-2.218614,0.565180,-1.183026,-2.491639,40.320160,10.417702,21.035879,4635727921426726900.000000,0.685607,-0.369256,0.624970,-0.054824,-10.204977,3.522444,-3.199314,-0.561509,-0.492789,0.182258,38.350124,22.421594,11.257637,4635729425202151400.000000,0.312731,0.489659,0.664984,-0.469286,0
-9.444485,-1.434385,4.130800,-0.813492,-0.247980,-0.594590,45.582443,4.016656,8.458759,4635732431679258600.000000,0.772112,0.141740,0.609627,-0.110039,-19.395017,4.333606,-1.753231,0.531338,-1.199726,-2.529907,40.312413,11.514584,20.682604,4635727921426726900.000000,0.688758,-0.374521,0.617710,-0.061486,-8.271958,0.702936,-4.368542,-0.576900,-0.481921,0.058289,38.348988,22.428406,11.287306,4635729425202151400.000000,0.315292,0.488206,0.665422,-0.468465,0
-8.657630,-1.898619,3.491754,-0.835453,-0.245266,-0.452824,45.575635,4.175368,8.447523,4635732431679258600.000000,0.773004,0.137736,0.609512,-0.109497,-18.614331,3.556075,-0.905567,0.479713,-1.233829,-2.471014,40.119925,12.646892,20.150092,4635727921426726900.000000,0.691841,-0.379731,0.610381,-0.067795,-6.614224,-1.308433,-3.849551,-0.373365,-0.462771,0.009678,38.390147,22.421599,11.142960,4635729425202151400.000000,0.317288,0.486920,0.665580,-0.468231,0
-8.248874,-1.428947,3.617412,-0.866244,-0.186100,-0.279963,45.490192,4.328219,8.447523,4635732431679258600.000000,0.773830,0.134095,0.609492,-0.108283,-17.433476,3.318607,-0.299963,0.306031,-1.272452,-2.383102,39.993389,13.588494,19.574561,4635727921426726900.000000,0.694685,-0.385175,0.603054,-0.073342,-6.562793,-2.483889,-2.834768,-0.056109,-0.427513,-0.001255,38.468926,22.308339,11.006548,4635729425202151400.000000,0.318520,0.486091,0.665185,-0.468817,0
-8.062304,0.063847,3.361083,-0.919731,-0.123545,-0.137970,45.418330,4.400083,8.455282,4635732431679258600.000000,0.774579,0.130670,0.609610,-0.106439,-15.686229,1.974043,0.096618,-0.026480,-1.297604,-2.381774,40.034626,14.335954,19.119327,4635727921426726900.000000,0.696975,-0.391541,0.595682,-0.077998,-7.874262,-2.213322,-1.895556,0.259645,-0.365913,0.014392,38.508821,22.155180,10.962248,4635729542536761300.000000,0.318972,0.485843,0.664221,-0.470131,0
-7.989469,1.087430,3.116354,-0.973278,-0.082587,-0.054427,45.496990,4.315593,8.537412,4635732431679258600.000000,0.775277,0.127300,0.609828,-0.104165,-13.550814,-0.570458,-0.324247,-0.519531,-1.268948,-2.415711,39.956495,15.050332,18.836788,4635727921426726900.000000,0.698293,-0.399362,0.588425,-0.081567,-9.341967,-1.425310,-0.558006,0.498403,-0.254780,0.006477,38.587719,22.169891,10.748837,4635729639950516200.000000,0.318617,0.486108,0.662950,-0.471890,0
-8.065626,1.086041,3.012315,-1.014813,-0.088814,-0.071749,45.491164,4.234581,8.440725,4635732431679258600.000000,0.775992,0.123746,0.610042,-0.101843,-12.253919,-1.954471,-1.610094,-1.086465,-1.260257,-2.357042,39.736898,15.626891,18.609478,4635727921426726900.000000,0.698573,-0.408626,0.581407,-0.083582,-10.205823,-0.757555,0.160955,0.581458,-0.138586,-0.009712,38.641971,22.368589,10.464917,4635729639950516200.000000,0.317737,0.486666,0.661698,-0.473661,0
-8.193907,0.943849,2.994123,-1.043431,-0.114681,-0.142443,45.423748,4.070484,8.362071,4635732431679258600.000000,0.776742,0.119908,0.610210,-0.099687,-11.504901,-2.429730,-2.277475,-1.518483,-1.274489,-2.205753,39.678809,16.193012,18.313703,4635727921426726900.000000,0.698106,-0.418725,0.574673,-0.084074,-10.449537,-0.604940,-0.523743,0.504734,-0.066573,-0.010098,38.503064,22.560519,10.382961,4635729639950516200.000000,0.316813,0.487262,0.660690,-0.475073,0
-8.542499,1.003345,3.167137,-1.083326,-0.106815,-0.227216,45.422778,4.005396,8.354314,4635732431679258600.000000,0.777441,0.115725,0.610449,-0.097699,-9.913752,-2.889311,-2.251575,-1.678466,-1.332080,-2.017928,39.732270,16.693515,18.076339,4635727921426726900.000000,0.697462,-0.428796,0.568071,-0.083522,-10.282846,-0.518051,-1.944329,0.299276,-0.037376,-0.016614,38.352278,22.545847,10.388500,4635729639950516200.000000,0.316212,0.487624,0.660140,-0.475866,0
-8.964866,1.184498,3.086537,-1.140355,-0.111983,-0.301741,45.405732,4.162724,8.256666,4635732431679258600.000000,0.778132,0.111163,0.610716,-0.095806,-7.893992,-2.662679,-0.467819,-1.677912,-1.478357,-1.841377,39.663545,17.174238,17.999136,4635727921426726900.000000,0.697126,-0.438423,0.561289,-0.082192,-9.977677,0.002715,-3.116821,0.004926,-0.044295,-0.028848,38.405708,22.433828,10.335164,4635729639950516200.000000,0.316203,0.487553,0.660188,-0.475878,0
-9.321378,1.348011,3.079528,-1.203570,-0.173664,-0.343743,45.338295,4.155956,8.174488,4635732431679258600.000000,0.778972,0.106263,0.610812,-0.093915,-6.079203,-2.326293,1.546253,-1.719132,-1.629478,-1.689130,39.446755,17.532767,17.683562,4635727921426726900.000000,0.697013,-0.447781,0.554310,-0.080039,-9.765830,0.349601,-3.582402,-0.289169,-0.076060,-0.038848,38.564406,22.440587,10.390846,4635729639950516200.000000,0.316859,0.487003,0.660796,-0.475160,0
-9.551990,1.556141,3.256476,-1.281460,-0.191389,-0.322052,45.350864,4.090809,8.278915,4635732431679258600.000000,0.779876,0.101154,0.610853,-0.091760,-4.802794,-2.831570,1.964756,-1.834591,-1.699846,-1.536069,39.381084,17.683881,17.380519,4635727896586623000.000000,0.696802,-0.457080,0.547367,-0.077032,-9.571562,-0.180404,-3.597809,-0.456635,-0.106246,-0.044476,38.643099,22.433832,10.527282,4635729639950516200.000000,0.317927,0.486156,0.661706,-0.474047,0
-9.613633,1.627452,3.208253,-1.358619,-0.169021,-0.231589,45.516325,4.253977,8.462024,4635732431679258600.000000,0.780765,0.096030,0.610938,-0.089102,-4.003343,-3.721197,0.348676,-1.975626,-1.689263,-1.352068,39.417783,17.769326,17.328791,4635727814052544500.000000,0.696333,-0.466415,0.540571,-0.073207,-9.354089,-1.134698,-3.584558,-0.439827,-0.122844,-0.046514,38.648640,22.353927,10.571611,4635729639950516200.000000,0.319002,0.485290,0.662561,-0.473016,0
-9.526881,1.655037,3.033851,-1.439904,-0.172985,-0.105755,45.728588,4.302113,8.623876,4635732431679258600.000000,0.781715,0.090958,0.610968,-0.085826,-2.654149,-5.132196,-3.116588,-1.892370,-1.573572,-1.029536,39.579296,17.854774,17.010200,4635727814052544500.000000,0.695771,-0.474686,0.534636,-0.068848,-9.252088,-1.690316,-3.581187,-0.324644,-0.138093,-0.041749,38.601980,22.315134,10.471629,4635729639950516200.000000,0.319894,0.484560,0.663157,-0.472326,0
-9.290456,1.433373,2.965434,-1.533787,-0.178285,0.042718,45.575685,4.051207,8.531667,4635732431679258600.000000,0.782736,0.085952,0.610934,-0.081825,-1.852765,-5.801338,-6.289758,-0.985168,-1.473625,-0.474670,39.786872,17.923290,16.351233,4635727814052544500.000000,0.696792,-0.478872,0.530029,-0.065051,-9.174357,-1.773372,-3.591221,-0.209985,-0.163248,-0.026305,38.516533,22.401775,10.335183,4635729639950516200.000000,0.320655,0.483976,0.663461,-0.471982,0
-9.179685,1.187297,2.959018,-1.612461,-0.091055,0.192034,45.503747,3.735124,8.375244,4635732431679258600.000000,0.783580,0.081096,0.611131,-0.077102,-1.996444,-5.740150,-5.682167,0.660281,-1.478770,0.105533,40.133440,17.932676,16.083636,4635727814052544500.000000,0.701253,-0.477009,0.526033,-0.063203,-9.118930,-1.645698,-3.693360,-0.136021,-0.197138,-0.006011,38.477734,22.513813,10.237529,4635729639950516200.000000,0.321399,0.483481,0.663531,-0.471885,0
-9.520501,0.918764,3.005589,-1.673395,0.049473,0.349399,45.589191,3.569698,8.401909,4635732431679258600.000000,0.784098,0.076484,0.611724,-0.071658,-2.243609,-4.622167,-2.334479,1.991293,-1.593432,0.506789,40.505217,17.915742,15.654996,4635727814052544500.000000,0.708667,-0.470375,0.522096,-0.062879,-9.232219,-1.482579,-3.706568,-0.112641,-0.229956,0.013700,38.517719,22.507089,10.193182,4635729581334753300.000000,0.322225,0.483007,0.663471,-0.471891,0
-10.282181,0.678155,2.854597,-1.721855,0.129190,0.483085,45.656329,3.325550,8.598191,4635732431679258600.000000,0.784426,0.072073,0.612515,-0.065625,-2.561510,-0.480472,-0.466435,2.558057,-1.761886,0.891513,40.751170,17.881991,14.407252,4635727814052544500.000000,0.717556,-0.461211,0.518184,-0.062311,-9.406415,-1.316110,-3.535619,-0.123233,-0.259863,0.032926,38.597623,22.387208,10.246488,4635729532576333800.000000,0.323194,0.482513,0.663353,-0.471901,0
-11.083684,0.753968,2.391365,-1.760336,0.134755,0.579920,45.514661,3.068874,8.783548,4635732431679258600.000000,0.784732,0.067782,0.613270,-0.059171,-1.769776,3.905868,0.643543,2.873432,-1.818153,1.296655,40.958744,17.959911,13.220363,4635727814052544500.000000,0.727132,-0.450145,0.514699,-0.061102,-9.526246,-1.226285,-3.317016,-0.158684,-0.286854,0.051568,38.636433,22.275158,10.290841,4635729532576333800.000000,0.324345,0.481968,0.663229,-0.471842,0
-11.659337,0.722162,2.208931,-1.773799,0.052268,0.657749,45.435955,2.678587,8.724749,4635732431679258600.000000,0.785222,0.063621,0.613700,-0.052448,-0.918376,5.112951,1.621844,2.944277,-1.837318,1.625832,41.294006,17.912874,12.268124,4635727814052544500.000000,0.736789,-0.438046,0.511639,-0.059014,-9.597254,-1.194090,-3.182779,-0.220159,-0.310256,0.067395,38.636433,22.201913,10.184240,4635729532576333800.000000,0.325715,0.481338,0.663161,-0.471637,0
-11.795592,0.763901,1.907900,-1.783018,-0.071243,0.706157,45.436917,2.421927,8.842315,4635732431679258600.000000,0.785992,0.059524,0.613675,-0.045572,-1.012353,4.991933,2.118617,2.816902,-1.888651,1.946964,41.647979,17.612362,11.248389,4635727814052544500.000000,0.746211,-0.425545,0.508913,-0.055570,-9.586124,-1.071984,-3.062907,-0.288125,-0.329188,0.074868,38.723035,22.168644,10.042229,4635729532576333800.000000,0.327287,0.480598,0.663183,-0.471272,0
-11.497199,0.996499,1.804771,-1.799940,-0.196561,0.721279,45.442388,2.005613,9.020968,4635732431679258600.000000,0.787037,0.055382,0.613199,-0.038631,-1.279894,4.838702,2.614224,2.510426,-1.858235,2.218976,42.018861,17.084669,10.073838,4635727814052544500.000000,0.754896,-0.413322,0.506687,-0.050646,-9.498447,-0.855577,-2.864253,-0.341720,-0.338215,0.069427,38.881722,22.168644,10.051153,4635729415396348900.000000,0.328980,0.479752,0.663305,-0.470783,0
-10.853161,1.081654,1.781320,-1.815313,-0.245481,0.736854,45.393179,1.444422,8.845952,4635732431679258600.000000,0.788160,0.051218,0.612520,-0.031609,-1.289290,3.469720,2.275272,1.971883,-1.696630,2.465860,42.468616,16.425531,9.201565,4635727814052544500.000000,0.762184,-0.402136,0.505390,-0.044078,-9.401902,-0.591446,-2.718906,-0.375508,-0.336757,0.055346,39.040417,22.215272,10.088861,4635729317827969000.000000,0.330708,0.478821,0.663521,-0.470215,0
-10.256241,1.028305,1.767190,-1.836785,-0.231729,0.735306,45.626080,1.036094,8.487415,4635732423225410600.000000,0.789198,0.046979,0.611848,-0.024531,-1.584145,2.200150,2.296870,1.466403,-1.499433,2.718436,43.013256,15.693087,8.554572,4635727814052544500.000000,0.768072,-0.391594,0.505364,-0.036431,-9.309796,-0.470542,-2.585724,-0.391332,-0.331416,0.031749,39.065898,22.214134,9.983410,4635729317827969000.000000,0.332404,0.477813,0.663819,-0.469624,0
-9.832130,1.063006,1.731527,-1.872037,-0.243201,0.741910,45.832723,0.700690,8.256355,4635732324305076200.000000,0.790217,0.042636,0.611097,-0.017341,-2.033941,1.585084,2.675299,0.978916,-1.332145,2.931737,43.606722,14.634798,7.885043,4635727814052544500.000000,0.772715,-0.382342,0.505966,-0.026913,-9.272078,-0.462771,-2.455906,-0.388223,-0.320832,0.006506,38.940505,22.047675,9.853592,4635729317827969000.000000,0.334015,0.476758,0.664172,-0.469053,0
-9.596673,1.075211,1.702320,-1.906774,-0.237502,0.763940,45.594119,0.285466,8.464793,4635732324305076200.000000,0.791170,0.038233,0.610318,-0.009989,-2.439580,1.718383,2.966399,0.372824,-1.214737,3.108548,43.986101,13.478883,7.205211,4635727838825255900.000000,0.776014,-0.374582,0.507192,-0.015726,-9.264310,-0.478307,-2.536913,-0.364919,-0.307044,-0.017187,38.788474,21.936705,9.868018,4635729317827969000.000000,0.335494,0.475694,0.664544,-0.468551,0
-9.473903,1.091249,1.626459,-1.936198,-0.215828,0.793342,45.301674,-0.256851,8.669173,4635732324305076200.000000,0.792014,0.033806,0.609561,-0.002460,-2.924929,2.586784,2.836932,-0.389118,-1.100794,3.260613,43.743942,12.958701,6.825837,4635727921426726900.000000,0.777736,-0.368894,0.508957,-0.002588,-9.246554,-0.653623,-2.716688,-0.311906,-0.297723,-0.041655,38.761827,21.936705,9.912412,4635729317827969000.000000,0.336795,0.474654,0.664870,-0.468210,0
-9.498564,1.154202,1.658291,-1.973185,-0.202759,0.816254,45.320833,-0.581904,8.684966,4635732324305076200.000000,0.792768,0.029312,0.608796,0.005241,-3.695887,3.709964,2.128960,-1.243770,-0.969982,3.397845,43.283714,12.405725,6.711280,4635727921426726900.000000,0.777692,-0.365597,0.511248,0.012607,-9.234347,-0.854498,-2.756661,-0.190738,-0.277917,-0.066318,38.928262,21.936705,9.959009,4635729317827969000.000000,0.337752,0.473752,0.665036,-0.468199,0
-9.675189,1.239644,1.621443,-2.018377,-0.189584,0.831772,45.559215,-1.009346,8.601436,4635732324305076200.000000,0.793428,0.024707,0.608021,0.013109,-4.663912,4.558913,0.876462,-2.116120,-0.833511,3.485443,43.237634,11.114709,6.498180,4635727896673840100.000000,0.775813,-0.364845,0.513925,0.029732,-9.222140,-0.842331,-2.747772,-0.082645,-0.264415,-0.096031,39.079215,21.983301,9.944610,4635729317827969000.000000,0.338400,0.472947,0.665066,-0.468502,0
-9.915511,1.327010,1.442157,-2.068266,-0.212223,0.841386,45.704287,-1.589796,8.525091,4635732324305076200.000000,0.794081,0.019961,0.607116,0.021132,-5.649953,4.796600,-0.479557,-2.982288,-0.730795,3.522483,43.498617,9.786869,6.166685,4635727814052544500.000000,0.772128,-0.366699,0.516703,0.048667,-9.249869,-0.488413,-2.778841,-0.048069,-0.271307,-0.127977,38.972744,22.148619,9.800365,4635729317827969000.000000,0.338936,0.472088,0.665081,-0.468959,0
-10.101270,1.427308,1.320315,-2.127774,-0.261677,0.851000,45.563776,-2.223194,8.260092,4635732324305076200.000000,0.794792,0.015045,0.605986,0.029332,-6.171373,4.599536,-1.491853,-3.800313,-0.670648,3.599802,44.022445,8.521400,5.958168,4635727814052544500.000000,0.766716,-0.370869,0.519396,0.069499,-9.244350,-0.157630,-2.782185,-0.028168,-0.270827,-0.164775,38.769645,22.294028,9.717093,4635729317827969000.000000,0.339360,0.471156,0.665129,-0.469522,0
-10.168767,1.410328,1.348545,-2.195284,-0.301839,0.860360,45.643692,-2.546035,7.908277,4635732324305076200.000000,0.795530,0.009933,0.604656,0.037728,-6.097989,4.108395,-2.168157,-4.495258,-0.612813,3.639270,44.867580,6.386189,5.937473,4635727814052544500.000000,0.759684,-0.376988,0.521849,0.091837,-9.296453,-0.112073,-2.777736,-0.054456,-0.268880,-0.204103,38.704123,22.240822,9.717093,4635729434904870900.000000,0.339752,0.470082,0.665307,-0.470062,0
-10.157305,1.333263,1.427521,-2.253048,-0.335667,0.866435,45.771823,-2.815972,7.734718,4635732324305076200.000000,0.796275,0.004650,0.603144,0.046285,-6.604705,3.734509,-2.350403,-5.148852,-0.510211,3.597384,45.709071,3.711736,5.982584,4635727814052544500.000000,0.750935,-0.385062,0.523967,0.115246,-9.396350,-0.074391,-2.710089,-0.148822,-0.280044,-0.237410,38.742948,22.168644,9.557386,4635729532576333800.000000,0.340295,0.468759,0.665717,-0.470410,0
-10.006040,1.206413,1.571144,-2.311796,-0.350919,0.867986,45.539881,-3.395451,7.681322,4635732324305076200.000000,0.796974,-0.000822,0.601505,0.054989,-7.870448,3.774900,-2.404744,-5.962140,-0.383751,3.527290,46.037832,1.919889,5.928129,4635727814052544500.000000,0.740068,-0.395598,0.525569,0.139921,-9.457384,-0.090953,-2.609084,-0.204305,-0.290243,-0.269645,38.724137,22.255144,9.424115,4635729532576333800.000000,0.340909,0.467248,0.666281,-0.470669,0
-9.794697,1.028079,1.672414,-2.369708,-0.342421,0.862228,45.338503,-4.024292,7.709349,4635732324305076200.000000,0.797563,-0.006501,0.599815,0.063814,-9.182384,3.567769,-2.736179,-6.910530,-0.282104,3.476016,46.165523,0.374556,5.815520,4635727814052544500.000000,0.726754,-0.408855,0.526343,0.166219,-9.485152,-0.505793,-2.622339,-0.122801,-0.285686,-0.313724,38.685261,22.413840,9.477345,4635729415525202900.000000,0.341266,0.465738,0.666776,-0.471206,0
-9.543137,0.905065,1.678136,-2.417769,-0.310147,0.851464,45.497181,-4.425946,7.635159,4635732324305076200.000000,0.797982,-0.012375,0.598150,0.072715,-10.101634,2.560538,-3.078012,-7.812688,-0.230542,3.434451,46.252979,-1.532434,5.568608,4635727838766775300.000000,0.710985,-0.424496,0.525959,0.194091,-9.431928,-0.918789,-2.641255,-0.048264,-0.278108,-0.354999,38.725180,22.525954,9.468550,4635729317827969000.000000,0.341375,0.464233,0.667213,-0.471993,0
-9.350682,0.771738,1.745659,-2.466586,-0.289051,0.840215,45.637761,-4.676767,7.549708,4635732324305076200.000000,0.798255,-0.018443,0.596469,0.081692,-10.761128,1.518644,-3.289321,-8.587858,-0.262563,3.386391,46.103768,-3.165553,5.289764,4635727921426726900.000000,0.692982,-0.441926,0.524032,0.223312,-9.374188,-0.840254,-2.564721,-0.080951,-0.282471,-0.372490,38.844986,22.565934,9.264460,4635729317827969000.000000,0.341523,0.462625,0.667739,-0.472722,0
-9.184385,0.655391,1.745659,-2.524926,-0.282544,0.833709,45.557857,-5.037753,7.459504,4635732324305076200.000000,0.798411,-0.024721,0.594716,0.090781,-11.132812,1.211343,-3.278510,-9.198574,-0.323458,3.307475,45.862335,-4.723331,4.890768,4635727921426726900.000000,0.672978,-0.460538,0.520378,0.253402,-9.363078,-0.609342,-2.448202,-0.161728,-0.293735,-0.370845,38.870635,22.611403,9.077919,4635729317827969000.000000,0.341859,0.460883,0.668400,-0.473244,0
-8.923269,0.617036,1.752324,-2.591235,-0.261916,0.813580,45.418206,-5.752106,7.296828,4635732324305076200.000000,0.798415,-0.031274,0.592929,0.099954,-12.014657,0.265803,-2.549198,-9.634471,-0.373407,3.111027,45.772146,-6.429394,4.363990,4635727921426726900.000000,0.651300,-0.479950,0.514837,0.283547,-9.376381,-0.823141,-2.412606,-0.185974,-0.303155,-0.369771,38.745280,22.724551,9.086691,4635729317827969000.000000,0.342270,0.459090,0.669092,-0.473714,0
-8.611592,0.715816,1.833967,-2.659944,-0.234933,0.795589,45.496038,-6.239275,6.941864,4635732324305076200.000000,0.798244,-0.038106,0.591122,0.109221,-13.667616,-3.550661,-2.185969,-10.063268,-0.442211,2.799372,45.728064,-7.948062,3.825194,4635727946137992200.000000,0.629252,-0.498336,0.508876,0.311043,-9.334286,-1.221665,-2.495782,-0.183707,-0.307722,-0.369388,38.579942,22.917588,9.084582,4635729317827969000.000000,0.342688,0.457290,0.669768,-0.474196,0
-8.368422,0.969291,1.858225,-2.745469,-0.179312,0.780650,45.479079,-6.574543,6.598501,4635732324305076200.000000,0.797818,-0.045279,0.589376,0.118625,-15.087437,-5.568639,-3.718676,-10.376525,-0.559338,2.633997,45.595741,-9.239230,2.880027,4635728028800909300.000000,0.604759,-0.518675,0.499087,0.340815,-9.303136,-1.394927,-2.458235,-0.215935,-0.306949,-0.347657,38.495501,23.023163,8.939272,4635729317827969000.000000,0.343207,0.455505,0.670464,-0.474554,0
-8.145038,1.176665,1.756117,-2.832156,-0.121952,0.778513,45.399181,-6.984993,6.517650,4635732324305076200.000000,0.797119,-0.052766,0.587691,0.128207,-16.542298,-5.848612,-4.560071,-10.316910,-0.664276,2.371069,45.407875,-10.342742,1.549457,4635728028800909300.000000,0.579796,-0.538245,0.487544,0.369364,-9.254398,-1.561267,-2.300643,-0.250799,-0.301999,-0.311924,38.536493,22.983263,8.850368,4635729317827969000.000000,0.343848,0.453779,0.671165,-0.474754,0
-8.034373,1.226293,1.873286,-2.919148,-0.055395,0.776377,45.252846,-7.484541,6.332488,4635732324305076200.000000,0.796114,-0.060575,0.586089,0.137961,-18.656722,-8.403763,-4.014847,-9.725726,-0.959190,2.099256,45.266159,-11.218938,0.241394,4635728004109487100.000000,0.556113,-0.555496,0.474673,0.396041,-9.204382,-1.585972,-2.107616,-0.291664,-0.294427,-0.267949,38.535499,22.989815,8.903563,4635729317827969000.000000,0.344631,0.452130,0.671871,-0.474760,0
-8.057835,1.131358,1.795438,-2.986267,0.012770,0.774573,45.266136,-7.979429,6.007941,4635732324305076200.000000,0.794797,-0.068639,0.584578,0.147833,-21.088356,-13.768566,-2.324258,-8.638634,-1.391263,1.740697,45.055811,-11.943982,-1.016906,4635727921426726900.000000,0.535534,-0.569358,0.461015,0.420119,-9.230980,-1.480471,-1.948819,-0.336145,-0.278900,-0.224824,38.415708,23.069708,9.054417,4635729317827969000.000000,0.345540,0.450566,0.672605,-0.474548,0
-8.082384,0.948514,1.821884,-3.051424,0.051532,0.777208,45.430393,-8.558872,6.040899,4635732324305076200.000000,0.793230,-0.076924,0.583057,0.157837,-23.525227,-23.202908,-1.244042,-7.721113,-1.822896,1.244539,44.855748,-12.546984,-2.424153,4635727921426726900.000000,0.518169,-0.580658,0.446238,0.441824,-9.326346,-1.359601,-1.911004,-0.400583,-0.262192,-0.183855,38.296914,23.148505,9.090156,4635729317827969000.000000,0.346602,0.449055,0.673409,-0.474063,0
-8.275116,1.045091,2.009608,-3.116249,0.064303,0.786334,45.490218,-9.181180,6.136264,4635732324305076200.000000,0.790886,-0.087385,0.581140,0.170706,-23.109406,-30.959404,-2.591002,-7.224910,-1.973764,0.678928,44.735503,-12.788021,-4.030854,4635727921426726900.000000,0.502787,-0.591055,0.430200,0.461288,-9.527100,-1.487863,-1.969746,-0.455878,-0.249375,-0.132597,38.297890,23.181858,8.886136,4635729434776016900.000000,0.347831,0.447633,0.674241,-0.473325,0
-8.726741,0.948991,2.105360,-3.178536,0.025025,0.801111,45.246096,-9.505056,5.762500,4635732324305076200.000000,0.789013,-0.095941,0.579219,0.180995,-18.838334,-29.497763,-8.769801,-6.853152,-1.781136,0.240433,44.659458,-12.465883,-5.536165,4635727921426726900.000000,0.488357,-0.601287,0.413789,0.478268,-9.843286,-1.666855,-2.054109,-0.487436,-0.237139,-0.079475,38.417670,23.095436,8.752708,4635729532576333800.000000,0.349188,0.446338,0.675050,-0.472396,0
-9.158510,0.435332,2.158701,-3.257330,-0.028008,0.798955,45.014270,-9.779420,5.322314,4635732324305076200.000000,0.787076,-0.104737,0.576948,0.191502,-10.643071,-16.841662,-17.682129,-6.084257,-1.175377,0.272596,44.540341,-12.265635,-6.846301,4635727921426726900.000000,0.474368,-0.610650,0.399887,0.492109,-10.315839,-1.546119,-2.007700,-0.524713,-0.236441,-0.018806,38.536473,23.029810,8.859062,4635729532576333800.000000,0.350729,0.445158,0.675815,-0.471271,0
-9.345297,-0.063045,1.998336,-3.333002,-0.127427,0.772427,44.935452,-10.262026,5.147508,4635732324305076200.000000,0.785208,-0.113744,0.574163,0.202109,-4.793637,-3.746857,-22.470577,-4.456141,-0.621893,0.365892,44.325232,-12.275871,-7.851709,4635727921426726900.000000,0.463163,-0.617471,0.390434,0.501768,-10.485207,-1.566756,-1.728290,-0.565787,-0.231610,0.038988,38.488990,23.115127,9.047724,4635729474115195900.000000,0.352446,0.444087,0.676558,-0.469935,0
-9.439257,-0.268849,2.120493,-3.402722,-0.221695,0.766558,44.928827,-10.670407,4.774702,4635732324305076200.000000,0.783373,-0.122889,0.570888,0.212867,-5.457493,-2.519770,-20.284678,-3.040676,-0.698857,0.145250,44.222642,-12.302414,-8.272670,4635727921426726900.000000,0.456074,-0.621593,0.383125,0.508758,-10.087239,-1.566071,-1.430704,-0.616845,-0.202212,0.080076,38.330295,23.181858,9.084612,4635729425202151400.000000,0.354252,0.443110,0.677362,-0.468336,0
-9.627004,-0.735474,2.366344,-3.423165,-0.243720,0.833710,44.844321,-11.018935,4.338170,4635732324305076200.000000,0.781351,-0.131894,0.567434,0.223858,-4.518321,-10.175464,-17.257348,-2.370799,-0.319465,0.079610,44.305281,-12.095085,-8.490394,4635727921426726900.000000,0.450198,-0.625265,0.377736,0.513499,-9.635319,-1.357474,-1.323961,-0.677820,-0.172673,0.115904,38.304521,23.095465,9.045686,4635729425202151400.000000,0.356155,0.442200,0.678257,-0.466455,0
-9.731287,-1.043119,2.345714,-3.419133,-0.271475,0.937320,44.764455,-11.592677,4.089386,4635732324305076200.000000,0.779130,-0.140586,0.563826,0.235144,-4.590057,-14.593801,-18.483865,-1.880217,0.263285,0.015015,44.358898,-11.801928,-8.760947,4635727921426726900.000000,0.444781,-0.629319,0.374280,0.515792,-9.412057,-1.410197,-1.398140,-0.730466,-0.154124,0.140009,38.609253,22.943423,9.191876,4635729425202151400.000000,0.358147,0.441311,0.679230,-0.464352,0
-9.900204,-0.846243,2.351228,-3.404753,-0.279151,1.038108,44.611443,-12.172975,3.893857,4635732324305076200.000000,0.776663,-0.148955,0.560141,0.246676,-9.029009,-14.073277,-17.427861,-1.094183,0.493593,-0.017944,44.332648,-11.670278,-8.888941,4635727921426726900.000000,0.441112,-0.632441,0.372829,0.516176,-9.284421,-1.352073,-1.611078,-0.772421,-0.134708,0.144011,38.878265,22.836804,9.420569,4635729366753898500.000000,0.360165,0.440404,0.680298,-0.462083,0
-9.893590,-1.196402,2.164566,-3.384954,-0.347479,1.104574,44.532608,-12.819891,3.259072,4635732324305076200.000000,0.774126,-0.157001,0.556172,0.258365,-10.921172,-12.858982,-15.613042,0.194838,0.573268,0.048601,44.295900,-11.709573,-8.768836,4635727921426726900.000000,0.440564,-0.633253,0.374461,0.514464,-9.401546,-0.611636,-1.813182,-0.813684,-0.123811,0.138575,38.704588,22.756920,9.516211,4635729317827969000.000000,0.362214,0.439434,0.681463,-0.459681,0
-9.808140,-1.300304,2.370199,-3.369167,-0.352991,1.156969,44.525995,-13.313773,2.652639,4635732324305076200.000000,0.771383,-0.164833,0.552112,0.270133,-11.653036,-11.558624,-12.833667,1.332715,0.619299,0.220971,44.342055,-11.860829,-8.551062,4635727921426726900.000000,0.442561,-0.631795,0.379060,0.511164,-9.685687,0.243277,-1.899868,-0.876167,-0.127487,0.126355,38.533208,22.585123,9.574916,4635729317827969000.000000,0.364361,0.438322,0.682756,-0.457120,0
-9.715171,-0.774642,2.555153,-3.328497,-0.381111,1.157045,44.434910,-13.728733,2.385077,4635732324305076200.000000,0.768561,-0.172464,0.547885,0.281767,-11.401955,-8.451499,-6.994306,2.026442,0.527002,0.438040,44.259413,-11.985569,-8.190737,4635727921426726900.000000,0.446038,-0.628482,0.385514,0.507385,-9.822471,0.516123,-1.996267,-0.960436,-0.129057,0.106360,38.671614,22.394125,9.772201,4635729317827969000.000000,0.366623,0.437015,0.684233,-0.454347,0
-9.506627,-0.572882,2.771157,-3.259967,-0.500820,1.130087,44.281866,-14.143785,2.106115,4635732324305076200.000000,0.765927,-0.179760,0.543217,0.293184,-9.471278,-2.866337,-0.771737,2.274346,0.533656,0.486047,44.239476,-12.239096,-7.649722,4635727921426726900.000000,0.450013,-0.624588,0.392601,0.503233,-9.898938,0.255852,-2.096258,-1.039789,-0.128853,0.087417,38.743072,22.327341,10.059595,4635729317827969000.000000,0.368987,0.435524,0.685882,-0.451369,0
-8.955305,-0.900669,3.097965,-3.173850,-0.591269,1.072154,44.202065,-14.565425,1.549252,4635732332589405200.000000,0.763475,-0.186763,0.538211,0.304228,-9.464753,1.794022,2.791767,1.997751,0.499158,0.440953,44.420615,-12.522519,-7.281528,4635727970777875500.000000,0.453377,-0.621158,0.398894,0.499496,-10.042002,-0.005369,-2.110807,-1.118324,-0.136125,0.086503,38.629988,22.320701,10.246307,4635729317827969000.000000,0.371507,0.433886,0.687654,-0.448171,0
-7.945024,-1.470550,3.525156,-3.054725,-0.614499,0.987125,44.184216,-15.059290,0.909855,4635732431679258600.000000,0.761063,-0.193620,0.533071,0.314849,-9.959580,3.823095,5.382885,1.393855,0.336749,0.383852,44.581592,-12.920729,-6.966118,4635728136175091700.000000,0.455540,-0.618588,0.403457,0.497045,-10.146500,-0.067678,-2.046548,-1.279987,-0.157846,0.084888,38.563187,22.188962,10.290841,4635729317827969000.000000,0.374368,0.431941,0.689679,-0.444543,0
-6.989123,-1.668633,3.754199,-2.943805,-0.495527,0.918515,44.086537,-15.467758,0.368986,4635732431679258600.000000,0.758520,-0.200244,0.528358,0.324634,-9.689397,4.270950,6.612446,0.732284,0.234792,0.318485,44.422911,-13.183995,-6.642811,4635728136175091700.000000,0.456299,-0.617153,0.406286,0.495828,-10.155487,-0.006846,-1.895777,-1.595891,-0.198697,0.055223,38.616306,21.910558,10.397078,4635729317827969000.000000,0.377847,0.429327,0.692252,-0.440111,0
-6.310252,-1.474275,3.348520,-2.859339,-0.400302,0.837012,43.848974,-15.785130,-0.072357,4635732406864922600.000000,0.755825,-0.206877,0.523907,0.333844,-9.249930,3.908218,6.729254,0.126264,0.200408,0.227217,44.317491,-13.144741,-6.590014,4635728136175091700.000000,0.455740,-0.616950,0.407559,0.495550,-10.011569,0.307756,-1.780139,-2.088474,-0.265838,-0.011225,38.760433,21.639657,10.745086,4635729317827969000.000000,0.382258,0.425594,0.695698,-0.434457,0
-5.994774,-1.430144,2.778593,-2.760669,-0.340164,0.790512,43.695930,-15.956015,-0.536187,4635732109556711400.000000,0.753006,-0.213397,0.519646,0.342654,-8.855333,3.021073,6.361288,-0.340631,0.191546,0.132195,44.393537,-13.052342,-6.620385,4635728086855632900.000000,0.454189,-0.617776,0.407602,0.495908,-9.647917,1.049410,-1.631722,-2.799954,-0.373065,-0.119914,38.936905,21.494025,11.274288,4635729317827969000.000000,0.388005,0.420170,0.700378,-0.427060,0
-5.864249,-1.278021,2.393590,-2.655498,-0.263750,0.750497,43.603904,-16.120345,-1.001007,4635732109556711400.000000,0.750066,-0.219753,0.515666,0.350996,-8.720503,1.938701,5.065555,-0.626961,0.173967,0.071616,44.439746,-13.183995,-6.447504,4635727921426726900.000000,0.452060,-0.619203,0.406870,0.496675,-9.416408,2.312458,-1.413074,-3.694888,-0.496007,-0.245760,38.981669,21.374316,11.794892,4635729317827969000.000000,0.395381,0.412632,0.706536,-0.417391,0
-5.972231,-0.906169,1.940041,-2.531183,-0.194650,0.719274,43.433003,-16.212369,-1.476152,4635732109556711400.000000,0.747042,-0.225859,0.511988,0.358865,-8.991677,0.565631,3.064920,-0.766810,0.163323,0.031184,44.373913,-13.127947,-6.417104,4635727921426726900.000000,0.449669,-0.620933,0.405721,0.497625,-9.572280,3.713252,-1.391414,-4.676476,-0.615145,-0.369658,38.887446,21.129339,12.377157,4635729317827969000.000000,0.404457,0.402771,0.714193,-0.405115,0
-6.661378,-0.481752,1.613290,-2.402444,-0.146828,0.711551,43.269620,-16.402006,-1.931544,4635732109556711400.000000,0.743961,-0.231626,0.508586,0.366349,-9.391709,-1.120718,0.961533,-0.752023,0.182216,-0.001699,44.354298,-12.939848,-6.590000,4635727921426726900.000000,0.447345,-0.622728,0.404541,0.498437,-9.949412,4.687561,-1.578797,-5.670662,-0.733036,-0.497048,38.904763,20.599541,13.260969,4635729317827969000.000000,0.415147,0.390458,0.723198,-0.390104,0
-7.565663,-0.269481,1.344689,-2.280263,-0.151597,0.715246,43.207625,-16.822682,-2.285559,4635732126050046000.000000,0.740924,-0.236975,0.505305,0.373552,-9.841130,-2.109455,-0.321362,-0.566587,0.199411,-0.021100,44.288460,-12.976261,-6.598019,4635727921426726900.000000,0.445509,-0.624239,0.403724,0.498852,-10.243905,4.938667,-1.890365,-6.583326,-0.832615,-0.613997,38.946120,19.845099,14.117201,4635729317827969000.000000,0.427155,0.375783,0.733216,-0.372451,0
-8.474648,-0.407573,1.361604,-2.167777,-0.135248,0.735462,43.262121,-17.280038,-2.648945,4635732324305076200.000000,0.737841,-0.241962,0.502208,0.380568,-10.524535,-2.303229,-0.680229,-0.349102,0.189871,-0.030486,44.308067,-13.098544,-6.349857,4635727921426726900.000000,0.444281,-0.625334,0.403324,0.498899,-10.108468,3.920711,-2.454588,-7.295814,-0.886706,-0.700576,38.823229,19.098115,14.800778,4635729259457029100.000000,0.439947,0.359164,0.743746,-0.352549,0
-9.299978,-0.175584,1.255605,-2.080107,-0.111067,0.731429,43.086554,-17.372032,-3.101579,4635732324305076200.000000,0.734756,-0.246678,0.499288,0.387291,-11.257385,-1.627882,-0.290241,-0.206209,0.142434,-0.032271,44.373913,-13.118148,-6.297010,4635727921426726900.000000,0.443510,-0.626067,0.403129,0.498824,-9.473357,1.991368,-3.095190,-7.760029,-0.898219,-0.751911,38.760635,18.390086,15.796295,4635729327195667500.000000,0.452953,0.341149,0.754260,-0.330972,0
-10.058748,-0.254407,0.806587,-2.031132,-0.193400,0.757553,42.859297,-17.548553,-3.273418,4635732324305076200.000000,0.731789,-0.251036,0.496180,0.394044,-11.790428,-0.481726,0.511340,-0.183906,0.104847,-0.057022,44.376712,-13.203592,-6.417057,4635727921426726900.000000,0.442908,-0.626723,0.402843,0.498766,-8.862276,0.160691,-3.463202,-8.024150,-0.887955,-0.766837,38.855910,17.682103,16.940773,4635729425202151400.000000,0.465785,0.322217,0.764343,-0.308221,0
-10.690719,-0.538958,0.967193,-1.998508,-0.255462,0.804953,42.694944,-17.787083,-3.470567,4635732324305076200.000000,0.728846,-0.255073,0.492945,0.400907,-12.485241,0.695689,1.432723,-0.239615,0.047725,-0.115927,44.383320,-13.230254,-6.589979,4635727921426726900.000000,0.442376,-0.627465,0.402177,0.498845,-8.746873,-1.322412,-3.399755,-8.077936,-0.868543,-0.760057,38.903933,16.841417,17.791510,4635729425202151400.000000,0.478104,0.302849,0.773642,-0.284915,0
-11.295358,-0.722984,1.004746,-1.987322,-0.217253,0.884391,42.609501,-17.951426,-3.845161,4635732324305076200.000000,0.725643,-0.258955,0.489887,0.407914,-13.178476,1.286365,2.032260,-0.345563,0.003823,-0.177476,44.393506,-13.059356,-6.642849,4635727970668882900.000000,0.441766,-0.628412,0.401046,0.499102,-8.866823,-2.126750,-3.225141,-7.960646,-0.832667,-0.746472,38.799900,15.809623,18.740514,4635729425202151400.000000,0.489635,0.283446,0.781974,-0.261597,0
-11.976169,-0.915498,1.050771,-2.009176,-0.198011,0.982165,42.512836,-18.062112,-4.304426,4635732324305076200.000000,0.722149,-0.262714,0.486914,0.415206,-13.622447,1.289651,1.730108,-0.458550,-0.037834,-0.235552,44.459362,-12.947226,-6.545199,4635728136175091700.000000,0.441055,-0.629572,0.399456,0.499543,-9.223200,-2.607848,-3.186132,-7.775358,-0.775896,-0.733934,38.755053,14.664590,19.806206,4635729425202151400.000000,0.500243,0.264202,0.789346,-0.238509,0
-12.601661,-1.056437,1.061110,-2.037520,-0.215357,1.086761,42.279962,-18.470619,-4.568255,4635732324305076200.000000,0.718412,-0.266291,0.483910,0.422852,-13.604124,0.842261,0.785037,-0.512912,-0.116320,-0.291717,44.456564,-12.957131,-6.492308,4635728136175091700.000000,0.440454,-0.630754,0.397466,0.500170,-9.584652,-3.531009,-2.874368,-7.473078,-0.697300,-0.726643,38.895687,13.526970,20.570480,4635729425202151400.000000,0.509756,0.245408,0.795761,-0.216076,0
-12.942647,-0.984134,1.064767,-2.072928,-0.210752,1.189952,42.047972,-18.800182,-4.923164,4635732324305076200.000000,0.714375,-0.269748,0.480924,0.430832,-13.192119,-0.402358,-0.328340,-0.530491,-0.176445,-0.325318,44.463942,-12.673822,-6.615144,4635728136175091700.000000,0.439972,-0.631895,0.395237,0.500920,-9.761129,-4.614569,-2.008756,-7.008053,-0.607669,-0.712016,39.010347,12.600769,21.255934,4635729425202151400.000000,0.518038,0.227494,0.801193,-0.194869,0
-12.951274,-0.915631,1.255420,-2.109497,-0.211677,1.284302,41.969051,-19.142846,-5.295918,4635732324305076200.000000,0.710055,-0.273094,0.477926,0.439122,-12.288329,-1.779660,-0.906411,-0.502857,-0.205282,-0.350531,44.500825,-12.314740,-6.797481,4635728136175091700.000000,0.439659,-0.632965,0.392939,0.501652,-9.620295,-5.145662,-0.891322,-6.382042,-0.505090,-0.679720,38.920948,11.859341,21.985155,4635729425202151400.000000,0.525001,0.210934,0.805669,-0.175436,0
-12.610480,-0.736409,1.380370,-2.135466,-0.168400,1.327463,41.955989,-19.635880,-5.733592,4635732324305076200.000000,0.705418,-0.276528,0.474978,0.447565,-11.643128,-2.570921,-0.687224,-0.451742,-0.247579,-0.334157,44.454522,-12.163415,-6.939878,4635728086984471600.000000,0.439514,-0.633820,0.390712,0.502438,-9.356741,-4.675384,-0.318743,-5.703308,-0.378618,-0.657122,38.851646,10.978924,22.362612,4635729308537583600.000000,0.530621,0.195883,0.809384,-0.158013,0
-12.143762,-0.303607,1.381395,-2.152309,-0.079835,1.319856,41.767403,-20.034022,-6.008647,4635732324305076200.000000,0.700618,-0.280058,0.472256,0.455715,-10.983528,-2.653570,-0.287673,-0.423091,-0.327332,-0.291435,44.520401,-12.077971,-7.255190,4635727921426726900.000000,0.439479,-0.634386,0.388504,0.503466,-9.521948,-3.633530,-0.474149,-5.110136,-0.246538,-0.665892,38.841845,10.086138,22.578588,4635729210453786600.000000,0.535032,0.182092,0.812588,-0.142425,0
-11.809313,0.170808,1.243387,-2.165788,0.005634,1.257260,41.364559,-20.368375,-6.362662,4635732324305076200.000000,0.695625,-0.283935,0.469600,0.463641,-10.298485,-2.721224,-0.118538,-0.461584,-0.378538,-0.242350,44.537171,-11.972953,-7.578744,4635727921426726900.000000,0.439317,-0.634833,0.386244,0.504780,-9.776772,-3.104148,-0.832661,-4.577811,-0.117208,-0.682520,38.753232,9.384488,23.036266,4635729210453786600.000000,0.538369,0.169425,0.815436,-0.128523,0
-11.714450,0.301555,1.058414,-2.174333,0.064227,1.171581,40.980348,-20.612521,-6.711084,4635732324305076200.000000,0.690596,-0.288087,0.466946,0.471215,-10.242011,-2.775644,-0.021620,-0.503033,-0.412550,-0.171852,44.574078,-11.821615,-7.654042,4635727921426726900.000000,0.438953,-0.635164,0.384022,0.506373,-9.780547,-3.063005,-1.101516,-4.065655,0.018901,-0.690788,38.670947,8.709955,23.516104,4635729210453786600.000000,0.540698,0.157890,0.818048,-0.116245,0
-11.668303,0.085680,0.844400,-2.183040,0.109481,1.057139,40.833763,-20.844549,-6.984381,4635732324305076200.000000,0.685622,-0.292545,0.464218,0.478374,-10.286728,-2.941114,0.074431,-0.494398,-0.415574,-0.099645,44.508194,-11.738961,-7.721117,4635727921426726900.000000,0.438466,-0.635349,0.382006,0.508085,-9.675204,-2.760115,-1.289150,-3.601244,0.153514,-0.697289,38.701683,8.088120,23.754243,4635729210453786600.000000,0.542117,0.147396,0.820526,-0.105449,0
-11.824910,-0.235433,0.558864,-2.193966,0.171036,0.942502,40.814228,-20.936512,-7.181445,4635732324305076200.000000,0.680673,-0.297349,0.461457,0.485103,-10.529510,-3.277480,0.402535,-0.482459,-0.422987,-0.024123,44.471880,-11.662932,-8.014059,4635727945996269600.000000,0.437858,-0.635373,0.380195,0.509934,-9.632693,-2.348986,-1.579375,-3.211690,0.273470,-0.703605,38.759558,7.664785,24.062989,4635729210453786600.000000,0.542770,0.137779,0.822934,-0.095906,0
-12.253096,-0.611883,0.369128,-2.206793,0.209621,0.851446,40.565316,-21.107415,-7.547664,4635732324305076200.000000,0.675751,-0.302411,0.458621,0.491502,-10.865304,-3.129250,0.653359,-0.437042,-0.409549,0.042431,44.310405,-11.577488,-8.284672,4635728028800909300.000000,0.437202,-0.635236,0.378676,0.511795,-9.630591,-2.209540,-1.956733,-2.888802,0.374019,-0.711846,38.651393,7.347409,24.545681,4635729210453786600.000000,0.542795,0.128877,0.825301,-0.087419,0
-12.677653,-1.115118,0.259142,-2.204030,0.185707,0.783417,40.418713,-21.283872,-7.913846,4635732324305076200.000000,0.670952,-0.307517,0.455592,0.497687,-11.050548,-2.827846,1.181382,-0.356905,-0.355200,0.106762,44.159049,-11.492038,-8.412981,4635728028800909300.000000,0.436537,-0.634962,0.377596,0.513498,-9.539887,-2.070333,-2.236779,-2.625591,0.457852,-0.734708,38.438288,6.983615,24.987574,4635729210453786600.000000,0.542304,0.120499,0.827655,-0.079833,0
-12.908798,-1.633668,0.296693,-2.166494,0.171310,0.720628,40.418713,-21.515947,-8.267065,4635732324305076200.000000,0.666295,-0.312578,0.452478,0.503597,-11.417415,-2.171498,1.635465,-0.298959,-0.315926,0.168495,44.115466,-11.465200,-8.382308,4635728028800909300.000000,0.435829,-0.634566,0.376874,0.515117,-9.366895,-1.601896,-2.497316,-2.445038,0.524222,-0.789277,38.224148,6.627193,25.330740,4635729210453786600.000000,0.541407,0.112345,0.830021,-0.072953,0
-12.981113,-1.923857,0.336235,-2.113830,0.175594,0.675012,40.387138,-21.595825,-8.475383,4635732332473450500.000000,0.661734,-0.317560,0.449386,0.509231,-11.553442,-1.577530,2.146071,-0.284860,-0.276252,0.213325,44.229870,-11.672383,-8.616697,4635728028800909300.000000,0.435313,-0.633928,0.376756,0.516422,-9.118492,-0.888464,-2.835717,-2.371434,0.562280,-0.876430,38.044153,6.395933,25.623778,4635729210453786600.000000,0.540253,0.104051,0.832392,-0.066501,0
-13.031944,-2.183890,0.264854,-2.056414,0.164697,0.646419,40.003662,-21.600613,-8.835998,4635732431679258600.000000,0.657275,-0.322386,0.446309,0.514650,-11.764452,-1.235039,2.282433,-0.291971,-0.237831,0.236122,44.344960,-11.946166,-8.921520,4635728028800909300.000000,0.434352,-0.633580,0.376362,0.517945,-8.825450,-0.417727,-3.215286,-2.381989,0.573688,-0.978692,37.897631,6.277002,25.916820,4635729210453786600.000000,0.538972,0.095369,0.834737,-0.060233,0
-12.944819,-2.477006,0.226214,-1.987670,0.127287,0.621191,40.014772,-21.522578,-9.135424,4635732431679258600.000000,0.652980,-0.326965,0.443208,0.519882,-11.974774,-1.131811,1.949742,-0.310555,-0.217782,0.242806,44.229885,-11.973035,-8.955018,4635728028800909300.000000,0.433296,-0.633294,0.375982,0.519452,-8.585552,-0.178110,-3.453351,-2.438523,0.561896,-1.076400,37.711357,6.105333,26.209778,4635729210453786600.000000,0.537662,0.086202,0.837003,-0.053989,0
-12.673650,-2.617939,0.311666,-1.900988,0.118858,0.600815,40.138114,-21.545895,-9.506447,4635732431679258600.000000,0.648815,-0.331303,0.440212,0.524872,-11.890011,-1.043208,1.364148,-0.316539,-0.204901,0.242530,43.995844,-11.860706,-8.858374,4635728028800909300.000000,0.432204,-0.633045,0.375610,0.520932,-8.250946,0.330287,-3.470362,-2.546560,0.532013,-1.168842,37.571213,5.867815,26.403270,4635729210453786600.000000,0.536400,0.076451,0.839146,-0.047582,0
-12.215501,-2.693960,0.381380,-1.812819,0.148311,0.578237,39.985901,-21.711997,-9.771477,4635732431679258600.000000,0.644723,-0.335486,0.437427,0.529564,-11.859333,-1.075989,0.695183,-0.290908,-0.215154,0.249947,43.876198,-11.985200,-9.028586,4635728028800909300.000000,0.431178,-0.632714,0.375293,0.522411,-7.965089,0.871439,-3.422590,-2.720911,0.479934,-1.247841,37.464808,5.589450,26.665683,4635729210453786600.000000,0.535280,0.066009,0.841105,-0.040755,0
-11.678435,-2.799193,0.269487,-1.731874,0.146174,0.539239,39.917285,-21.955382,-9.861352,4635732431679258600.000000,0.640699,-0.339576,0.434672,0.534090,-11.719488,-1.061750,0.211075,-0.233267,-0.238248,0.244092,43.924645,-12.219229,-9.116818,4635728028800909300.000000,0.430352,-0.632236,0.375043,0.523849,-7.878294,1.142682,-3.253334,-2.899291,0.411391,-1.301204,37.330535,5.265443,27.208830,4635729210453786600.000000,0.534349,0.054956,0.842813,-0.033438,0
-11.145010,-2.844325,0.286316,-1.667284,0.143796,0.480815,39.893062,-22.027893,-10.168191,4635732431679258600.000000,0.637028,-0.343441,0.432052,0.538121,-11.613760,-0.784823,-0.066232,-0.174419,-0.292321,0.215529,44.076033,-12.380714,-9.211689,4635728028800909300.000000,0.430316,-0.631228,0.375336,0.524883,-7.868199,1.021810,-2.839961,-2.985605,0.339738,-1.309787,37.242678,4.942496,27.727680,4635729210453786600.000000,0.533590,0.043657,0.844220,-0.025851,0
-10.656769,-2.843402,0.350323,-1.609530,0.137890,0.426749,39.729559,-21.936914,-10.615617,4635732423561445400.000000,0.633533,-0.347226,0.429441,0.541895,-11.647978,-0.535396,-0.221463,-0.150886,-0.370050,0.172931,44.122459,-12.512589,-9.322226,4635728028800909300.000000,0.430076,-0.630416,0.374848,0.526402,-7.601931,1.073320,-2.049858,-2.947237,0.273490,-1.283599,37.134177,4.625120,27.806669,4635729210453786600.000000,0.532960,0.032518,0.845316,-0.018352,0
-10.172160,-2.833041,0.317184,-1.551266,0.125153,0.378179,39.661854,-21.783753,-10.698508,4635732324305076200.000000,0.630164,-0.350947,0.426800,0.545500,-11.533610,-0.421424,-0.354939,-0.141727,-0.452069,0.115837,44.039800,-12.493084,-9.562108,4635728028800909300.000000,0.430110,-0.629497,0.374080,0.528019,-8.917958,0.243041,-1.646628,-2.796398,0.256696,-1.138440,36.849531,4.393933,27.736272,4635729210453786600.000000,0.532290,0.022217,0.846198,-0.011066,0
-9.742816,-2.845249,0.493458,-1.497789,0.113160,0.338296,39.648914,-21.699218,-10.644280,4635732324305076200.000000,0.626959,-0.354556,0.424171,0.548900,-11.323697,-0.125660,-0.736155,-0.142250,-0.553845,0.051481,43.944264,-12.388128,-9.952744,4635728028800909300.000000,0.430436,-0.628455,0.372950,0.529790,-10.376709,1.703388,-1.352086,-2.449216,0.242765,-0.931170,36.505298,4.188827,27.959578,4635729210453786600.000000,0.531570,0.013410,0.846896,-0.004548,0
-9.436744,-2.869452,0.862823,-1.432926,0.097804,0.321512,39.478032,-21.644438,-11.126771,4635732324305076200.000000,0.623889,-0.357975,0.421609,0.552142,-10.995829,0.073649,-1.062703,-0.129317,-0.663374,-0.035489,43.756650,-12.236731,-10.298795,4635728028800909300.000000,0.431152,-0.627282,0.371418,0.531671,-9.728287,6.215651,-0.564828,-2.078034,0.209901,-0.681533,36.465299,3.865127,28.290545,4635729268766187500.000000,0.530896,0.006302,0.847412,0.001209,0
-9.111094,-3.050472,0.993871,-1.396069,0.075737,0.322641,39.326496,-21.815322,-11.645863,4635732324305076200.000000,0.620888,-0.361233,0.419060,0.555335,-10.779137,-0.012626,-1.111293,-0.106421,-0.772709,-0.137254,43.587716,-12.170781,-10.494095,4635728028800909300.000000,0.432321,-0.625975,0.369474,0.533613,-10.548165,9.666756,0.045726,-1.786585,0.169678,-0.393174,36.555593,3.514305,28.478488,4635729317827969000.000000,0.530317,0.000855,0.847773,0.006571,0
-8.691210,-3.362104,1.407538,-1.338651,0.032750,0.338079,39.405499,-21.960427,-11.645863,4635732324305076200.000000,0.618001,-0.364194,0.416548,0.558502,-10.779137,0.251895,-0.969306,-0.103911,-0.890168,-0.249223,43.653675,-12.151287,-10.689413,4635728028800909300.000000,0.434093,-0.624450,0.367227,0.535509,-11.719450,9.555159,-0.130473,-1.555673,0.162085,-0.202485,36.521409,3.196930,28.528702,4635729317827969000.000000,0.529732,-0.003410,0.848080,0.011537,0
-8.380045,-3.729699,2.106970,-1.270479,0.000204,0.357427,39.392617,-21.784020,-11.667945,4635732340491103200.000000,0.615199,-0.366867,0.414120,0.561643,-10.829258,0.751936,-0.972961,-0.119221,-1.024921,-0.370464,43.653675,-12.085329,-10.926494,4635728028800909300.000000,0.436135,-0.622937,0.364192,0.537681,-10.524782,2.262388,-1.694144,-1.250691,0.251051,-0.276234,36.448165,2.925930,28.535329,4635729317827969000.000000,0.528820,-0.007269,0.848566,0.015259,0
-8.305641,-3.787519,2.813922,-1.192637,-0.030029,0.350635,39.228143,-21.577622,-11.945290,4635732539053441000.000000,0.612566,-0.369270,0.411774,0.564663,-11.174224,0.823463,-1.367187,-0.151169,-1.181437,-0.501010,43.634191,-12.026878,-11.352207,4635728028800909300.000000,0.438616,-0.621312,0.360457,0.540054,-8.119373,-6.175083,-4.103032,-0.782261,0.365060,-0.376904,36.374924,2.819910,28.593922,4635729317827969000.000000,0.527514,-0.010459,0.849310,0.017098,0
-8.355632,-3.513222,3.075519,-1.126968,-0.114205,0.326392,39.155582,-21.838547,-12.023372,4635732539053441000.000000,0.610220,-0.371340,0.409320,0.567623,-12.007309,0.845094,-2.127027,-0.185687,-1.334614,-0.635801,43.568222,-11.753822,-11.915895,4635728028800909300.000000,0.441527,-0.619588,0.356001,0.542611,-7.367626,-7.255601,-4.972982,-0.379338,0.392958,-0.235072,36.255301,2.899422,28.744584,4635729317827969000.000000,0.526111,-0.012263,0.850141,0.017820,0
-8.260086,-3.301391,3.557066,-1.030558,-0.162830,0.304894,39.228163,-22.126512,-12.034129,4635732539053441000.000000,0.608189,-0.373044,0.406957,0.570377,-13.048768,0.960275,-2.983921,-0.217487,-1.484693,-0.785299,43.545957,-11.404749,-12.404178,4635728028800909300.000000,0.444901,-0.617777,0.350799,0.545302,-8.612031,-3.395057,-4.495849,-0.157609,0.351272,-0.048138,36.149614,2.840506,28.939902,4635729317827969000.000000,0.524851,-0.012915,0.850902,0.018169,0
-8.042189,-2.865214,4.089865,-0.961517,-0.129889,0.268014,39.142713,-22.040407,-12.327107,4635732522895127600.000000,0.606325,-0.374680,0.404802,0.572818,-13.983994,1.318400,-3.429989,-0.246026,-1.647483,-0.945507,43.434397,-11.006428,-12.959195,4635728028800909300.000000,0.448783,-0.615847,0.344801,0.548123,-10.167852,-0.064834,-3.901582,-0.191752,0.266564,0.081711,36.081956,2.562204,29.135208,4635729317827969000.000000,0.523878,-0.013177,0.851481,0.018927,0
-7.825749,-2.194195,4.405686,-0.949768,-0.135621,0.228641,39.051751,-21.815549,-12.619164,4635732324305076200.000000,0.604487,-0.376393,0.402537,0.575229,-14.585853,1.195994,-3.784918,-0.281170,-1.822659,-1.101834,43.272920,-10.667402,-13.718213,4635728028800909300.000000,0.453152,-0.613763,0.337969,0.551113,-11.631988,0.502754,-3.059017,-0.410457,0.168235,0.159726,36.094834,2.417066,29.224524,4635729317827969000.000000,0.523235,-0.013632,0.851830,0.020637,0
-7.318534,-1.818843,4.545739,-0.937217,-0.101248,0.245920,38.910497,-21.833257,-12.899903,4635732324305076200.000000,0.602560,-0.378120,0.400408,0.577598,-14.924249,0.962078,-3.839149,-0.348365,-1.991259,-1.251290,43.099240,-10.259927,-14.404591,4635728028800909300.000000,0.457895,-0.611574,0.330256,0.554293,-11.420404,-0.647502,-2.937023,-0.684064,0.107888,0.161081,36.087537,2.417066,29.224524,4635729434377669600.000000,0.522787,-0.014672,0.852018,0.023323,0
-6.441149,-1.303035,4.590269,-0.913020,-0.000230,0.292332,38.983740,-21.912289,-13.174254,4635732324305076200.000000,0.600431,-0.379913,0.398690,0.579824,-15.254569,1.736022,-3.754929,-0.349083,-2.151936,-1.418042,42.938389,-9.627508,-15.097567,4635728028800909300.000000,0.463198,-0.609177,0.321779,0.557503,-9.864598,-1.498299,-3.356283,-0.934525,0.080939,0.149143,36.008715,2.330949,29.178153,4635729532576333800.000000,0.522414,-0.016296,0.852112,0.026873,0
-5.757884,-0.442106,4.419654,-0.867572,0.079609,0.340819,39.051483,-21.905870,-13.362235,4635732324305076200.000000,0.598141,-0.381679,0.397370,0.581933,-15.896610,2.388442,-3.604041,-0.342401,-2.370052,-1.560326,42.816793,-9.146468,-15.892401,4635728028800909300.000000,0.469089,-0.606371,0.312499,0.560905,-8.764794,-1.335679,-3.359896,-1.066693,0.080168,0.195811,35.856003,2.039810,29.198679,4635729532576333800.000000,0.522021,-0.018043,0.852178,0.030991,0
-5.396893,0.467545,4.123356,-0.829817,0.124119,0.337962,39.033171,-21.814935,-13.467208,4635732324305076200.000000,0.595837,-0.383458,0.396242,0.583892,-16.601840,2.980197,-2.785336,-0.406334,-2.611287,-1.662272,42.550410,-8.653584,-17.042038,4635728028800909300.000000,0.475298,-0.603167,0.302289,0.564714,-8.256473,-1.691307,-2.842076,-1.032654,0.109703,0.259426,35.762109,1.643563,29.301929,4635729532576333800.000000,0.521507,-0.019495,0.852301,0.035125,0
-5.243079,0.985443,4.078493,-0.814676,0.097201,0.282765,38.789023,-21.662647,-13.661611,4635732324305076200.000000,0.593651,-0.385272,0.394940,0.585804,-17.267029,3.888806,-2.446938,-0.627977,-2.830237,-1.742853,42.208633,-7.880121,-18.074506,4635728028800909300.000000,0.481332,-0.599878,0.290868,0.569088,-8.191813,-2.499909,-2.165788,-0.857307,0.145472,0.333078,35.780938,1.213218,29.505548,4635729532576333800.000000,0.520861,-0.020311,0.852518,0.038792,0
-4.979704,1.279032,3.944822,-0.811525,0.059763,0.175710,38.568680,-21.600390,-13.838313,4635732324305076200.000000,0.591784,-0.387159,0.393376,0.587499,-17.803558,4.098605,-2.036049,-0.884801,-3.039724,-1.802322,41.808466,-7.011112,-18.987879,4635728028800909300.000000,0.487000,-0.596562,0.278185,0.574071,-8.688192,-2.310678,-1.660393,-0.621922,0.179433,0.458170,35.752376,0.954656,29.692548,4635729532576333800.000000,0.520087,-0.020178,0.852847,0.041891,0
-4.491103,1.712394,3.954588,-0.822768,0.087775,0.024887,38.642842,-21.656238,-13.922238,4635732324305076200.000000,0.590216,-0.389383,0.391605,0.588788,-18.171859,3.066774,-1.076156,-1.120342,-3.192962,-1.843926,41.268672,-6.068484,-19.998881,4635728028800909300.000000,0.492245,-0.593260,0.264458,0.579482,-9.390007,-1.694944,-1.193404,-0.450409,0.217976,0.585115,35.718861,0.875826,29.737234,4635729532576333800.000000,0.519163,-0.019228,0.853291,0.044651,0
-4.181340,1.889707,3.767207,-0.843329,0.117389,-0.142063,38.740192,-21.496628,-13.822139,4635732324305076200.000000,0.588968,-0.391999,0.389581,0.589644,-18.182316,1.559067,-0.347880,-1.418242,-3.248724,-1.864738,40.910244,-5.321145,-21.126867,4635728028800909300.000000,0.496738,-0.590299,0.249776,0.585158,-9.918818,-0.821640,-0.831970,-0.450956,0.252282,0.676191,35.725481,0.630446,29.849787,4635729532576333800.000000,0.518096,-0.017962,0.853808,0.047607,0
-4.306998,1.690756,3.370219,-0.898804,0.127246,-0.312066,38.983396,-21.326659,-13.570651,4635732324305076200.000000,0.588023,-0.395045,0.387161,0.590149,-17.760523,0.963778,-0.427369,-1.790177,-3.237257,-1.817582,40.434155,-4.492178,-22.421303,4635728028800909300.000000,0.500053,-0.587918,0.234256,0.591121,-10.100077,-0.089820,-0.799678,-0.583269,0.288560,0.755989,35.737690,0.233211,29.997721,4635729532576333800.000000,0.516866,-0.016705,0.854370,0.051203,0
-4.943197,1.456674,2.933428,-1.017016,0.096792,-0.467848,39.203447,-21.161591,-13.695108,4635732324305076200.000000,0.587335,-0.398529,0.384132,0.590470,-16.529723,0.446572,-1.077594,-2.219367,-3.180307,-1.684694,39.808851,-3.415180,-23.734085,4635728028800909300.000000,0.501788,-0.586264,0.218052,0.597458,-9.997254,-0.779715,-1.475774,-0.726820,0.316315,0.828969,35.663836,-0.116673,29.996079,4635729532576333800.000000,0.515502,-0.015504,0.854951,0.055465,0
-5.758012,1.339506,2.984995,-1.102608,0.023959,-0.574554,39.264829,-20.900104,-14.013984,4635732324305076200.000000,0.586930,-0.402165,0.380570,0.590714,-14.615006,-0.805724,-0.924970,-2.654160,-3.113698,-1.539491,39.362207,-2.331596,-24.778824,4635728028800909300.000000,0.502863,-0.585039,0.202137,0.603323,-9.792233,-1.509161,-2.320772,-0.788654,0.325386,0.901651,35.517355,-0.593940,29.963587,4635729532576333800.000000,0.514073,-0.014180,0.855520,0.060102,0
-6.683998,1.132883,3.068625,-1.160459,0.004084,-0.580020,39.191244,-20.434948,-14.481299,4635732324305076200.000000,0.586365,-0.405951,0.376735,0.591144,-13.046931,-3.020817,0.081025,-2.997321,-3.027422,-1.473898,38.774583,-1.254570,-25.726566,4635728028800909300.000000,0.501759,-0.584842,0.184708,0.609985,-9.872388,-1.003116,-2.547234,-0.802410,0.326274,0.981842,35.423828,-1.137029,30.134621,4635729532576333800.000000,0.512607,-0.012601,0.856070,0.064958,0
-7.590712,0.938356,3.134310,-1.179235,0.017454,-0.489593,39.276518,-20.106051,-14.682513,4635732324305076200.000000,0.585508,-0.409661,0.373027,0.591785,-12.761169,-4.086190,0.771835,-3.076701,-3.004652,-1.440884,37.932297,-0.193110,-26.800234,4635728028800909300.000000,0.500160,-0.584646,0.167110,0.616526,-10.206532,-0.508603,-2.542221,-0.806092,0.331575,1.037541,35.322065,-1.613091,30.380235,4635729532576333800.000000,0.511091,-0.010833,0.856608,0.069945,0
-8.551864,0.736819,3.245327,-1.177865,0.056854,-0.334632,39.484502,-19.787740,-14.803665,4635732324305076200.000000,0.584251,-0.413177,0.369714,0.592660,-13.127446,0.236791,0.724891,-3.367324,-2.894905,-1.283698,37.162165,0.824989,-27.680788,4635728028800909300.000000,0.497197,-0.585017,0.149314,0.623102,-10.285714,-0.735153,-2.701473,-0.757601,0.349203,1.066509,35.221899,-2.128847,30.529226,4635729532576333800.000000,0.509490,-0.008865,0.857172,0.074819,0
-9.787189,0.309608,3.212635,-1.159628,0.170854,-0.125642,39.393539,-19.477495,-14.912599,4635732324305076200.000000,0.582262,-0.416634,0.367034,0.593863,-12.186583,7.066791,-1.292132,-4.065016,-2.622082,-1.077764,36.656659,1.984693,-28.193500,4635728053193004000.000000,0.491638,-0.587183,0.130711,0.629622,-10.097490,-0.832071,-3.052484,-0.687515,0.357650,1.096285,35.200559,-2.678150,30.533235,4635729532576333800.000000,0.507837,-0.006647,0.857751,0.079504,0
-11.189437,-0.116728,3.057197,-1.139596,0.245900,0.091856,39.246803,-19.415290,-14.995539,4635732324305076200.000000,0.579640,-0.419885,0.364953,0.595419,-9.354136,12.183775,-3.535225,-5.292397,-2.331888,-1.092114,36.139564,3.258050,-28.775517,4635728136175091700.000000,0.482710,-0.592332,0.109379,0.635743,-9.939346,-0.224059,-3.557083,-0.665904,0.341800,1.116573,35.126762,-3.187789,30.454399,4635729532576333800.000000,0.506219,-0.004306,0.858278,0.084154,0
-12.378159,-0.520711,2.657807,-1.108807,0.204213,0.301822,39.246803,-19.489445,-14.926365,4635732324305076200.000000,0.576600,-0.422629,0.363206,0.597493,-6.202722,10.275282,-7.385048,-6.821245,-1.801580,-1.179937,35.355592,5.031741,-29.463068,4635728136175091700.000000,0.469651,-0.601563,0.084762,0.640598,-9.648838,0.261468,-3.782250,-0.646487,0.327164,1.123960,34.986898,-3.703536,30.526687,4635729532576333800.000000,0.504637,-0.001894,0.858756,0.088749,0
-12.970041,-0.778251,2.458548,-1.066748,0.135611,0.474495,39.246803,-19.568468,-15.199786,4635732324305076200.000000,0.573295,-0.424830,0.361695,0.600025,-5.284745,7.892067,-11.123946,-7.516710,-1.380848,-1.088990,34.689609,7.192452,-29.576948,4635728063037463600.000000,0.454015,-0.612670,0.059255,0.644201,-9.218053,0.489363,-3.640824,-0.586001,0.324717,1.125738,34.852624,-4.299139,30.781523,4635729532576333800.000000,0.503049,0.000650,0.859226,0.093130,0
-12.834154,-0.893892,2.358147,-1.019273,0.064454,0.571570,39.240383,-19.568468,-15.376458,4635732324305076200.000000,0.569924,-0.426582,0.360295,0.602829,-5.114902,5.275001,-12.386486,-7.590670,-1.089263,-0.987322,34.529729,9.353103,-29.200244,4635727814052544500.000000,0.437386,-0.624044,0.034294,0.646596,-9.112849,1.296209,-3.480619,-0.532555,0.318929,1.103925,34.711729,-4.761954,30.927966,4635729532576333800.000000,0.501475,0.003229,0.859680,0.097272,0
-12.095586,-0.932355,2.254160,-0.965941,0.011321,0.598829,39.149411,-19.574897,-15.473209,4635732324305076200.000000,0.566646,-0.428023,0.358942,0.605697,-5.012404,2.195818,-12.766266,-7.231328,-0.929374,-0.729354,34.529295,11.400034,-28.704721,4635727814052544500.000000,0.420550,-0.634547,0.011224,0.648353,-9.272567,2.139937,-3.423666,-0.526333,0.307090,1.056212,34.558627,-5.033047,30.887260,4635729532576333800.000000,0.499951,0.005655,0.860091,0.101290,0
-11.613195,-0.984215,2.494265,-0.914169,0.116222,0.589718,39.008157,-19.660338,-15.552232,4635732324305076200.000000,0.563314,-0.429610,0.357944,0.608267,-4.452692,0.203149,-12.524279,-6.598676,-0.819310,-0.424804,34.161522,13.021458,-28.331314,4635727814052544500.000000,0.404209,-0.643690,-0.009153,0.649765,-9.311190,2.254788,-3.265964,-0.524726,0.283857,1.001829,34.452848,-5.357560,30.907630,4635729532576333800.000000,0.498522,0.007899,0.860435,0.105187,0
-11.491438,-0.916776,2.382580,-0.869953,0.171117,0.531377,39.082306,-19.739370,-15.552232,4635732324305076200.000000,0.560116,-0.431311,0.357075,0.610523,-3.527724,-1.480496,-12.339628,-5.894642,-0.709088,-0.072531,33.633137,14.491332,-27.866930,4635727814052544500.000000,0.388534,-0.651519,-0.026493,0.651048,-9.138758,2.201405,-2.945532,-0.493928,0.254129,0.955368,34.345524,-5.753770,31.063780,4635729532576333800.000000,0.497208,0.010052,0.860715,0.108875,0
-11.199070,-0.769371,2.286753,-0.832835,0.068041,0.437006,39.161350,-19.739370,-15.565966,4635732324305076200.000000,0.557369,-0.432796,0.355883,0.612679,-2.797760,-2.645360,-11.800527,-5.176108,-0.626793,0.311758,33.483774,15.803684,-27.359180,4635727814052544500.000000,0.373571,-0.658101,-0.040698,0.652451,-9.239466,2.292446,-2.393181,-0.448134,0.226938,0.916516,34.245328,-6.144381,31.159905,4635729474418539500.000000,0.495998,0.012172,0.860943,0.112315,0
-10.640585,-0.619831,2.654193,-0.785596,0.071859,0.325812,39.143041,-19.739370,-15.749991,4635732324305076200.000000,0.554964,-0.434347,0.354606,0.614502,-2.833001,-3.229300,-10.857913,-4.404795,-0.562253,0.721585,33.551986,16.746548,-26.992959,4635727814052544500.000000,0.359469,-0.663460,-0.051569,0.654174,-9.529896,2.318391,-1.811822,-0.388678,0.212384,0.867564,34.223961,-6.581276,31.119222,4635729425202151400.000000,0.494852,0.014244,0.861158,0.115440,0
-10.469325,-0.596925,2.862341,-0.735559,0.170739,0.228245,38.904404,-19.739370,-15.937060,4635732324305076200.000000,0.552760,-0.436166,0.353514,0.615828,-3.384957,-3.434683,-9.728694,-3.578985,-0.527236,1.131699,33.633664,17.361064,-26.601830,4635727814052544500.000000,0.346436,-0.667570,-0.058992,0.656394,-9.599600,2.241086,-1.751230,-0.310393,0.216789,0.811129,34.189890,-6.971418,31.033770,4635729425202151400.000000,0.493705,0.016272,0.861410,0.118167,0
-10.917608,-0.759868,2.788773,-0.687412,0.205569,0.153287,38.759097,-19.739370,-16.009714,4635732324305076200.000000,0.550778,-0.438070,0.352486,0.616840,-4.101374,-3.303142,-8.667393,-2.794872,-0.510247,1.537986,33.577523,17.493210,-26.167294,4635727814052544500.000000,0.334404,-0.670555,-0.063107,0.659202,-9.668748,2.330556,-2.065034,-0.244213,0.225067,0.757814,34.030715,-7.242516,31.054091,4635729425202151400.000000,0.492545,0.018239,0.861705,0.120547,0
-11.617405,-1.132485,2.863844,-0.638438,0.169892,0.092238,38.934568,-19.733886,-15.937973,4635732324305076200.000000,0.549090,-0.439856,0.351387,0.617701,-4.511205,-2.431529,-7.524784,-2.154971,-0.484383,1.955247,33.718320,17.457235,-25.982240,4635727814052544500.000000,0.322968,-0.672720,-0.064256,0.662579,-9.873704,2.513177,-2.406823,-0.215234,0.219418,0.700273,33.712859,-7.441395,31.163952,4635729425202151400.000000,0.491426,0.020061,0.861998,0.122704,0
-12.198164,-1.567683,2.959668,-0.591364,0.142203,0.069699,39.149143,-19.653348,-16.036535,4635732324305076200.000000,0.547647,-0.441456,0.350347,0.618431,-4.533829,-1.578826,-6.642783,-1.707372,-0.443395,2.361246,34.050677,17.259805,-26.121075,4635727838390176800.000000,0.311627,-0.674407,-0.062970,0.666407,-9.985656,2.537115,-2.748630,-0.211670,0.206199,0.641790,33.540347,-7.645347,31.267209,4635729425202151400.000000,0.490381,0.021688,0.862264,0.124727,0
-12.542488,-1.786851,3.029264,-0.542093,0.112458,0.059816,39.137261,-19.496138,-16.144585,4635732324305076200.000000,0.546392,-0.442861,0.349368,0.619090,-4.813727,-1.558548,-6.246947,-1.330309,-0.415868,2.744291,34.353732,16.891515,-26.064616,4635727921426726900.000000,0.300242,-0.675677,-0.059519,0.670651,-9.992265,2.600643,-3.163115,-0.233291,0.189824,0.588563,33.631861,-7.877273,31.311989,4635729483334177800.000000,0.489421,0.023087,0.862483,0.126717,0
-12.592909,-1.832367,3.062801,-0.477613,0.047328,0.061333,38.990448,-19.519294,-16.223639,4635732324305076200.000000,0.545249,-0.444001,0.348340,0.619860,-5.338356,-2.601998,-6.113810,-0.955214,-0.380210,3.111041,34.566124,16.335695,-25.923471,4635727921426726900.000000,0.288843,-0.676554,-0.053937,0.675230,-9.978036,2.713076,-3.652427,-0.289849,0.164903,0.534978,33.625330,-8.115825,31.265725,4635729532576333800.000000,0.488581,0.024190,0.862621,0.128799,0
-12.354613,-1.692273,3.212921,-0.408190,0.014541,0.083540,38.996827,-19.672505,-16.216348,4635732324305076200.000000,0.544308,-0.444816,0.347519,0.620562,-5.490092,-3.727447,-5.890366,-0.629770,-0.298984,3.428548,34.920127,15.552346,-26.006154,4635727921426726900.000000,0.277427,-0.677206,-0.046441,0.679904,-9.934805,2.627703,-4.073617,-0.374538,0.135485,0.488688,33.432579,-8.359971,31.279411,4635729532576333800.000000,0.487877,0.024970,0.862652,0.131087,0
-12.049963,-1.630317,3.388183,-0.339153,0.051610,0.129794,39.075897,-19.745191,-16.125980,4635732324305076200.000000,0.543338,-0.445493,0.347057,0.621185,-5.376322,-3.878482,-5.567726,-0.406155,-0.149856,3.699629,35.276874,14.542887,-26.010283,4635727921426726900.000000,0.265840,-0.677925,-0.037367,0.684362,-10.064386,2.427819,-4.242577,-0.458695,0.103846,0.458912,33.332817,-8.597482,31.383665,4635729474457191400.000000,0.487308,0.025489,0.862571,0.133613,0
-11.905314,-1.540679,3.314946,-0.276028,0.080573,0.180311,39.069519,-19.659748,-16.133270,4635732324305076200.000000,0.542312,-0.446028,0.346917,0.621776,-5.329571,-3.358628,-5.576948,-0.364604,0.068149,3.922910,35.695619,13.289683,-25.758993,4635727921426726900.000000,0.253697,-0.679083,-0.027297,0.688286,-10.345141,2.231504,-4.102824,-0.525858,0.070735,0.435904,33.384666,-8.829410,31.434063,4635729425202151400.000000,0.486876,0.025806,0.862381,0.136330,0
-11.763197,-1.249526,3.246258,-0.225156,0.060853,0.234307,38.990448,-19.580675,-16.223639,4635732324305076200.000000,0.541165,-0.446376,0.346890,0.622541,-5.473065,-2.852845,-5.828692,-0.468777,0.333163,4.096045,36.277182,12.320258,-25.530058,4635727921426726900.000000,0.240720,-0.680943,-0.016753,0.691441,-10.480559,2.030585,-3.847475,-0.552722,0.045716,0.417607,33.337981,-9.067957,31.334959,4635729425202151400.000000,0.486542,0.026017,0.862120,0.139102,0
-11.376242,-0.988271,3.226774,-0.180106,0.078160,0.281732,38.990448,-19.580675,-16.223639,4635732324305076200.000000,0.539952,-0.446597,0.347106,0.623314,-5.870098,-2.695524,-6.245313,-0.639542,0.620227,4.208779,36.785474,11.300952,-25.556326,4635727921426726900.000000,0.226877,-0.683600,-0.006092,0.693672,-10.539015,1.881515,-3.530651,-0.520437,0.021776,0.397941,33.100001,-9.391388,31.257560,4635729425202151400.000000,0.486299,0.026235,0.861825,0.141716,0
-11.046261,-0.831013,3.100532,-0.145925,0.135827,0.321572,38.984080,-19.587043,-16.216361,4635732324305076200.000000,0.538615,-0.446832,0.347614,0.624018,-6.406322,-2.865019,-6.670515,-0.815128,0.905040,4.270995,37.253726,9.923574,-25.358498,4635727897124830200.000000,0.212284,-0.687025,0.004506,0.694918,-10.517749,1.850931,-3.350429,-0.474985,-0.005907,0.382623,32.959988,-9.742384,31.216912,4635729425202151400.000000,0.486156,0.026504,0.861496,0.144132,0
-10.865880,-0.845950,2.771842,-0.112779,0.166326,0.365207,38.893169,-19.677953,-16.125071,4635732324305076200.000000,0.537181,-0.447008,0.348357,0.624714,-6.764246,-3.338073,-6.969009,-0.926195,1.184645,4.311022,37.814543,8.678453,-24.899256,4635727814052544500.000000,0.197176,-0.691118,0.015139,0.695160,-10.336228,1.847914,-3.437314,-0.463350,-0.030875,0.375724,33.045869,-9.927633,31.124859,4635729425202151400.000000,0.486102,0.026787,0.861120,0.146489,0
-10.711206,-0.884773,2.473555,-0.093042,0.191211,0.404874,38.740842,-19.843016,-16.112862,4635732324305076200.000000,0.535642,-0.447145,0.349279,0.625422,-7.151805,-3.995611,-7.261519,-1.008981,1.466305,4.334761,38.481524,7.433414,-24.308272,4635727814052544500.000000,0.181669,-0.695840,0.025822,0.694360,-10.209990,1.758459,-3.568569,-0.485852,-0.053216,0.377407,33.164918,-10.047101,31.080050,4635729425202151400.000000,0.486128,0.027044,0.860679,0.148926,0
-10.457605,-0.805689,2.407076,-0.081497,0.219730,0.419509,38.679411,-20.080778,-16.093391,4635732324305076200.000000,0.534043,-0.447308,0.350321,0.626090,-7.784683,-4.470671,-7.430384,-1.094761,1.762734,4.351838,39.053223,6.226948,-23.786130,4635727814052544500.000000,0.165759,-0.701213,0.036518,0.692453,-10.239409,1.643997,-3.672827,-0.536123,-0.075156,0.394041,33.164513,-10.205789,31.132881,4635729425202151400.000000,0.486225,0.027272,0.860155,0.151573,0
-10.228826,-0.798433,2.283691,-0.087991,0.244533,0.430427,38.758507,-20.234015,-15.984443,4635732332282106900.000000,0.532366,-0.447531,0.351419,0.626743,-8.580829,-4.474598,-7.417329,-1.252281,2.073973,4.340396,39.528513,5.152825,-23.210009,4635727814052544500.000000,0.149304,-0.707305,0.046923,0.689366,-10.483357,1.453882,-3.544951,-0.594520,-0.094697,0.419274,33.091269,-10.443733,31.131480,4635729425202151400.000000,0.486378,0.027485,0.859545,0.154478,0
-9.876989,-0.694405,2.292267,-0.122176,0.277394,0.443917,38.746699,-20.313120,-15.879507,4635732431679258600.000000,0.530538,-0.447895,0.352525,0.627412,-9.267827,-4.601903,-7.250786,-1.518297,2.375573,4.314691,40.145930,4.075915,-22.435911,4635727789789303800.000000,0.132014,-0.714123,0.056651,0.685122,-10.762714,1.125908,-3.248388,-0.620681,-0.107164,0.455221,33.057648,-10.715882,30.940383,4635729425202151400.000000,0.486552,0.027780,0.858880,0.157546,0
-9.405449,-0.528551,2.240209,-0.156038,0.375115,0.452303,38.594360,-20.318568,-15.677836,4635732431679258600.000000,0.528479,-0.448574,0.353772,0.627963,-9.595492,-5.213034,-7.055406,-1.804289,2.659146,4.270239,40.826785,2.992214,-21.749950,4635727706678362100.000000,0.113869,-0.721579,0.065556,0.679750,-10.958009,0.833346,-3.111892,-0.628016,-0.118019,0.496121,33.143470,-10.907188,30.811485,4635729425202151400.000000,0.486733,0.028214,0.858175,0.160720,0
-8.990489,-0.580085,1.975292,-0.184434,0.489495,0.456810,38.539240,-20.398133,-15.396222,4635732431679258600.000000,0.526183,-0.449604,0.355201,0.628347,-10.133422,-5.734415,-6.658142,-2.112703,2.920625,4.200976,41.462317,1.934541,-20.987897,4635727706678362100.000000,0.101440,-0.728821,0.080596,0.672335,-11.060902,0.752247,-2.975260,-0.645541,-0.122172,0.535150,33.176738,-11.106477,30.811485,4635729425202151400.000000,0.486900,0.028754,0.857435,0.164034,0
-8.576343,-0.665537,1.473007,-0.194048,0.564146,0.436395,38.709237,-20.551397,-15.132215,4635732431679258600.000000,0.523806,-0.450877,0.356728,0.628556,-10.910311,-6.520778,-6.561670,-2.384179,3.160901,4.086728,41.939138,0.933627,-19.706239,4635727706678362100.000000,0.081945,-0.737141,0.087767,0.664985,-10.940110,0.749266,-2.756535,-0.665083,-0.115503,0.587374,33.110098,-11.469414,30.818086,4635729425202151400.000000,0.487004,0.029435,0.856678,0.167522,0
-8.176218,-0.752799,1.260518,-0.203423,0.623169,0.399720,38.849827,-20.625081,-15.243452,4635732431679258600.000000,0.521416,-0.452375,0.358286,0.628581,-11.942825,-7.951036,-6.485287,-2.432962,3.387002,3.942698,42.328995,-0.119764,-18.424461,4635727706678362100.000000,0.062566,-0.745738,0.094392,0.656544,-10.867569,0.640039,-2.483004,-0.662538,-0.100114,0.652128,33.082062,-11.893697,30.671885,4635729425202151400.000000,0.487001,0.030340,0.855934,0.171133,0
-7.810037,-0.860845,1.133034,-0.209120,0.672140,0.345804,38.752636,-20.562690,-15.481709,4635732431679258600.000000,0.519077,-0.454090,0.359830,0.628398,-13.022165,-9.660406,-6.386822,-2.314328,3.565823,3.774419,42.858232,-1.300301,-17.142719,4635727706678362100.000000,0.043698,-0.754468,0.100574,0.647111,-10.940813,0.389934,-2.080804,-0.628295,-0.072889,0.715465,33.088662,-12.284330,30.496722,4635729425202151400.000000,0.486844,0.031519,0.855249,0.174752,0
-7.440199,-0.947201,0.957601,-0.204966,0.721986,0.298094,38.539220,-20.648590,-15.181501,4635732431679258600.000000,0.516790,-0.455992,0.361398,0.628005,-13.985685,-10.210247,-5.187937,-1.979358,3.619753,3.663651,43.446890,-2.281926,-15.905149,4635727706678362100.000000,0.026137,-0.762921,0.107265,0.636995,-10.908468,0.217753,-1.735757,-0.580725,-0.042668,0.791932,33.015084,-12.721112,30.417878,4635729425202151400.000000,0.486509,0.033042,0.854637,0.178359,0
-7.020632,-1.021361,1.023614,-0.189577,0.807200,0.240534,38.721870,-20.891832,-14.805328,4635732431679258600.000000,0.514549,-0.458165,0.363076,0.627296,-14.762633,-8.616944,-3.022427,-1.397043,3.515941,3.562076,43.970653,-3.252592,-14.796646,4635727706678362100.000000,0.011147,-0.770626,0.115623,0.626612,-10.990942,0.195318,-1.471828,-0.559219,-0.018939,0.882806,32.868604,-13.157585,30.437011,4635729425202151400.000000,0.486012,0.034914,0.854062,0.182075,0
-6.556328,-0.789921,0.992885,-0.182653,0.887938,0.171033,39.009021,-21.101185,-14.624469,4635732431679258600.000000,0.512338,-0.460654,0.364781,0.626293,-15.482850,-7.632804,-1.417865,-0.698137,3.333962,3.456978,44.184103,-4.434306,-13.612560,4635727706678362100.000000,-0.001466,-0.777569,0.125153,0.616215,-11.220905,0.116141,-1.250441,-0.577607,0.004820,0.977554,32.761703,-13.553832,30.435699,4635729425202151400.000000,0.485351,0.037065,0.853491,0.186049,0
-6.237130,-0.405175,0.872190,-0.184390,0.949417,0.099588,38.777506,-21.027039,-14.618152,4635732439616675800.000000,0.510244,-0.463387,0.366496,0.624983,-16.103872,-7.844670,0.427929,0.363639,3.076324,3.403139,44.211269,-5.730110,-12.428552,4635727706678362100.000000,-0.010373,-0.783578,0.137193,0.605869,-11.256887,-0.003949,-1.191703,-0.616490,0.038449,1.096108,32.688464,-13.944443,30.350253,4635729425202151400.000000,0.484473,0.039532,0.852919,0.190402,0
-5.905251,0.055995,0.622153,-0.207574,0.999433,0.016431,38.745767,-20.953318,-14.503828,4635732539053441000.000000,0.508237,-0.466419,0.368089,0.623425,-16.246938,-10.321803,1.028845,1.132946,2.904568,3.290788,44.283694,-7.174900,-11.288499,4635727706678362100.000000,-0.016581,-0.789008,0.150515,0.595430,-11.450473,-0.431436,-1.083196,-0.654510,0.077391,1.239172,32.489887,-14.427411,30.271402,4635729425202151400.000000,0.483335,0.042398,0.852346,0.195181,0
-5.705858,0.478699,0.485501,-0.229084,0.975795,-0.062453,39.215988,-21.014843,-14.035002,4635732539053441000.000000,0.506495,-0.469503,0.369474,0.621706,-15.818211,-17.599876,-0.062631,1.399946,2.776464,2.952094,44.476254,-8.544189,-10.233636,4635727706678362100.000000,-0.020987,-0.794084,0.163347,0.585070,-11.869163,-1.198835,-0.917222,-0.673192,0.110650,1.391685,32.184701,-14.982356,30.198158,4635729425202151400.000000,0.481941,0.045736,0.851767,0.200334,0
-5.590220,0.852076,0.787441,-0.279675,0.898256,-0.112021,39.436723,-20.917708,-13.657515,4635732539053441000.000000,0.504914,-0.472549,0.370476,0.620086,-15.385037,-34.287701,-6.002090,0.578432,3.255589,2.180058,44.618057,-9.385338,-8.935462,4635727706678362100.000000,-0.026549,-0.800548,0.171532,0.573580,-12.180624,-1.706672,-0.906301,-0.680178,0.146991,1.560899,31.925709,-15.492078,30.124919,4635729425202151400.000000,0.480257,0.049628,0.851185,0.205851,0
-5.243919,1.308758,1.206087,-0.332385,0.841712,-0.153993,39.380569,-20.690650,-13.311982,4635732539053441000.000000,0.503321,-0.475675,0.371063,0.618639,-16.774164,-44.657697,-0.419759,2.510646,2.669033,2.115205,44.604294,-10.048367,-7.707061,4635727706678362100.000000,-0.024325,-0.805387,0.185224,0.562541,-12.589639,-1.970592,-0.834447,-0.685346,0.190291,1.737943,31.699392,-16.053878,29.998917,4635729425202151400.000000,0.478242,0.054095,0.850602,0.211739,0
-4.829445,1.627345,1.664528,-0.358510,0.814918,-0.198032,39.551819,-20.679340,-13.212171,4635732539053441000.000000,0.501824,-0.478847,0.371433,0.617184,-19.742350,-25.222481,24.719966,5.250051,0.706162,2.125258,44.546013,-11.011885,-6.891583,4635727755095950300.000000,-0.012003,-0.805705,0.204672,0.555701,-13.244495,-2.198601,-0.731461,-0.712788,0.234085,1.923593,31.520213,-16.728233,29.926940,4635729425202151400.000000,0.475883,0.059122,0.849985,0.218093,0
-4.295743,1.296286,2.032715,-0.489086,0.813064,-0.218013,39.863456,-20.666768,-12.917930,4635732539053441000.000000,0.500201,-0.482257,0.371487,0.615812,-17.070707,-12.377100,16.532187,4.428649,1.836169,1.738937,44.491687,-12.023961,-5.873972,4635727921426726900.000000,-0.002509,-0.808505,0.220769,0.545504,-14.068231,-2.441050,-0.654293,-0.804704,0.271529,2.111550,31.293619,-17.396651,29.945742,4635729425202151400.000000,0.473206,0.064592,0.849245,0.225139,0
-4.155737,0.363332,2.194498,-0.495540,0.797464,-0.234035,39.948011,-20.495866,-12.467519,4635732531154679800.000000,0.498643,-0.485645,0.371471,0.614421,-8.453683,-22.695993,1.241494,4.617218,2.394103,1.170042,44.434948,-12.706539,-4.484568,4635727921426726900.000000,0.008392,-0.812703,0.235277,0.532999,-14.939541,-2.826324,-0.558600,-0.952982,0.300110,2.286779,30.869763,-18.117120,29.970155,4635729425202151400.000000,0.470258,0.070356,0.848292,0.233042,0
-4.596289,-0.125302,3.293326,-0.415631,0.727169,-0.247543,40.022154,-20.325861,-12.201118,4635732431679258600.000000,0.497273,-0.488767,0.371394,0.613101,-17.135143,-31.440778,18.345328,4.560464,0.503903,0.336651,44.454204,-13.076019,-3.447480,4635727921426726900.000000,0.022621,-0.813242,0.246410,0.526696,-15.820434,-3.066018,-0.524918,-1.129593,0.318246,2.451999,30.423969,-18.910601,29.948414,4635729425202151400.000000,0.467082,0.076329,0.847057,0.241874,0
-5.474092,-0.092010,4.075966,-0.254423,0.582164,-0.230328,40.101318,-20.160904,-12.122848,4635732431679258600.000000,0.496407,-0.491152,0.371460,0.611856,-23.064247,-27.981495,31.346680,3.042288,-0.187379,-0.187459,44.536899,-13.189162,-2.959026,4635727921426726900.000000,0.033745,-0.812637,0.252598,0.524096,-16.868768,-2.943428,-0.393060,-1.294008,0.317303,2.601741,29.999414,-19.789739,29.781894,4635729367211847700.000000,0.463748,0.082498,0.845492,0.251547,0
-5.875178,-1.222562,4.770602,-0.055949,0.482645,-0.223337,40.107603,-19.940077,-12.119794,4635732431679258600.000000,0.496080,-0.492859,0.371838,0.610517,-18.278806,-12.067278,34.469910,0.887632,-0.782018,-1.018522,44.648637,-13.065214,-2.917691,4635727897240798200.000000,0.039836,-0.811908,0.250893,0.525615,-17.921953,-2.852871,-0.155517,-1.232766,0.324589,2.730701,29.370752,-20.748456,29.479407,4635729317827969000.000000,0.460162,0.089216,0.843834,0.261220,0
-6.303648,-2.883537,6.048188,0.123354,0.406168,-0.190637,40.193037,-20.025836,-11.931680,4635732431679258600.000000,0.496154,-0.493948,0.372579,0.609124,-19.264384,14.055720,36.500294,-1.751303,-1.472835,-1.013292,44.873533,-12.808866,-3.491204,4635727814052544500.000000,0.037714,-0.810036,0.243299,0.532189,-18.537947,-2.920506,-0.088388,-0.854283,0.385588,2.846880,28.641194,-21.706311,29.295811,4635729317827969000.000000,0.456023,0.096983,0.842532,0.269773,0
-7.452535,-4.274948,7.280002,0.447446,0.287218,-0.084448,40.272224,-20.269986,-11.833124,4635732431679258600.000000,0.496892,-0.493847,0.374181,0.607620,-19.461088,30.331673,17.071899,-3.186477,-0.495583,0.123021,44.941523,-12.552535,-4.250668,4635727814052544500.000000,0.027226,-0.809292,0.236462,0.537020,-18.656574,-2.505926,-0.194588,-0.536037,0.462359,2.911643,28.004753,-22.658417,29.444749,4635729317827969000.000000,0.451343,0.105478,0.841579,0.277324,0
-9.750921,-6.047252,10.315730,0.920688,-0.094571,0.174477,40.272224,-20.496229,-11.724143,4635732439564187600.000000,0.498558,-0.491378,0.376736,0.606678,-23.769075,31.533305,-10.674070,-2.145995,-0.014415,-0.008446,44.694628,-12.298927,-4.600081,4635727814052544500.000000,0.020063,-0.809534,0.231527,0.539117,-18.206687,-1.979091,-0.539760,-0.379058,0.485581,2.894771,27.359545,-23.491855,29.557792,4635729317827969000.000000,0.446464,0.114163,0.840732,0.284265,0
-12.717287,-8.890893,11.086400,1.484776,-0.428985,0.599184,40.260590,-20.514129,-11.611281,4635732539053441000.000000,0.500813,-0.486209,0.380877,0.606399,-31.166034,7.711437,-6.356412,-1.102489,-0.700532,-1.496901,44.512471,-11.977844,-4.826837,4635727838222687200.000000,0.020416,-0.809528,0.223825,0.542355,-17.155107,-2.152147,-1.334967,-0.032339,0.461057,2.920783,26.617537,-24.132065,29.496751,4635729317827969000.000000,0.441408,0.123593,0.840112,0.289991,0
-15.835806,-13.156718,12.802498,1.803890,0.077556,1.182203,40.091182,-20.794001,-11.305233,4635732539053441000.000000,0.501304,-0.480762,0.387956,0.605848,-28.382126,-3.554086,0.230405,-0.606277,-0.286179,-1.431022,44.621418,-11.411171,-5.100560,4635727921426726900.000000,0.021907,-0.810310,0.217489,0.543707,-16.473177,-2.042371,-2.775526,0.510812,0.453576,3.017827,25.928591,-24.654020,29.745480,4635729317827969000.000000,0.435913,0.134351,0.839955,0.293948,0
-18.563425,-15.285798,10.299235,1.733682,0.577177,1.741904,39.779706,-21.531883,-10.986916,4635732531182340100.000000,0.499386,-0.475772,0.396985,0.605522,-18.822211,3.273040,-0.260616,-0.316280,0.109779,-1.187244,44.853359,-10.946375,-5.239417,4635727921426726900.000000,0.023468,-0.811712,0.212662,0.543459,-16.453847,-0.837302,-4.088794,0.967727,0.413585,3.002823,25.278752,-25.056600,30.198830,4635729317827969000.000000,0.430247,0.145911,0.840152,0.296213,0
-17.128804,-8.609806,4.548292,1.713827,0.098244,1.835039,39.406998,-22.332047,-10.650248,4635732431679258600.000000,0.497932,-0.469409,0.405109,0.606305,-9.032797,-3.692968,-0.791521,-0.377460,0.138459,-0.881656,45.049590,-10.645774,-5.119788,4635727921426726900.000000,0.024694,-0.812670,0.209608,0.543160,-16.122228,1.580678,-4.102583,1.250263,0.300136,2.843559,24.581959,-25.346664,30.397405,4635729317827969000.000000,0.424930,0.157536,0.840450,0.297088,0
-13.120803,2.560812,4.610217,1.434229,-0.179773,1.656919,39.254239,-23.040445,-10.231879,4635732431679258600.000000,0.496893,-0.463117,0.411632,0.607602,1.729475,-7.126680,-5.929141,0.020158,0.100807,-0.673012,45.122834,-10.465102,-4.971160,4635727897267858400.000000,0.026262,-0.813531,0.207310,0.542679,-14.294193,5.527402,-3.733526,1.316787,0.144228,2.645965,23.966215,-25.596414,30.626063,4635729317827969000.000000,0.420292,0.168754,0.840551,0.297237,0
-10.977114,9.570355,4.145435,1.230165,0.243719,1.245581,39.016048,-23.443282,-9.932952,4635732431679258600.000000,0.495749,-0.458985,0.417697,0.607531,1.684164,-6.466440,-4.273057,1.048514,0.001607,-1.006267,45.176848,-10.153615,-5.002632,4635727814052544500.000000,0.032157,-0.814323,0.206194,0.541597,-11.194841,8.217694,-3.605645,1.137651,-0.025259,2.413206,23.514761,-25.801022,31.028885,4635729317827969000.000000,0.416606,0.179031,0.840185,0.297451,0
-9.447531,12.570009,2.932503,1.078109,0.162482,0.584184,38.710303,-23.840693,-9.735535,4635732431679258600.000000,0.496011,-0.456163,0.421852,0.606571,-6.730064,-2.146889,-3.534026,1.171261,-0.058652,-0.898715,45.200420,-9.691610,-5.059014,4635727814052544500.000000,0.038271,-0.814841,0.205700,0.540607,-8.273572,7.830597,-3.331272,0.870563,-0.176987,2.152171,23.129744,-26.011452,31.273622,4635729433719412700.000000,0.413929,0.188100,0.839329,0.298007,0
-7.142271,11.201414,4.128566,0.914610,-0.006555,0.044069,38.569422,-24.157823,-9.793376,4635732431679258600.000000,0.497615,-0.454191,0.424210,0.605092,-8.099520,-0.257568,-4.382098,0.678367,-0.130329,-0.762944,45.330386,-9.378555,-4.970821,4635727814052544500.000000,0.042467,-0.815136,0.204539,0.540290,-6.307673,7.176200,-3.035596,0.467741,-0.362439,1.879371,22.778655,-26.169952,31.278088,4635729532576333800.000000,0.412522,0.195736,0.837801,0.299335,0
-5.742129,8.025520,5.086034,0.846583,0.441605,-0.267145,38.661108,-24.292471,-9.473683,4635732431679258600.000000,0.499159,-0.453974,0.426793,0.602160,-9.244483,0.322438,-5.615073,0.449833,-0.188449,-0.730650,45.367879,-9.086477,-4.919916,4635727814052544500.000000,0.045864,-0.815299,0.202962,0.540361,-4.639771,5.099630,-3.213922,0.015136,-0.530828,1.510570,22.553498,-26.294908,31.245330,4635729532576333800.000000,0.412510,0.201507,0.835675,0.301458,0
-7.720077,5.781872,4.935192,0.798798,0.789186,-0.481380,38.837326,-24.121588,-8.828784,4635732431679258600.000000,0.500436,-0.455158,0.429501,0.598267,-11.562284,-0.207315,-5.150494,0.389922,-0.282935,-0.663944,45.298924,-8.709921,-5.049031,4635727814052544500.000000,0.048967,-0.815201,0.201428,0.540811,-3.526520,2.296051,-4.066132,-0.366243,-0.657284,1.011832,22.486036,-26.493105,31.092914,4635729532576333800.000000,0.413871,0.205038,0.833242,0.303938,0
-10.473146,3.853489,3.758588,0.780851,0.441030,-0.602655,39.081477,-23.951572,-8.399582,4635732431679258600.000000,0.502693,-0.455647,0.431274,0.594716,-11.510462,-0.637989,-3.644604,0.369309,-0.314546,-0.593657,45.289467,-8.501519,-5.222351,4635727814052544500.000000,0.051869,-0.814967,0.200078,0.541394,-3.519860,1.696294,-2.918571,-0.844178,-0.850301,0.538802,22.479452,-26.810624,30.707777,4635729532576333800.000000,0.416897,0.206340,0.830251,0.307089,0
-11.056717,1.597953,4.132110,0.754892,0.024781,-0.645372,39.319415,-23.798202,-8.411792,4635732431679258600.000000,0.505741,-0.455230,0.432020,0.591904,-10.711834,-1.207102,-2.813974,0.383407,-0.321965,-0.510498,45.305963,-8.377579,-5.278768,4635727814052544500.000000,0.054637,-0.814635,0.199039,0.542003,-3.269958,0.969502,-1.165754,-1.170135,-1.016466,0.227653,22.559415,-27.201240,30.290005,4635729532576333800.000000,0.421160,0.206203,0.826792,0.310675,0
-10.752949,-0.863625,5.141092,0.767824,0.123013,-0.635645,39.484291,-23.701227,-8.409790,4635732423869758500.000000,0.508596,-0.455007,0.433010,0.588898,-10.023444,-1.430964,-2.213454,0.476000,-0.310642,-0.414728,45.381945,-8.143237,-5.234544,4635727814052544500.000000,0.057493,-0.814222,0.198535,0.542514,-2.300642,-0.573029,-1.313442,-1.301121,-1.138354,-0.059772,22.843197,-27.585294,29.858909,4635729532576333800.000000,0.426308,0.204993,0.823157,0.314088,0
-11.466692,-2.486248,5.138836,0.810808,0.305631,-0.653225,39.716906,-23.462389,-8.220436,4635732324305076200.000000,0.511234,-0.455165,0.434450,0.585421,-9.684136,-0.949426,-1.872618,0.531724,-0.287278,-0.357509,45.464643,-8.036744,-5.288246,4635727814052544500.000000,0.060389,-0.813792,0.198356,0.542909,-0.951905,-1.847053,-1.125094,-1.450339,-1.266585,-0.442704,23.187730,-27.924202,29.277528,4635729532576333800.000000,0.432498,0.202358,0.819377,0.317204,0
-13.006872,-3.880176,4.776649,0.873104,0.346663,-0.690528,39.790808,-23.291504,-7.936812,4635732324305076200.000000,0.513994,-0.455349,0.436048,0.581661,-10.146825,-0.382979,-2.014513,0.529934,-0.276224,-0.334330,45.485695,-8.057796,-5.234538,4635727814052544500.000000,0.063218,-0.813362,0.198253,0.543269,0.610657,-2.234664,-0.337601,-1.570410,-1.381286,-0.830726,23.578494,-28.229389,28.553452,4635729532576333800.000000,0.439659,0.198316,0.815493,0.319909,0
-14.197653,-4.434841,4.144306,0.966324,0.321493,-0.721563,39.729103,-23.126816,-7.468713,4635732324305076200.000000,0.516954,-0.455380,0.437683,0.577772,-10.891169,0.308882,-1.630563,0.490141,-0.279129,-0.326155,45.324239,-7.860618,-5.356935,4635727814052544500.000000,0.065894,-0.812923,0.198086,0.543670,1.929631,-1.921941,0.282220,-1.645902,-1.495085,-1.156706,24.167441,-28.442414,27.876551,4635729532576333800.000000,0.447660,0.193160,0.811488,0.322146,0
-14.482647,-3.763448,3.398993,1.047386,0.244840,-0.681441,39.831421,-23.035150,-7.108708,4635732324305076200.000000,0.520097,-0.454967,0.439412,0.573952,-11.084016,0.397954,-1.502434,0.445444,-0.238010,-0.289842,45.227515,-7.602465,-5.536974,4635727814052544500.000000,0.068303,-0.812553,0.197951,0.543974,2.625755,-1.658193,0.882110,-1.640797,-1.586904,-1.443250,24.902668,-28.491124,27.331109,4635729532576333800.000000,0.456298,0.187145,0.807451,0.323716,0
-13.982075,-2.487334,2.804442,1.098867,0.129010,-0.597060,40.125736,-22.870471,-6.835059,4635732332100753400.000000,0.523426,-0.453926,0.441234,0.570340,-10.845051,-0.358599,-2.177497,0.414014,-0.210078,-0.242228,45.405438,-7.593005,-5.603198,4635727814052544500.000000,0.070475,-0.812211,0.197913,0.544222,2.750381,-1.398014,1.194520,-1.526115,-1.661843,-1.715788,25.757299,-28.427222,26.725299,4635729532576333800.000000,0.465405,0.180509,0.803529,0.324278,0
-12.656000,-1.428644,2.291447,1.139146,-0.004395,-0.571184,40.120419,-22.779701,-6.651949,4635732431679258600.000000,0.526998,-0.452422,0.442896,0.566948,-10.131266,-0.964063,-2.382567,0.392945,-0.175845,-0.157155,45.613873,-7.573782,-5.603198,4635727814052544500.000000,0.074109,-0.811236,0.200743,0.544157,2.616951,-1.296850,1.291224,-1.298268,-1.730687,-1.978132,26.599497,-28.283495,25.983415,4635729532576333800.000000,0.474858,0.173503,0.799860,0.323466,0
-10.795916,-0.286948,2.262974,1.175149,-0.095203,-0.597900,40.069302,-22.608636,-6.476822,4635732431679258600.000000,0.530763,-0.450731,0.444309,0.563669,-9.329986,-1.290289,-2.526093,0.384004,-0.161986,-0.080660,45.641690,-7.491090,-5.581247,4635727862321317900.000000,0.075786,-0.810865,0.201217,0.544303,2.421656,-1.205592,1.238490,-0.928149,-1.752906,-2.220556,27.282934,-28.146464,25.300931,4635729532576333800.000000,0.484371,0.166424,0.796698,0.320874,0
-9.406948,0.444248,2.463947,1.207038,-0.008606,-0.637251,40.308319,-22.290539,-6.389423,4635732431679258600.000000,0.534503,-0.449231,0.445900,0.560063,-8.645698,-1.466960,-2.308991,0.360720,-0.151016,-0.019212,45.473530,-7.469979,-5.527490,4635728028800909300.000000,0.077222,-0.810478,0.201828,0.544451,2.075030,-0.835503,0.962331,-0.460465,-1.741157,-2.434076,28.011694,-27.792226,24.696223,4635729532576333800.000000,0.493725,0.159533,0.794207,0.316258,0
-8.878316,0.818779,2.261581,1.236943,0.072248,-0.659202,40.620213,-22.138207,-6.112053,4635732431679258600.000000,0.538335,-0.447758,0.447807,0.556037,-8.306801,-1.714804,-2.474407,0.328411,-0.125992,0.030486,45.350502,-7.612212,-5.625149,4635728028800909300.000000,0.078415,-0.810114,0.202541,0.544557,1.381832,-0.491947,0.714532,0.089026,-1.746678,-2.630941,28.894431,-27.225057,24.296384,4635729532576333800.000000,0.502915,0.153119,0.792422,0.309351,0
-8.942191,0.814178,1.994230,1.267397,0.066519,-0.659713,40.699482,-22.193587,-5.730223,4635732431679258600.000000,0.542183,-0.446212,0.449731,0.551973,-8.438340,-1.687198,-2.612664,0.293584,-0.108446,0.069635,45.353246,-7.697664,-5.722808,4635727980532135900.000000,0.079387,-0.809767,0.203313,0.544645,0.377968,0.201409,0.936437,0.588064,-1.731860,-2.810942,29.947120,-26.485939,24.063508,4635729416853402600.000000,0.511872,0.147101,0.791280,0.300375,0
-9.195867,0.585636,2.049077,1.305319,0.055993,-0.639343,40.705666,-21.864024,-5.468757,4635732431679258600.000000,0.545936,-0.444600,0.451642,0.548000,-8.568645,-1.249411,-2.728018,0.285832,-0.097417,0.103096,45.343503,-7.783115,-5.820467,4635727814052544500.000000,0.080247,-0.809417,0.204184,0.544713,-1.022366,2.280267,1.157805,0.884592,-1.685270,-2.932018,31.014737,-25.548742,23.766730,4635729317827969000.000000,0.520537,0.141226,0.790519,0.290132,0
-9.401467,0.222634,2.027312,1.350335,0.048299,-0.617903,40.784935,-21.557390,-5.296971,4635732431679258600.000000,0.549717,-0.442810,0.453663,0.543985,-8.702645,-1.240348,-2.823887,0.304363,-0.089352,0.131431,45.296464,-7.885026,-5.937329,4635727814052544500.000000,0.081097,-0.809054,0.205195,0.544747,-2.453266,4.493933,1.668130,1.147899,-1.588278,-3.020104,31.924587,-24.585315,23.536756,4635729317827969000.000000,0.528720,0.135489,0.790162,0.278822,0
-9.417060,-0.442065,2.030699,1.398254,0.048493,-0.596709,40.796400,-21.534602,-5.120936,4635732431679258600.000000,0.553518,-0.440855,0.455813,0.539907,-8.748728,-0.972079,-2.735163,0.320661,-0.082464,0.148496,45.346255,-8.008057,-6.057348,4635727814052544500.000000,0.081958,-0.808685,0.206302,0.544749,-5.263556,7.288945,1.939937,1.874588,-1.472454,-2.923033,32.727335,-23.541176,23.501144,4635729317827969000.000000,0.535871,0.131506,0.790662,0.265334,0
-9.307938,-1.458385,1.931415,1.457684,0.008806,-0.593451,40.966557,-21.369735,-5.029312,4635732431679258600.000000,0.557472,-0.438648,0.457993,0.535774,-8.760670,-0.802683,-2.548869,0.300839,-0.074159,0.155950,45.286725,-7.991604,-5.918560,4635727814052544500.000000,0.082728,-0.808333,0.207392,0.544741,-8.414269,13.517466,0.815587,2.905929,-1.449979,-2.457572,33.450327,-22.385276,23.549971,4635729317827969000.000000,0.541725,0.131305,0.791883,0.249429,0
-9.046329,-2.024025,1.968914,1.512847,-0.045191,-0.618412,41.279514,-21.142342,-4.850504,4635732431679258600.000000,0.561884,-0.436030,0.460287,0.531319,-8.755956,-0.666916,-2.608146,0.247133,-0.070280,0.158828,45.315632,-7.970444,-5.698116,4635727814052544500.000000,0.083306,-0.808004,0.208371,0.544767,-9.795176,22.035513,-0.676398,3.880235,-1.465251,-1.561776,34.127366,-21.148549,23.546192,4635729317827969000.000000,0.545995,0.136242,0.793341,0.232244,0
-8.749304,-2.316003,2.036230,1.576396,-0.082376,-0.662128,41.523542,-21.131016,-4.562693,4635732431679258600.000000,0.566430,-0.433345,0.462434,0.526805,-8.982409,-0.527659,-2.493795,0.211057,-0.078345,0.173084,45.450903,-8.131877,-5.710575,4635727814052544500.000000,0.084371,-0.807412,0.210252,0.544758,-11.346727,31.935543,-2.441870,4.624932,-1.455390,-0.531770,34.765852,-19.880004,23.707776,4635729202156573700.000000,0.548609,0.146228,0.794657,0.214861,0
-8.877515,-2.400271,2.323801,1.633770,-0.160897,-0.702081,41.602829,-21.113439,-4.191340,4635732431679258600.000000,0.571289,-0.430405,0.464425,0.522197,-9.178962,-0.537126,-2.218278,0.175091,-0.087391,0.191830,45.422013,-8.264412,-5.786309,4635727814052544500.000000,0.084561,-0.807071,0.211043,0.544928,-13.412397,44.333294,-4.788414,4.796621,-1.406906,0.436086,35.211821,-18.826527,24.108737,4635729103079604200.000000,0.549860,0.159717,0.795310,0.199062,0
-9.058693,-2.002736,2.365526,1.701670,-0.272802,-0.703282,41.608094,-20.863175,-3.925519,4635732431679258600.000000,0.576459,-0.427032,0.466272,0.517619,-9.334928,-0.537126,-1.947703,0.129681,-0.103872,0.212039,45.270282,-8.245228,-5.808234,4635727814052544500.000000,0.084652,-0.806657,0.211921,0.545186,-14.693118,51.977544,-6.262474,4.136149,-1.318658,1.337586,35.398662,-18.296053,24.468365,4635729103079604200.000000,0.550294,0.174557,0.794702,0.187498,0
-8.894730,-1.652949,2.194858,1.774745,-0.368406,-0.662371,41.688361,-20.544980,-3.844375,4635732431679258600.000000,0.581819,-0.423171,0.468089,0.513133,-9.448530,-0.542605,-1.958904,0.067689,-0.113354,0.245888,45.223190,-8.198136,-5.927800,4635727814052544500.000000,0.084466,-0.806212,0.212768,0.545543,-13.439244,43.094858,-7.160174,2.948675,-1.143151,1.457090,35.346058,-18.149587,24.492735,4635729103079604200.000000,0.550762,0.186891,0.793255,0.180219,0
-8.670676,-1.045157,2.514132,1.810058,-0.468113,-0.589653,41.852250,-20.380213,-3.654217,4635732431679258600.000000,0.587243,-0.418840,0.469838,0.508892,-9.385523,-0.627287,-2.049354,0.038563,-0.116298,0.288244,45.253854,-8.321940,-6.057371,4635727814052544500.000000,0.084088,-0.805733,0.213689,0.545949,-9.827899,25.052409,-9.308615,2.645884,-0.962894,0.985079,35.267189,-17.990895,24.402599,4635729103079604200.000000,0.551123,0.196803,0.792220,0.172972,0
-8.543373,-0.479421,3.001383,1.816991,-0.526060,-0.516504,41.914091,-20.283390,-3.401543,4635732431679258600.000000,0.592598,-0.414196,0.471556,0.504881,-9.060934,-0.890127,-2.004753,0.035009,-0.108081,0.325389,45.095162,-8.556376,-5.978888,4635727814052544500.000000,0.083607,-0.805239,0.214730,0.546344,-4.858546,10.803552,-10.219474,3.214796,-0.809245,0.818530,35.306627,-17.588051,24.599796,4635729103079604200.000000,0.550532,0.207327,0.791944,0.163565,0
-8.342798,-0.013788,3.294247,1.801649,-0.517204,-0.452885,41.840903,-20.045374,-3.517541,4635732431679258600.000000,0.597630,-0.409555,0.473254,0.501132,-8.631436,-1.013214,-2.008745,0.031785,-0.090643,0.359546,44.991239,-8.679463,-5.991324,4635727814052544500.000000,0.083021,-0.804753,0.215883,0.546694,-0.946696,2.322609,-7.942548,3.648117,-0.614692,0.932155,35.425874,-16.992747,25.071153,4635729103079604200.000000,0.548724,0.219053,0.792131,0.153121,0
-8.090881,0.474504,3.278592,1.766165,-0.487971,-0.426196,41.932486,-19.915586,-3.670813,4635732431679258600.000000,0.602450,-0.404986,0.474967,0.497439,-8.362880,-1.081656,-2.033609,0.018229,-0.077606,0.388884,45.060263,-8.736954,-6.045178,4635727814052544500.000000,0.082310,-0.804275,0.217107,0.547021,-0.385887,-1.373705,-5.026769,4.000355,-0.403607,1.006194,35.453122,-16.489407,25.481530,4635729103079604200.000000,0.545700,0.231643,0.792739,0.141837,0
-8.070879,0.946129,3.374491,1.712148,-0.424724,-0.441454,42.102495,-20.129972,-3.274973,4635732431679258600.000000,0.607209,-0.400538,0.476802,0.493485,-8.116239,-1.375860,-2.264475,0.013647,-0.072395,0.425178,45.034162,-8.990543,-5.969420,4635727814052544500.000000,0.081496,-0.803774,0.218443,0.547346,-2.781177,-5.070421,-2.408793,4.475751,-0.332519,1.120145,35.367670,-15.973897,25.703146,4635729045269674000.000000,0.541730,0.245568,0.793419,0.129274,0
-8.274069,1.196362,3.433742,1.637458,-0.347215,-0.461217,42.255946,-19.936329,-2.832956,4635732431679258600.000000,0.611641,-0.396505,0.478575,0.489535,-8.049275,-1.582959,-2.550079,0.074285,-0.070848,0.453536,44.949323,-9.218253,-6.010441,4635727862160919600.000000,0.080818,-0.803229,0.220012,0.547619,-3.838966,-6.039425,-0.714747,5.432356,-0.356268,1.312966,35.367651,-15.226546,26.084300,4635729226893605900.000000,0.536506,0.262188,0.794004,0.113914,0
-8.587125,1.336656,3.329159,1.579249,-0.307553,-0.486772,42.329152,-19.483015,-2.691751,4635732431679258600.000000,0.615921,-0.392729,0.480265,0.485541,-8.459792,-1.411801,-2.546961,0.131466,-0.067165,0.477607,45.101077,-9.386412,-6.152531,4635728028800909300.000000,0.080273,-0.802648,0.221792,0.547834,-2.064886,1.502664,-0.768142,5.890173,-0.254955,1.464844,35.440910,-14.325840,26.790570,4635729425202151400.000000,0.530058,0.280143,0.794397,0.097427,0
-8.989057,1.061064,3.454730,1.543394,-0.321516,-0.495541,42.255946,-19.494383,-2.764085,4635732431679258600.000000,0.620150,-0.389023,0.481802,0.481603,-9.266783,-0.646408,-2.391186,0.170203,-0.065653,0.497107,45.150986,-9.586130,-6.127922,4635728028800909300.000000,0.080534,-0.801739,0.224784,0.547906,-3.165504,8.110028,-1.208571,5.306521,-0.316731,1.489970,35.343189,-13.431695,27.476182,4635729425202151400.000000,0.524175,0.296769,0.793922,0.082800,0
-9.193903,0.531834,3.596800,1.529513,-0.336544,-0.477916,42.340513,-19.629487,-2.667309,4635732431679258600.000000,0.624318,-0.385271,0.483275,0.477743,-9.890906,-0.407032,-2.308300,0.174220,-0.075966,0.531394,45.058625,-9.889629,-6.042665,4635728028800909300.000000,0.079931,-0.801099,0.226709,0.548137,-5.036025,7.503452,-2.221941,4.620911,-0.421914,1.355786,35.145095,-12.741651,27.833839,4635729425202151400.000000,0.519288,0.311358,0.792779,0.069987,0
-9.047400,-0.041061,3.366586,1.543553,-0.353333,-0.439535,42.403273,-19.453321,-2.581849,4635732431679258600.000000,0.628433,-0.381356,0.484768,0.473962,-9.952857,-0.414683,-2.155059,0.170186,-0.082264,0.557350,44.899919,-10.038678,-6.086397,4635728028800909300.000000,0.079345,-0.800382,0.228834,0.548387,-5.153415,5.225607,-4.434273,3.869018,-0.456763,1.227380,35.058721,-12.192343,27.911757,4635729367378345000.000000,0.515346,0.323799,0.791235,0.059318,0
-8.913148,-0.416795,3.174797,1.559572,-0.378277,-0.403379,42.329172,-19.220558,-2.496415,4635732431679258600.000000,0.632432,-0.377352,0.486188,0.470380,-9.828238,-0.208630,-2.094558,0.160766,-0.092115,0.568763,44.779488,-10.133773,-6.278965,4635728028800909300.000000,0.078710,-0.799630,0.230970,0.548679,-5.886927,3.367112,-5.771314,3.227484,-0.564078,1.159507,35.086904,-11.603532,28.004744,4635729317827969000.000000,0.512512,0.334596,0.789196,0.050460,0
-8.948916,-0.423751,3.190498,1.573992,-0.382323,-0.385297,42.255936,-19.118508,-2.404842,4635732431679258600.000000,0.636396,-0.373247,0.487632,0.466800,-9.746629,-0.099111,-2.319921,0.135528,-0.101840,0.585823,44.769840,-10.304671,-6.421094,4635728028800909300.000000,0.077960,-0.798844,0.233101,0.549031,-6.255806,2.484686,-5.864247,2.781430,-0.651409,1.083673,35.291621,-11.184785,28.233861,4635729317827969000.000000,0.510506,0.344162,0.786833,0.042775,0
