Accelerometer-X,Accelerometer-Y,Accelerometer-Z,Gyroscope-X,Gyroscope-Y,Gyroscope-Z,Magnetometer-X,Magnetometer-Y,Magnetometer-Z,Barometer-pressure,Orientation-S,Orientation-X,Orientation-Y,Orientation-Z,Accelerometer-X,Accelerometer-Y,Accelerometer-Z,Gyroscope-X,Gyroscope-Y,Gyroscope-Z,Magnetometer-X,Magnetometer-Y,Magnetometer-Z,Barometer-pressure,Orientation-S,Orientation-X,Orientation-Y,Orientation-Z,Accelerometer-X,Accelerometer-Y,Accelerometer-Z,Gyroscope-X,Gyroscope-Y,Gyroscope-Z,Magnetometer-X,Magnetometer-Y,Magnetometer-Z,Barometer-pressure,Orientation-S,Orientation-X,Orientation-Y,Orientation-Z,jump
-8.268005,-0.947542,2.772258,-1.300188,0.232691,0.285092,43.312388,2.043600,10.070586,4635732324305076200.000000,0.768692,0.061092,0.629699,-0.094131,-9.821335,-0.160094,0.208457,-0.847080,0.026335,-0.405937,38.299324,8.052667,25.131281,4635728272605238300.000000,-0.641245,-0.071771,-0.749818,0.146380,-6.909412,-7.488993,1.793949,-0.344003,0.761921,-0.900910,44.333361,-9.739129,8.256693,4635729747324698600.000000,0.693986,0.475120,0.510024,-0.180332,0
-8.055834,-1.031104,2.450216,-1.242054,0.239808,0.313888,43.531809,1.805644,10.090892,4635732324305076200.000000,0.768510,0.058133,0.630823,-0.089866,-9.577659,-0.482644,0.191570,-0.915152,0.015612,-0.414564,38.304946,7.796320,25.121432,4635728243549274100.000000,-0.641148,-0.068022,-0.750558,0.144794,-5.982915,-2.736177,0.714784,-0.472552,0.742963,-1.148395,44.259114,-9.421773,8.362175,4635729747324698600.000000,0.692465,0.471900,0.514758,-0.181184,0
-8.061182,-1.139584,2.247025,-1.186849,0.197564,0.329651,43.531949,1.599518,10.202636,4635732324305076200.000000,0.768411,0.055375,0.631770,-0.085703,-9.619895,-0.508020,0.149776,-0.974147,0.006081,-0.420480,38.447208,7.736206,25.098421,4635728243549274100.000000,-0.641083,-0.064090,-0.751295,0.143038,-7.758661,-1.574269,-0.469900,-0.843009,0.664957,-1.499417,44.417810,-9.104378,8.631299,4635729747324698600.000000,0.691542,0.466777,0.520212,-0.182397,0
-8.202487,-1.393642,2.241501,-1.114335,0.092681,0.335112,43.440988,1.120972,10.268313,4635732324305076200.000000,0.768556,0.052825,0.632337,-0.081736,-9.754165,-0.434782,0.351626,-1.045295,-0.014745,-0.419577,38.427511,7.793008,25.232206,4635728243549274100.000000,-0.641091,-0.059957,-0.752003,0.141060,-7.203595,-3.231513,-1.660740,-1.434419,0.640540,-1.819649,44.572034,-8.772930,8.902562,4635729747324698600.000000,0.691525,0.459201,0.526626,-0.183282,0
-8.208034,-1.686125,2.409635,-1.032130,0.041658,0.337700,44.143826,0.285579,10.243397,4635732324305076200.000000,0.768803,0.050526,0.632699,-0.077987,-9.772502,-0.138608,0.685867,-1.165108,-0.045552,-0.419494,38.404491,7.750315,25.424213,4635728243549274100.000000,-0.641211,-0.055486,-0.752681,0.138710,-8.684448,-6.233733,-2.552232,-1.559396,0.807306,-2.115487,44.633059,-8.143239,8.980256,4635729747324698600.000000,0.691078,0.450690,0.534121,-0.184403,0
-8.335881,-1.850864,2.608223,-0.953705,0.010210,0.347235,45.169114,-0.403955,10.273973,4635732324305076200.000000,0.769105,0.048492,0.632920,-0.074420,-9.837260,0.293312,1.004202,-1.346012,-0.090367,-0.426804,38.475829,7.486524,25.485767,4635728243549274100.000000,-0.641491,-0.050481,-0.753322,0.135817,-12.520386,-6.517573,0.377058,-0.486309,0.730289,-2.000553,44.694652,-7.358058,9.169020,4635729747324698600.000000,0.688803,0.445419,0.540296,-0.187705,0
-8.692261,-1.899194,2.875881,-0.887449,-0.076323,0.358489,45.503543,-0.610370,10.371627,4635732324305076200.000000,0.769615,0.046673,0.632829,-0.071007,-9.961671,0.709317,0.783276,-1.560785,-0.117655,-0.447341,38.386227,7.210426,25.489058,4635728243549274100.000000,-0.641866,-0.044821,-0.753986,0.132304,-10.677786,2.053699,3.432098,0.000110,0.607360,-1.669268,44.761200,-6.513100,9.717723,4635729752234042400.000000,0.686115,0.442162,0.545086,-0.191364,0
-9.024622,-1.911400,3.036365,-0.840253,-0.129618,0.369500,45.282348,-0.709008,10.363596,4635732324305076200.000000,0.770248,0.045017,0.632542,-0.067693,-10.176206,0.924902,-0.086549,-1.746781,-0.151706,-0.481272,38.227530,7.078911,25.489058,4635728243549274100.000000,-0.642332,-0.038537,-0.754628,0.128297,-11.449362,10.500261,3.914877,0.041920,0.509848,-1.303604,44.686839,-6.122465,9.980633,4635729854698881000.000000,0.683834,0.439758,0.548866,-0.194243,0
-9.270154,-1.902472,3.101165,-0.817378,-0.135203,0.385399,45.142979,-0.922172,10.285194,4635732262339104800.000000,0.770886,0.043474,0.632218,-0.064388,-10.357920,0.955469,-0.187901,-1.885479,-0.189664,-0.521774,38.184757,6.939970,25.631714,4635728243549274100.000000,-0.642880,-0.031733,-0.755204,0.123959,-13.241811,15.189831,2.485620,-0.080358,0.515035,-1.226776,44.589747,-5.728533,9.880243,4635729854698881000.000000,0.681805,0.437172,0.552601,-0.196606,0
-9.250359,-1.659665,3.095033,-0.814710,-0.144285,0.412188,45.241607,-1.215635,10.317623,4635732216930893800.000000,0.771544,0.042007,0.631849,-0.061005,-10.284818,0.898690,0.154278,-1.996684,-0.199744,-0.562647,38.309561,6.656489,25.835925,4635728243549274100.000000,-0.643409,-0.024495,-0.755761,0.119372,-13.876845,10.799031,0.860641,-0.422993,0.471969,-1.286060,44.511534,-5.260758,9.985694,4635729854698881000.000000,0.680430,0.433427,0.556584,-0.198420,0
-8.900085,-1.123011,3.035882,-0.801889,-0.122873,0.446531,45.363190,-1.495903,10.364085,4635732216930893800.000000,0.772143,0.040677,0.631530,-0.057541,-10.197440,0.780877,0.336583,-2.088388,-0.220803,-0.595435,38.364576,6.380385,25.820589,4635728243549274100.000000,-0.643949,-0.016897,-0.756252,0.114575,-12.439274,2.569505,1.035999,-0.449580,0.423812,-1.353732,44.591987,-4.718148,10.249785,4635729854698881000.000000,0.679135,0.429393,0.560553,-0.200442,0
-8.563009,-0.664345,3.092707,-0.771776,-0.082204,0.476231,45.399334,-1.789343,10.209129,4635732216930893800.000000,0.772626,0.039531,0.631320,-0.054052,-10.136403,0.628767,0.473193,-2.199087,-0.243403,-0.612083,38.314384,6.132943,25.589217,4635728322349077500.000000,-0.644505,-0.008938,-0.756671,0.109466,-10.304452,-1.894854,2.028655,-0.048302,0.416863,-1.358187,44.816161,-4.315817,10.416811,4635729854698881000.000000,0.677111,0.426464,0.564155,-0.203417,0
-8.459730,-0.496748,2.938232,-0.743144,-0.054969,0.496319,45.392292,-1.978068,9.989883,4635732216930893800.000000,0.773027,0.038535,0.631179,-0.050569,-10.146677,0.790957,0.379014,-2.335867,-0.283974,-0.623832,38.294624,5.879904,25.727388,4635728351460327400.000000,-0.645128,-0.000556,-0.756971,0.103946,-8.488009,-1.341114,2.004763,0.333896,0.376230,-1.276289,44.867200,-3.918568,10.507248,4635729854698881000.000000,0.674551,0.424757,0.567153,-0.207124,0
-8.565360,-0.419753,2.755120,-0.725355,-0.043466,0.505562,45.344874,-2.197313,9.975789,4635732216930893800.000000,0.773388,0.037622,0.631060,-0.047101,-10.085257,1.303450,0.311774,-2.509409,-0.346077,-0.638701,38.481792,5.507691,26.100571,4635728351460327400.000000,-0.645872,0.008365,-0.757096,0.097907,-7.344705,0.831360,0.457540,0.484151,0.337530,-1.177902,44.711299,-3.377699,10.697551,4635729854698881000.000000,0.671880,0.423657,0.569721,-0.210971,0
-8.614674,-0.251674,2.734458,-0.736568,-0.038577,0.502441,45.271628,-2.564000,10.149034,4635732216930893800.000000,0.773728,0.036665,0.630951,-0.043611,-9.862844,1.286655,0.118040,-2.694183,-0.386072,-0.660960,38.559891,5.092675,26.004326,4635728272682928100.000000,-0.646646,0.017868,-0.757092,0.091329,-8.624711,2.685514,-1.010777,0.535674,0.360546,-1.058588,44.614191,-2.765615,10.791839,4635729854698881000.000000,0.669151,0.422994,0.572082,-0.214558,0
-8.544724,-0.053079,2.558430,-0.757397,-0.070203,0.476645,45.198389,-2.882323,10.192723,4635732216930893800.000000,0.774140,0.035567,0.630738,-0.040155,-9.540822,0.855378,-0.405645,-2.825944,-0.397265,-0.689425,38.634477,4.802395,25.785944,4635728243549274100.000000,-0.647345,0.027816,-0.756999,0.084397,-10.320167,3.160789,-1.989807,0.549743,0.374137,-1.041230,44.529295,-2.378293,11.068190,4635729854698881000.000000,0.666363,0.422413,0.574422,-0.218099,0
-8.494479,0.137063,2.288463,-0.768654,-0.175767,0.440042,45.209635,-3.131625,10.050952,4635732216930893800.000000,0.774815,0.034318,0.630182,-0.036802,-9.368338,0.114343,-1.126181,-2.895989,-0.392962,-0.699839,38.669757,4.433526,25.813398,4635728243549274100.000000,-0.647922,0.037978,-0.756826,0.077259,-10.673215,2.294426,-1.985400,0.608177,0.405246,-1.127040,44.465972,-2.053777,11.242467,4635729854698881000.000000,0.663302,0.421804,0.576929,-0.221957,0
-8.427814,0.240857,2.262580,-0.749474,-0.281202,0.401710,45.247678,-3.425079,9.987532,4635732216930893800.000000,0.775748,0.033014,0.629280,-0.033637,-9.365393,-0.466259,-1.936474,-2.926295,-0.395620,-0.675758,38.566137,3.893750,25.780705,4635728243549274100.000000,-0.648410,0.048141,-0.756541,0.069946,-10.507180,0.704903,-1.920239,0.562832,0.458243,-1.126004,44.608604,-1.578239,11.230260,4635729854698881000.000000,0.660173,0.421109,0.579605,-0.225601,0
-8.435768,0.242275,2.389810,-0.705028,-0.332352,0.361124,45.245803,-3.613844,9.828896,4635732216930893800.000000,0.776795,0.031739,0.628202,-0.030727,-9.384196,-0.892186,-2.650750,-2.918812,-0.392673,-0.635340,38.535475,3.307795,25.623975,4635728243549274100.000000,-0.648801,0.058146,-0.756151,0.062536,-10.676061,0.173845,-2.543364,0.373177,0.435274,-1.037525,44.663034,-1.120969,11.226865,4635729854698881000.000000,0.657499,0.420073,0.582225,-0.228577,0
-8.697215,0.161542,2.504840,-0.653883,-0.378891,0.324848,45.282875,-3.650014,9.486648,4635732340774616100.000000,0.777943,0.030528,0.626964,-0.028074,-9.378584,-1.722702,-3.170690,-2.857775,-0.374570,-0.587157,38.725878,2.908945,25.654698,4635728243549274100.000000,-0.649066,0.067820,-0.755691,0.055181,-10.300301,1.334394,-3.142369,0.216994,0.425785,-1.000315,44.578140,-0.797021,11.414349,4635729854698881000.000000,0.655143,0.418681,0.584889,-0.231083,0
-9.101953,0.159150,2.692158,-0.607250,-0.410536,0.284957,45.313881,-3.748581,9.277172,4635732431679258600.000000,0.779156,0.029360,0.625616,-0.025675,-9.366377,-2.132347,-3.269273,-2.746577,-0.348244,-0.537738,38.991120,2.517013,25.550745,4635728243549274100.000000,-0.649199,0.077021,-0.755182,0.048041,-10.255196,2.680928,-2.976531,0.075395,0.462604,-1.013026,44.500503,-0.333689,11.695120,4635729854698881000.000000,0.652918,0.416898,0.587800,-0.233207,0
-9.404341,0.202358,2.760297,-0.572370,-0.384711,0.245026,45.320920,-3.912433,9.297321,4635732431679258600.000000,0.780286,0.028203,0.624345,-0.023494,-9.247270,-2.354384,-3.223743,-2.625794,-0.302545,-0.490943,39.072598,2.101975,25.296373,4635728243549274100.000000,-0.649154,0.085728,-0.754689,0.041162,-10.556961,2.026798,-2.679464,-0.122569,0.463250,-1.042486,44.330147,0.115236,11.967649,4635729854698881000.000000,0.650994,0.414496,0.590942,-0.234920,0
-9.631102,0.263838,2.635911,-0.556014,-0.335618,0.210558,45.319049,-3.888106,9.226038,4635732431679258600.000000,0.781277,0.027014,0.623230,-0.021462,-9.186567,-2.149848,-3.272898,-2.489805,-0.258004,-0.452031,39.084804,1.749310,25.229402,4635728243549274100.000000,-0.648949,0.093926,-0.754218,0.034616,-11.039176,1.272705,-2.797292,-0.279514,0.432997,-0.994328,44.178045,0.498707,12.056530,4635729854698881000.000000,0.649449,0.411748,0.594060,-0.236162,0
-9.919332,0.255917,2.493172,-0.545295,-0.319251,0.178064,45.313881,-3.961682,8.988504,4635732431679258600.000000,0.782216,0.025777,0.622166,-0.019561,-9.055256,-1.979580,-3.180196,-2.346954,-0.208549,-0.414933,39.150461,1.473140,25.375229,4635728165196533800.000000,-0.648583,0.101603,-0.753796,0.028433,-11.358075,1.603015,-2.554889,-0.362353,0.419483,-0.946043,44.173526,0.724082,11.971494,4635729854698881000.000000,0.648115,0.408874,0.597126,-0.237084,0
-10.129268,0.297138,2.265562,-0.516633,-0.339984,0.138635,45.405358,-4.205800,8.769231,4635732431679258600.000000,0.783198,0.024529,0.621031,-0.017865,-8.964527,-2.478714,-3.137303,-2.225652,-0.144522,-0.365859,39.244816,1.047560,25.508186,4635728136175091700.000000,-0.648014,0.108781,-0.753483,0.022522,-10.935250,1.670926,-2.079559,-0.341273,0.437003,-0.938566,44.325629,0.819384,12.167183,4635729854698881000.000000,0.646697,0.406085,0.600194,-0.238004,0
-10.145793,0.389195,1.967428,-0.454950,-0.364639,0.107935,45.472576,-4.407719,8.698707,4635732431679258600.000000,0.784231,0.023401,0.619809,-0.016431,-9.037085,-2.851538,-2.985904,-2.116339,-0.080065,-0.311678,39.155440,0.666193,25.395395,4635728136175091700.000000,-0.647246,0.115478,-0.753296,0.016834,-10.597491,1.383808,-1.350662,-0.258971,0.463273,-0.931090,44.333463,1.128359,12.622815,4635729854698881000.000000,0.645069,0.403555,0.603225,-0.239058,0
-10.077720,0.492449,1.885535,-0.372050,-0.366011,0.087640,45.430361,-4.571587,8.598336,4635732431679258600.000000,0.785255,0.022491,0.618575,-0.015277,-9.212587,-3.015529,-2.796196,-2.005342,-0.010034,-0.254867,39.121426,0.395640,25.280232,4635728136175091700.000000,-0.646268,0.121683,-0.753261,0.011373,-10.114833,1.467807,-0.423085,-0.199712,0.479885,-0.922083,44.240910,1.518996,12.886647,4635729854698881000.000000,0.643297,0.401216,0.606215,-0.240204,0
-10.145175,0.478989,1.853252,-0.306469,-0.364112,0.064271,45.392300,-4.737295,8.253458,4635732307931640800.000000,0.786263,0.021736,0.617342,-0.014369,-9.496987,-2.855908,-2.417126,-1.890839,0.054034,-0.197961,39.124729,0.204909,25.328369,4635728136175091700.000000,-0.645109,0.127390,-0.753371,0.006150,-10.295383,1.242798,0.739718,-0.171655,0.483999,-0.879470,43.996763,1.898704,12.797730,4635729854698881000.000000,0.641500,0.399056,0.609105,-0.241294,0
-10.449720,0.061488,1.574572,-0.250113,-0.441463,0.071256,45.387127,-4.718274,7.937307,4635732216930893800.000000,0.787463,0.021178,0.615847,-0.013590,-9.734210,-2.373621,-1.831890,-1.804318,0.101668,-0.154600,39.133635,-0.010514,25.363682,4635728136175091700.000000,-0.643811,0.132718,-0.753586,0.001106,-10.913419,0.669227,1.420418,-0.065501,0.440287,-0.817982,43.764087,2.045721,12.907912,4635729854698881000.000000,0.639690,0.397286,0.611659,-0.242556,0
-10.697822,-0.552225,1.558614,-0.195381,-0.566860,0.115160,45.527821,-4.510327,7.898603,4635732216930893800.000000,0.788979,0.020906,0.613930,-0.012818,-9.968425,-1.518304,-1.321842,-1.772120,0.132702,-0.122384,38.967753,-0.384896,25.366983,4635728136175091700.000000,-0.642399,0.137851,-0.753860,-0.003906,-10.904699,0.647646,1.493010,0.118173,0.422491,-0.789810,43.779019,2.221856,13.285796,4635729854698881000.000000,0.637642,0.396054,0.613924,-0.244237,0
-10.663283,-0.883061,1.799023,-0.132257,-0.636306,0.161179,45.722714,-4.357636,7.927778,4635732216930893800.000000,0.790664,0.020954,0.611772,-0.012062,-10.301636,-0.847732,-0.822315,-1.795835,0.143044,-0.105721,38.851564,-0.803274,25.509464,4635728136175091700.000000,-0.640907,0.142988,-0.754130,-0.009032,-10.711562,1.192292,1.024771,0.298299,0.435022,-0.776400,43.844632,2.764102,13.631311,4635729854698881000.000000,0.635270,0.395342,0.616007,-0.246317,0
-10.448346,-0.792290,1.934342,-0.063939,-0.650665,0.190072,45.782938,-4.511295,7.767893,4635732216930893800.000000,0.792376,0.021301,0.609555,-0.011386,-10.641125,-0.366361,-0.274015,-1.878697,0.136409,-0.098647,38.956412,-1.280633,25.642441,4635728136175091700.000000,-0.639350,0.148314,-0.754338,-0.014440,-10.580307,1.367229,0.460578,0.423802,0.440242,-0.772911,43.744270,3.143825,13.534206,4635729854698881000.000000,0.632671,0.394971,0.617960,-0.248697,0
-10.199019,-0.479669,2.035718,-0.012318,-0.642340,0.209136,45.686338,-4.890129,7.506357,4635732216930893800.000000,0.794057,0.021867,0.607355,-0.010777,-10.961810,0.343512,0.394355,-2.017765,0.109367,-0.107330,39.136213,-1.834544,25.618745,4635728136175091700.000000,-0.637753,0.154027,-0.754411,-0.020279,-10.771278,1.376469,-0.168522,0.538617,0.420565,-0.763963,43.585027,3.301183,13.460711,4635729854698881000.000000,0.629934,0.394898,0.619716,-0.251376,0
-10.011134,-0.287406,1.981980,0.021955,-0.597397,0.219295,45.619064,-5.115299,7.179683,4635732216930893800.000000,0.795615,0.022573,0.605295,-0.010217,-11.225779,1.211529,1.120192,-2.198068,0.071579,-0.130565,39.194668,-2.239117,25.527692,4635728136175091700.000000,-0.636113,0.160276,-0.754296,-0.026646,-10.852090,1.600296,-0.943018,0.658239,0.414251,-0.770065,43.421734,3.691818,13.643821,4635729854698881000.000000,0.626998,0.395110,0.621329,-0.254385,0
-9.970129,-0.256355,1.707466,0.058177,-0.522562,0.222337,45.569844,-5.060111,6.794241,4635732216930893800.000000,0.796977,0.023411,0.603477,-0.009730,-11.282945,1.986854,1.701223,-2.416226,0.016481,-0.158824,39.091137,-2.571992,25.438945,4635728214483260400.000000,-0.634447,0.167170,-0.753922,-0.033658,-10.576772,2.170184,-1.808039,0.634913,0.410121,-0.792541,43.417940,4.079158,13.818781,4635729854698881000.000000,0.624076,0.395190,0.622980,-0.257392,0
-10.119259,-0.263387,1.351595,0.083222,-0.448151,0.216475,45.484392,-4.992828,6.523144,4635732216930893800.000000,0.798146,0.024320,0.601901,-0.009319,-11.208420,2.585737,2.199417,-2.687645,-0.049075,-0.195453,39.060385,-2.963898,25.353497,4635728243549274100.000000,-0.632733,0.174869,-0.753227,-0.041469,-10.427291,2.644388,-2.099131,0.499045,0.408294,-0.815993,43.329234,4.396010,13.826912,4635729854698881000.000000,0.621345,0.394846,0.624798,-0.260104,0
-10.484771,-0.338872,0.872904,0.106497,-0.413792,0.201035,45.539563,-5.182662,6.452540,4635732216930893800.000000,0.799223,0.025269,0.600436,-0.009013,-11.226494,2.921410,2.536371,-3.011588,-0.124937,-0.238090,39.010277,-3.316633,25.187923,4635728243549274100.000000,-0.630941,0.183517,-0.752138,-0.050233,-10.465802,2.791402,-2.090726,0.337027,0.389611,-0.837618,43.169979,4.705031,14.010585,4635729854698881000.000000,0.618896,0.394000,0.626768,-0.262476,0
-11.004832,-0.369549,0.655873,0.136855,-0.429851,0.188414,45.656064,-5.371634,6.401481,4635732216930893800.000000,0.800333,0.026287,0.598915,-0.008827,-11.474455,2.946307,2.728103,-3.363113,-0.217214,-0.281880,39.008250,-3.895443,24.939212,4635728243549274100.000000,-0.629069,0.193174,-0.750567,-0.060047,-10.275705,2.426885,-2.152061,0.209412,0.360183,-0.841937,42.999115,5.098821,14.200994,4635729854698881000.000000,0.616720,0.392776,0.628798,-0.264569,0
-11.348463,-0.164214,0.783882,0.159382,-0.457882,0.194016,45.643102,-5.267287,6.247582,4635732216930893800.000000,0.801507,0.027392,0.597294,-0.008680,-11.631619,2.716152,2.877893,-3.789180,-0.332325,-0.329567,39.157277,-4.744849,24.741867,4635728243549274100.000000,-0.627087,0.204024,-0.748381,-0.071148,-9.956061,2.102691,-1.949175,0.164447,0.340436,-0.847561,42.839021,5.556216,14.286445,4635729854698881000.000000,0.614655,0.391393,0.630827,-0.266586,0
-11.271501,0.130214,0.859697,0.179546,-0.459854,0.218647,45.698231,-5.072360,6.157710,4635732216930893800.000000,0.802682,0.028627,0.595660,-0.008502,-11.560171,2.245201,2.908669,-4.324292,-0.426049,-0.391158,39.281379,-5.535725,24.562078,4635728243549274100.000000,-0.624781,0.216376,-0.745523,-0.083817,-10.130971,1.893545,-1.592143,0.164609,0.309649,-0.858318,42.916050,5.869823,14.376221,4635729854698881000.000000,0.612650,0.389943,0.632785,-0.268677,0
-10.869446,0.391722,0.924792,0.194596,-0.433056,0.260073,45.807719,-5.096391,6.103340,4635732216930893800.000000,0.803785,0.030015,0.594105,-0.008219,-11.203443,1.948399,3.448170,-4.866984,-0.499232,-0.378735,39.334533,-6.217998,24.103136,4635728243549274100.000000,-0.621979,0.229995,-0.742020,-0.098239,-10.625101,1.652659,-1.437778,0.190413,0.283278,-0.848109,43.060710,6.101737,14.551225,4635729854698881000.000000,0.610677,0.388552,0.634621,-0.270847,0
-10.284569,0.612955,0.948479,0.209130,-0.388127,0.295067,45.796631,-5.402690,5.750811,4635732216930893800.000000,0.804773,0.031540,0.592692,-0.007848,-10.844074,0.913358,3.952549,-5.221188,-0.687783,-0.362771,39.477932,-7.001749,23.470428,4635728243549274100.000000,-0.619137,0.244302,-0.737567,-0.113936,-10.488699,1.474208,-1.355716,0.196634,0.265042,-0.846458,42.904710,6.340686,14.551225,4635729854698881000.000000,0.608736,0.387154,0.636391,-0.273054,0
-9.743008,0.857465,0.906679,0.221139,-0.306110,0.295651,45.758529,-5.726371,5.299879,4635732216930893800.000000,0.805554,0.033110,0.591549,-0.007494,-10.336512,0.113327,3.833715,-5.580928,-0.961125,-0.456021,39.741126,-7.947528,22.820127,4635728243549274100.000000,-0.616495,0.259565,-0.731760,-0.130718,-11.065647,1.143184,-0.829374,0.200751,0.267964,-0.809262,42.808129,6.724313,14.554998,4635729854698881000.000000,0.606816,0.385864,0.638096,-0.275169,0
-9.419712,1.250626,0.750610,0.213859,-0.211896,0.260118,45.802533,-5.835139,5.195529,4635732216930893800.000000,0.806100,0.034570,0.590724,-0.007228,-10.029725,-0.084418,3.943407,-6.026729,-1.149075,-0.531829,39.962903,-8.945139,22.030838,4635728243549274100.000000,-0.613613,0.275943,-0.724704,-0.148789,-10.991249,1.019715,-0.525666,0.246192,0.264430,-0.772199,42.731125,6.956232,14.645283,4635729854698881000.000000,0.604867,0.384779,0.639671,-0.277311,0
-9.312402,1.677536,0.513485,0.179100,-0.149353,0.201760,45.838799,-5.736765,5.286163,4635732216930893800.000000,0.806494,0.035772,0.590117,-0.007063,-10.053518,-0.898355,3.687061,-6.422166,-1.299679,-0.603719,40.220491,-9.874939,21.117382,4635728243549274100.000000,-0.610348,0.293261,-0.716428,-0.167941,-12.501889,0.334156,0.065512,0.261181,0.251413,-0.655155,42.571813,7.191541,14.831995,4635729854698881000.000000,0.603059,0.384025,0.641001,-0.279216,0
-9.337174,2.173564,0.309654,0.121650,-0.116173,0.133530,45.747455,-5.664235,5.273242,4635732216930893800.000000,0.806812,0.036614,0.589631,-0.006980,-9.780866,-1.827910,3.075306,-6.554023,-1.440156,-0.660671,40.563505,-10.840477,20.106330,4635728243549274100.000000,-0.606916,0.310760,-0.707084,-0.187386,-14.196933,-0.358906,1.681282,0.350509,0.195288,-0.659563,42.400912,7.500528,14.831995,4635729854698881000.000000,0.601248,0.383414,0.642088,-0.281457,0
-9.370103,2.733193,-0.020961,0.058960,-0.077471,0.060582,45.630927,-5.713410,5.236976,4635732216930893800.000000,0.807043,0.037068,0.589287,-0.006983,-9.686054,-4.945083,2.021429,-6.443707,-1.524726,-0.820327,40.867449,-11.713608,19.139896,4635728243549274100.000000,-0.603531,0.328142,-0.696856,-0.206068,-10.546089,-0.513206,0.471021,0.543729,0.286853,-0.574288,42.237614,7.884074,14.840125,4635729854698881000.000000,0.598977,0.383620,0.643033,-0.283850,0
-9.515791,3.156081,-0.249677,-0.026514,-0.025876,-0.021566,45.643828,-5.791838,5.349380,4635732216930893800.000000,0.807158,0.037034,0.589130,-0.007044,-10.119646,-12.200384,-0.936138,-5.908638,-1.559529,-1.065503,41.085954,-12.410284,18.048708,4635728400420982800.000000,-0.600759,0.344625,-0.686166,-0.222481,-11.054204,-1.585052,-1.513408,0.689992,0.370455,-0.472361,42.237614,8.116013,15.023236,4635729854698881000.000000,0.596362,0.384557,0.643843,-0.286243,0
-9.914486,3.071197,-0.491522,-0.125205,-0.013654,-0.110382,45.771428,-5.829956,5.376094,4635732216930893800.000000,0.807257,0.036450,0.589030,-0.007159,-11.061407,-17.962612,-3.055143,-4.825038,-1.664752,-1.244697,41.396908,-12.826002,16.696624,4635728458834509800.000000,-0.599669,0.358614,-0.675568,-0.235374,-11.201216,-1.742368,-2.290127,0.847408,0.411312,-0.428930,42.230046,8.351711,15.193893,4635729854698881000.000000,0.593427,0.386045,0.644486,-0.288879,0
-10.434159,2.645490,-0.625922,-0.207353,-0.040414,-0.193336,45.838799,-5.835139,5.166069,4635732216930893800.000000,0.807431,0.035386,0.588854,-0.007356,-12.598058,-18.744111,-2.313984,-3.518969,-1.887557,-1.290429,41.857620,-12.906538,15.535305,4635728458834509800.000000,-0.600970,0.369110,-0.665361,-0.244719,-11.355588,-0.298877,-2.211072,0.779156,0.387935,-0.371554,42.063468,8.658293,15.100558,4635729854698881000.000000,0.590725,0.387484,0.645051,-0.291222,0
-10.818572,2.334312,-0.427795,-0.276906,-0.064921,-0.241194,45.880932,-5.785984,5.041657,4635732216930893800.000000,0.807673,0.033970,0.588603,-0.007547,-12.964102,-15.869680,-0.510476,-2.318648,-2.127252,-1.305687,42.411420,-12.832084,14.624563,4635728458834509800.000000,-0.604647,0.376304,-0.655587,-0.251005,-11.380948,0.890059,-2.794325,0.620456,0.343810,-0.344066,41.996709,8.732077,15.109207,4635729854698881000.000000,0.588423,0.388548,0.645646,-0.293138,0
-10.916771,2.014481,-0.349143,-0.331291,-0.072020,-0.234882,45.961188,-5.700542,5.090802,4635732216930893800.000000,0.807940,0.032386,0.588326,-0.007584,-12.465189,-13.098852,0.480238,-1.353881,-2.308274,-1.351860,42.869586,-12.734420,13.689958,4635728301995650000.000000,-0.610272,0.380938,-0.646175,-0.254779,-10.651434,0.896994,-3.290594,0.445316,0.292350,-0.322892,42.070495,8.827258,15.303443,4635729854698881000.000000,0.586565,0.389173,0.646290,-0.294610,0
-10.760794,1.471212,-0.334470,-0.376154,-0.046379,-0.187158,45.906223,-5.664235,5.134130,4635732216930893800.000000,0.808149,0.030769,0.588128,-0.007347,-12.008325,-11.292333,0.454694,-0.645623,-2.446979,-1.405352,43.160097,-12.458943,12.725710,4635728243549274100.000000,-0.617360,0.383711,-0.636979,-0.256691,-10.266965,1.561122,-3.155596,0.209637,0.237190,-0.305662,42.148391,9.125938,15.466780,4635729854698881000.000000,0.585257,0.389200,0.647057,-0.295492,0
-10.537712,0.887417,-0.229792,-0.421630,-0.003200,-0.120132,45.838799,-5.622111,5.076131,4635732216930893800.000000,0.808259,0.029165,0.588065,-0.006768,-11.368708,-9.628624,-0.066162,-0.213036,-2.523611,-1.456914,43.457603,-11.690321,11.681278,4635728243549274100.000000,-0.625309,0.385369,-0.627871,-0.257407,-10.258686,1.744352,-2.741622,0.148223,0.191040,-0.285981,42.062938,9.274391,15.467319,4635729854698881000.000000,0.584196,0.389073,0.647752,-0.296234,0
-10.421457,0.567939,-0.204171,-0.474315,0.033996,-0.046727,45.880920,-5.541850,5.029450,4635732216930893800.000000,0.808284,0.027564,0.588118,-0.005808,-10.538426,-8.011770,-0.240833,-0.015279,-2.555327,-1.508965,43.828359,-10.824774,10.678129,4635728243549274100.000000,-0.633619,0.386556,-0.618713,-0.257480,-9.814562,0.666207,-2.351526,0.184912,0.163740,-0.278062,41.978024,9.210850,15.482761,4635729854698881000.000000,0.583158,0.389022,0.648322,-0.297099,0
-10.379650,0.507523,-0.233772,-0.535062,0.056051,0.028653,45.912045,-5.505539,4.973297,4635732340409915400.000000,0.808262,0.025943,0.588235,-0.004443,-9.796252,-6.344926,-0.466427,-0.045253,-2.533411,-1.577637,44.174507,-10.409311,9.781643,4635728165344176100.000000,-0.641800,0.387962,-0.609373,-0.257374,-9.559630,0.818434,-1.981205,0.093183,0.146746,-0.237713,41.911242,9.361624,15.560138,4635729854698881000.000000,0.582365,0.388836,0.648896,-0.297644,0
-10.293891,0.554827,-0.187993,-0.599926,0.065024,0.090980,45.820793,-5.603811,4.994965,4635732431679258600.000000,0.808222,0.024257,0.588372,-0.002709,-8.718150,-4.345866,-0.851619,-0.203526,-2.414831,-1.666408,44.441861,-10.277435,8.986071,4635728136175091700.000000,-0.649422,0.390085,-0.599943,-0.257201,-9.856751,0.822039,-1.783736,0.052433,0.132074,-0.203028,41.980721,9.595019,15.462479,4635729854698881000.000000,0.581720,0.388627,0.649428,-0.298017,0
-10.171819,0.607013,-0.069278,-0.671678,0.076506,0.119980,45.802482,-5.627308,5.034638,4635732431679258600.000000,0.808157,0.022400,0.588541,-0.000699,-8.262016,-1.353800,-1.746772,-0.399404,-2.260913,-1.776742,44.623773,-9.765227,8.136988,4635728136175091700.000000,-0.656363,0.393121,-0.590449,-0.256930,-9.977749,0.647530,-1.546040,0.056498,0.123905,-0.180550,41.962601,9.594482,15.373959,4635729854698881000.000000,0.581119,0.388478,0.649898,-0.298359,0
-10.077831,0.622578,-0.019225,-0.735226,0.088842,0.116991,45.838799,-5.590991,5.085592,4635732431679258600.000000,0.808061,0.020321,0.588746,0.001457,-6.295639,-1.073878,-0.607567,-0.491295,-2.159434,-1.806041,44.826885,-8.907276,7.187099,4635728136175091700.000000,-0.662840,0.396532,-0.581000,-0.256600,-10.067355,0.669387,-1.452145,0.100359,0.123952,-0.158039,41.815593,9.586028,15.491320,4635729854698881000.000000,0.580476,0.388497,0.650276,-0.298764,0
-10.025639,0.622578,0.115944,-0.794615,0.080033,0.102490,45.838799,-5.682224,5.190271,4635732431679258600.000000,0.807985,0.018006,0.588916,0.003708,-4.707671,-0.239524,-1.868802,-1.067568,-1.905586,-1.691614,45.179956,-8.157270,6.352708,4635728136175091700.000000,-0.667537,0.401475,-0.571744,-0.257527,-9.992626,0.896502,-1.449052,0.099760,0.124316,-0.155563,41.660651,9.659810,15.759758,4635729854698881000.000000,0.579835,0.388521,0.650650,-0.299160,0
-9.960947,0.482223,0.339034,-0.860091,0.068042,0.089379,45.796693,-5.791793,5.349260,4635732431679258600.000000,0.807935,0.015438,0.589038,0.006075,-4.480240,6.647884,-6.637106,-1.674190,-1.441038,-1.471879,45.405027,-7.669198,5.500294,4635727979797666800.000000,-0.669793,0.408029,-0.563423,-0.259700,-10.137383,0.999812,-1.648659,0.109092,0.109691,-0.123811,41.586869,9.747941,15.759758,4635729845267887100.000000,0.579260,0.388637,0.650925,-0.299527,0
-9.854448,0.224053,0.511464,-0.897295,0.076663,0.086226,45.716436,-5.872051,5.376158,4635732431679258600.000000,0.807856,0.012736,0.589180,0.008523,-3.254610,10.207794,-8.486729,-2.021357,-1.199610,-1.258693,45.385944,-7.307512,4.692544,4635727921426726900.000000,-0.670580,0.415263,-0.555693,-0.262840,-9.974427,0.713376,-1.934117,0.111079,0.101747,-0.121114,41.501430,9.894948,15.759758,4635729639950516200.000000,0.578706,0.388754,0.651173,-0.299905,0
-9.753425,-0.079595,0.833380,-0.920231,0.115083,0.101096,45.630983,-5.957503,5.173242,4635732431679258600.000000,0.807674,0.009992,0.589441,0.011078,-2.463364,12.756586,-8.819501,-2.040497,-1.092162,-0.870216,45.416031,-6.974633,4.266835,4635727921426726900.000000,-0.670584,0.421722,-0.548850,-0.266894,-9.729835,0.843471,-2.050309,0.086044,0.083588,-0.106300,41.426671,10.043485,15.764036,4635729639950516200.000000,0.578261,0.388829,0.651384,-0.300208,0
-9.752170,-0.451242,1.081545,-0.931879,0.177077,0.128889,45.594650,-6.042943,5.117004,4635732308266581000.000000,0.807327,0.007274,0.589899,0.013758,-0.939607,16.447521,-10.934420,-1.705697,-0.728511,-0.334190,45.551491,-6.760551,4.116040,4635727921426726900.000000,-0.669693,0.426389,-0.544290,-0.271019,-9.739369,1.141170,-2.039706,0.050655,0.065196,-0.095486,41.582157,9.966498,15.853140,4635729639950516200.000000,0.577937,0.388826,0.651577,-0.300418,0
-9.897371,-0.833003,1.214265,-0.906875,0.213517,0.158021,45.692850,-6.030188,5.318043,4635732216930893800.000000,0.806877,0.004708,0.590471,0.016474,0.011513,19.644882,-13.987478,-1.303737,-0.306173,0.303923,45.541331,-6.829600,4.018386,4635727921426726900.000000,-0.667809,0.428945,-0.542472,-0.275250,-9.686813,1.280768,-2.061451,0.012206,0.042166,-0.104958,41.663335,9.821685,15.759758,4635729639950516200.000000,0.577727,0.388676,0.651777,-0.300583,0
-10.153996,-1.094012,1.478174,-0.853716,0.176622,0.192544,45.716456,-6.085019,5.383195,4635732216930893800.000000,0.806504,0.002408,0.590913,0.019175,-1.881848,24.336309,-15.475134,-0.959461,0.030798,1.082881,45.476975,-7.237109,3.787434,4635728077752609800.000000,-0.664863,0.429154,-0.543359,-0.280258,-9.561063,1.531791,-2.015764,-0.026994,0.029348,-0.111787,41.648461,9.980381,15.763491,4635729639950516200.000000,0.577607,0.388397,0.652005,-0.300678,0
-10.439959,-1.270109,1.834010,-0.787308,0.107216,0.230224,45.680103,-6.341914,5.248644,4635732216930893800.000000,0.806289,0.000430,0.591119,0.021837,-7.127736,22.772878,-11.072243,-0.218947,0.277869,1.179603,45.407053,-7.799817,3.719937,4635728136175091700.000000,-0.662550,0.427370,-0.545952,-0.283407,-9.615168,1.645278,-1.773750,-0.081184,0.016764,-0.127856,41.574683,10.128413,15.841477,4635729639950516200.000000,0.577589,0.387929,0.652297,-0.300684,0
-10.636550,-1.384894,2.144100,-0.724793,0.061860,0.262857,45.687116,-6.671491,5.239059,4635732216930893800.000000,0.806174,-0.001255,0.591171,0.024454,-14.408164,-5.909596,-4.984865,-0.024413,0.309059,0.727955,45.209421,-8.083621,3.865423,4635728136175091700.000000,-0.661034,0.426105,-0.548046,-0.284805,-9.519647,1.319463,-1.585367,-0.104539,0.009613,-0.143828,41.489771,10.046693,15.759758,4635729639950516200.000000,0.577610,0.387353,0.652625,-0.300675,0
-10.665631,-1.409045,2.426695,-0.655906,0.020905,0.288470,45.692310,-6.811731,5.398022,4635732216930893800.000000,0.806152,-0.002642,0.591086,0.026987,-20.093911,-22.031044,-5.338370,-0.614914,0.427066,0.859007,45.151863,-8.254519,3.989656,4635728136175091700.000000,-0.658036,0.426302,-0.549987,-0.287698,-9.496875,1.335901,-1.546086,-0.100776,0.009567,-0.135562,41.419720,10.053606,15.759758,4635729639950516200.000000,0.577635,0.386808,0.652934,-0.300657,0
-10.581736,-1.263585,2.768760,-0.576705,-0.051548,0.301082,45.594125,-6.811731,5.425017,4635732216930893800.000000,0.806302,-0.003723,0.590762,0.029369,-19.321593,-5.486789,-5.999323,-0.287015,0.564730,0.976976,45.164070,-8.665315,4.096200,4635728136175091700.000000,-0.655149,0.425485,-0.552896,-0.289911,-10.023341,1.163913,-1.445769,-0.084661,0.009290,-0.133612,41.422910,10.208579,15.759758,4635729639950516200.000000,0.577638,0.386308,0.653218,-0.300677,0
-10.492913,-1.201779,2.964840,-0.486780,-0.113042,0.299059,45.479331,-6.902896,5.334376,4635732216930893800.000000,0.806601,-0.004501,0.590238,0.031522,-17.269635,4.640078,-5.099013,0.611165,0.371235,0.922564,45.176274,-9.041344,4.268210,4635728136175091700.000000,-0.654352,0.422098,-0.556252,-0.290243,-10.034496,0.717055,-1.289742,-0.066040,0.026100,-0.134912,41.492962,10.272269,15.751273,4635729639950516200.000000,0.577564,0.385870,0.653521,-0.300723,0
-10.419673,-1.275019,3.124039,-0.391426,-0.135222,0.287287,45.357008,-7.068593,5.248930,4635732216930893800.000000,0.806954,-0.004984,0.589647,0.033402,-16.646400,-0.024470,-0.509939,0.912020,0.187567,0.923763,45.001968,-9.379822,4.472407,4635728136175091700.000000,-0.654491,0.417656,-0.559457,-0.290194,-9.759029,0.647523,-1.197386,-0.036783,0.036595,-0.117961,41.489780,10.131615,15.568681,4635729639950516200.000000,0.577437,0.385562,0.653784,-0.300790,0
-10.283332,-1.208035,3.447114,-0.318293,-0.161558,0.276629,45.289467,-7.190410,5.163483,4635732216930893800.000000,0.807373,-0.005244,0.588975,0.035067,-14.813466,-2.316124,1.805899,0.830006,0.244647,0.874982,44.944333,-9.712758,4.671058,4635728136175091700.000000,-0.654396,0.413609,-0.562617,-0.290096,-9.605636,0.670335,-1.220210,0.000603,0.043375,-0.104029,41.416008,10.130012,15.674825,4635729639950516200.000000,0.577249,0.385392,0.653994,-0.300914,0
-10.009074,-1.163333,3.599369,-0.259999,-0.198626,0.272219,45.380612,-7.226783,5.127110,4635732340270108700.000000,0.807882,-0.005314,0.588184,0.036574,-14.166142,3.194539,2.021973,0.673186,0.164847,0.702697,44.894375,-10.051210,4.795312,4635728136175091700.000000,-0.654413,0.410288,-0.565060,-0.290026,-9.570604,0.916084,-1.213292,0.013793,0.057819,-0.089030,41.337968,10.355580,15.958778,4635729639950516200.000000,0.577020,0.385312,0.654197,-0.301014,0
-9.660183,-1.184118,3.624045,-0.206762,-0.219153,0.268855,45.490246,-7.367058,4.965793,4635732431679258600.000000,0.808441,-0.005210,0.587329,0.037941,-13.790933,5.957397,3.280807,0.370869,0.125654,0.525010,44.812252,-10.206516,4.892968,4635728136175091700.000000,-0.654212,0.408158,-0.566720,-0.290246,-9.567440,0.914578,-1.322091,0.012719,0.061207,-0.072964,41.426576,10.430474,16.032089,4635729639950516200.000000,0.576804,0.385278,0.654383,-0.301067,0
-9.299123,-1.057852,3.635984,-0.171740,-0.220788,0.266423,45.430214,-7.562123,4.797236,4635732431679258600.000000,0.809004,-0.004994,0.586472,0.039213,-13.416984,3.522774,3.866446,0.025083,0.103021,0.390238,44.735679,-10.291968,5.061672,4635728136175091700.000000,-0.653637,0.407260,-0.567667,-0.290951,-9.493669,0.626269,-1.404906,0.035150,0.069100,-0.055781,41.581579,10.282324,15.849428,4635729639950516200.000000,0.576553,0.385356,0.654531,-0.301125,0
-8.967970,-0.627664,3.527389,-0.165587,-0.216515,0.259217,45.362709,-7.678732,4.760887,4635732431679258600.000000,0.809556,-0.004775,0.585628,0.040446,-12.691165,2.106271,2.814197,-0.195781,0.057480,0.240996,44.653563,-10.377412,5.043867,4635728136175091700.000000,-0.652975,0.407261,-0.567967,-0.291849,-9.411908,0.719074,-1.425637,0.056704,0.085820,-0.036787,41.644824,10.367241,15.947076,4635729639950516200.000000,0.576246,0.385558,0.654662,-0.301170,0
-8.550553,0.042458,3.328429,-0.178588,-0.219608,0.233350,45.453903,-7.764183,4.767902,4635732431679258600.000000,0.810119,-0.004663,0.584768,0.041624,-11.847776,2.033096,0.886542,-0.273837,0.050786,0.088062,44.576993,-10.391828,4.804146,4635728136175091700.000000,-0.652383,0.407827,-0.567893,-0.292525,-9.409279,0.965437,-1.368281,0.059116,0.094457,-0.023361,41.482970,10.433649,16.036846,4635729639950516200.000000,0.575930,0.385814,0.654788,-0.301174,0
-7.994003,0.711694,3.234962,-0.202427,-0.222629,0.185378,45.521408,-7.800531,4.716988,4635732431679258600.000000,0.810695,-0.004748,0.583890,0.042698,-11.532657,0.589130,-0.277503,-0.278203,0.001354,-0.029139,44.672449,-10.326347,4.662112,4635728136175091700.000000,-0.652043,0.408623,-0.567479,-0.292976,-9.346664,0.989326,-1.392696,0.067247,0.105185,-0.019973,41.257343,10.345042,15.950869,4635729639950516200.000000,0.575575,0.386112,0.654923,-0.301174,0
-7.458986,1.179961,3.248987,-0.227584,-0.195176,0.128769,45.472318,-7.849620,4.514143,4635732431679258600.000000,0.811213,-0.005061,0.583098,0.043642,-11.428350,-0.682494,-0.633673,-0.256162,-0.080304,-0.105066,44.893277,-10.240903,4.780861,4635728136175091700.000000,-0.652026,0.409439,-0.566739,-0.293307,-9.249541,0.998909,-1.415534,0.066409,0.116841,-0.012542,41.179243,10.196853,15.857417,4635729639950516200.000000,0.575200,0.386444,0.655075,-0.301135,0
-7.110927,1.365675,3.245350,-0.257994,-0.139583,0.081972,45.393873,-7.885983,4.338557,4635732431679258600.000000,0.811603,-0.005601,0.582486,0.044499,-11.117666,-1.076449,-1.047552,-0.189073,-0.145552,-0.164002,44.835595,-10.279732,4.825255,4635728136175091700.000000,-0.652349,0.410132,-0.565802,-0.293430,-9.168284,0.952177,-1.408047,0.070498,0.126271,-0.006271,41.267842,10.288598,15.869479,4635729639950516200.000000,0.574801,0.386815,0.655233,-0.301076,0
-6.993023,1.363591,3.256002,-0.294310,-0.089291,0.046747,45.453884,-7.885983,4.409219,4635732431679258600.000000,0.811876,-0.006358,0.582034,0.045325,-10.735885,-1.247362,-1.361662,-0.042351,-0.203235,-0.219063,44.673561,-10.311926,4.688766,4635728136175091700.000000,-0.653126,0.410485,-0.564791,-0.293155,-9.179967,0.947458,-1.509901,0.070727,0.131428,-0.002883,41.412903,10.510574,16.142382,4635729639950516200.000000,0.574393,0.387202,0.655398,-0.301000,0
-7.003673,1.384891,3.131330,-0.329398,-0.053158,0.020840,45.570495,-7.935071,4.436223,4635732431679258600.000000,0.812064,-0.007304,0.581695,0.046147,-10.721414,-1.462639,-1.392760,0.149515,-0.283436,-0.259555,44.568132,-10.253120,4.487912,4635728136175091700.000000,-0.654468,0.410313,-0.563725,-0.292454,-9.178398,0.839173,-1.702582,0.075930,0.132542,0.004639,41.254226,10.510574,16.228001,4635729639950516200.000000,0.573983,0.387624,0.655545,-0.300918,0
-7.012244,1.458135,2.936271,-0.345171,-0.034613,-0.001750,45.557770,-8.062599,4.289475,4635732431679258600.000000,0.812210,-0.008361,0.581414,0.046930,-10.976625,-1.383908,-1.228543,0.315079,-0.376749,-0.301016,44.669080,-10.283060,4.511172,4635728136175091700.000000,-0.656360,0.409671,-0.562532,-0.291408,-9.148575,0.780049,-1.828496,0.076373,0.134678,0.013321,41.112262,10.517373,16.056395,4635729639950516200.000000,0.573577,0.388074,0.655683,-0.300812,0
-6.943950,1.391149,2.826674,-0.341172,-0.011345,-0.031994,45.570484,-8.038987,4.260631,4635732431679258600.000000,0.812306,-0.009483,0.581209,0.047600,-11.237429,-0.806916,-1.109778,0.401031,-0.460941,-0.354907,44.831109,-10.240916,4.541154,4635728136175091700.000000,-0.658657,0.408816,-0.561116,-0.290154,-9.270125,1.026991,-1.765367,0.038348,0.136723,0.024979,41.341065,10.669271,16.146031,4635729649149599700.000000,0.573243,0.388468,0.655853,-0.300570,0
-6.946257,1.164166,2.837559,-0.328333,0.040010,-0.071536,45.557785,-7.971434,4.409176,4635732431679258600.000000,0.812284,-0.010667,0.581177,0.048102,-11.632432,-0.539370,-1.157459,0.423858,-0.544152,-0.420348,44.874416,-9.977970,4.257152,4635728136175091700.000000,-0.661260,0.407946,-0.559380,-0.288806,-9.375808,1.056307,-1.651862,-0.013119,0.136951,0.035002,41.490354,10.659362,16.325471,4635729854698881000.000000,0.573004,0.388766,0.656071,-0.300162,0
-7.206994,0.902601,2.854717,-0.304948,0.077723,-0.117331,45.430260,-8.013502,4.443246,4635732370009651200.000000,0.812181,-0.011891,0.581274,0.048391,-12.217211,-0.521586,-1.077622,0.438615,-0.623873,-0.491813,44.927663,-9.701629,3.999648,4635728136175091700.000000,-0.664152,0.407102,-0.557312,-0.287357,-9.389579,0.925677,-1.465931,-0.044524,0.142109,0.054046,41.425148,10.433680,16.415307,4635729854698881000.000000,0.572826,0.389048,0.656310,-0.299614,0
-7.667708,0.709356,2.830304,-0.279791,0.065823,-0.161714,45.362709,-8.002616,4.238623,4635732324305076200.000000,0.812116,-0.013134,0.581332,0.048470,-12.860871,-0.418423,-0.993256,0.451823,-0.718932,-0.563670,45.000908,-9.516271,3.942991,4635728136175091700.000000,-0.667361,0.406267,-0.554865,-0.285834,-9.438403,0.869572,-1.491904,-0.060657,0.143268,0.069226,41.269591,10.354998,16.329345,4635729845550234600.000000,0.572691,0.389335,0.656545,-0.298983,0
-8.145344,0.597924,2.812900,-0.264108,0.027964,-0.201530,45.495895,-7.831239,4.106885,4635732324305076200.000000,0.812150,-0.014413,0.581261,0.048377,-13.463387,-0.183234,-0.816887,0.458913,-0.818835,-0.634448,45.136247,-9.224515,3.659071,4635728136175091700.000000,-0.670884,0.405449,-0.552016,-0.284261,-9.483072,0.653479,-1.550860,-0.054816,0.146837,0.089885,41.187778,10.425122,16.235846,4635729639950516200.000000,0.572563,0.389697,0.656748,-0.298312,0
-8.582998,0.526492,2.737605,-0.247906,-0.005266,-0.231396,45.643719,-7.727286,4.262912,4635732324305076200.000000,0.812272,-0.015703,0.581077,0.048145,-13.871900,-0.100994,-0.535039,0.445621,-0.889450,-0.696407,45.232838,-8.882700,3.197443,4635728136175091700.000000,-0.674604,0.404717,-0.548834,-0.282657,-9.439443,0.524918,-1.566188,-0.037771,0.158313,0.118861,41.191419,10.418882,16.244167,4635729639950516200.000000,0.572412,0.390194,0.656908,-0.297600,0
-9.045273,0.416396,2.734691,-0.224546,-0.032422,-0.249987,45.588988,-7.727286,4.382458,4635732324305076200.000000,0.812463,-0.016953,0.580803,0.047796,-14.231433,-0.053299,-0.354081,0.387288,-0.960907,-0.755928,45.306077,-8.549783,2.922104,4635728136175091700.000000,-0.678441,0.404190,-0.545265,-0.281131,-9.516327,0.529598,-1.651119,-0.022568,0.163518,0.150815,41.276871,10.274993,16.438966,4635729639950516200.000000,0.572262,0.390820,0.657009,-0.296843,0
-9.533544,0.164790,2.757064,-0.192167,-0.047473,-0.264327,45.514400,-7.629170,4.270325,4635732324305076200.000000,0.812695,-0.018124,0.580481,0.047320,-14.482293,0.052084,-0.618995,0.320872,-1.018885,-0.816513,45.450276,-8.335541,2.655844,4635728136175091700.000000,-0.682347,0.403909,-0.541335,-0.279672,-9.670856,0.637897,-1.720725,-0.026725,0.165472,0.180719,41.358681,10.190070,16.614275,4635729635389078500.000000,0.572150,0.391521,0.657070,-0.295999,0
-9.909707,-0.101735,2.739657,-0.159074,-0.047137,-0.272081,45.649367,-7.374167,4.117056,4635732324305076200.000000,0.812930,-0.019203,0.580165,0.046738,-14.592245,0.049967,-0.759058,0.269976,-1.051529,-0.879730,45.550219,-8.102529,2.291880,4635728136175091700.000000,-0.686292,0.403863,-0.537127,-0.278194,-9.729300,0.704918,-1.705406,-0.052587,0.163427,0.210854,41.355569,10.116307,16.614794,4635729532576333800.000000,0.572123,0.392240,0.657107,-0.295015,0
-10.048500,-0.132251,2.874608,-0.136526,-0.006234,-0.269154,45.802400,-7.281035,4.121125,4635732324305076200.000000,0.813066,-0.020205,0.579991,0.046108,-14.576775,-0.123069,-0.671478,0.227149,-1.062416,-0.940716,45.499262,-7.544527,1.830256,4635728136175091700.000000,-0.690236,0.404050,-0.532715,-0.276645,-9.730856,0.636341,-1.632918,-0.082792,0.163336,0.245786,41.285957,10.028263,16.630632,4635729532576333800.000000,0.572188,0.392982,0.657122,-0.293864,0
-9.995839,-0.127493,2.775408,-0.113918,0.058604,-0.259225,45.649615,-7.459378,4.120683,4635732324305076200.000000,0.813045,-0.021119,0.580040,0.045451,-14.261830,-0.227464,-0.785586,0.193257,-1.073966,-0.993541,45.410483,-7.121556,1.475063,4635728136175091700.000000,-0.694183,0.404423,-0.528120,-0.275028,-9.759717,0.678130,-1.855212,-0.096196,0.161109,0.273328,41.301266,9.877654,16.728279,4635729532576333800.000000,0.572315,0.393764,0.657102,-0.292613,0
-9.822911,-0.242778,2.512482,-0.085989,0.155958,-0.243183,45.467159,-7.519542,4.145535,4635732324305076200.000000,0.812787,-0.021918,0.580424,0.044772,-13.882304,-0.377186,-0.877788,0.172373,-1.080089,-1.031321,45.440340,-6.907295,1.178783,4635728136175091700.000000,-0.698125,0.404917,-0.523398,-0.273347,-9.610642,0.828552,-2.119951,-0.122221,0.156837,0.296302,41.379996,9.637126,16.825939,4635729532576333800.000000,0.572524,0.394542,0.657063,-0.291242,0
-9.785348,-0.270155,2.219093,-0.073702,0.198480,-0.222732,45.576075,-7.244934,4.278217,4635732324305076200.000000,0.812424,-0.022633,0.580954,0.044129,-13.711208,-0.507078,-0.908878,0.150627,-1.087950,-1.070641,45.637745,-6.559022,0.681833,4635728058166775800.000000,-0.702063,0.405534,-0.518540,-0.271600,-9.411908,0.802271,-2.016088,-0.132767,0.152700,0.331279,41.306750,9.485152,16.919460,4635729532576333800.000000,0.572802,0.395384,0.656967,-0.289764,0
-9.939032,-0.307189,1.887938,-0.079218,0.053910,-0.193404,45.631071,-7.019055,4.345836,4635732324305076200.000000,0.812404,-0.023269,0.580996,0.043611,-13.764318,-0.537126,-0.791392,0.144976,-1.085923,-1.096778,45.810942,-6.073020,0.108085,4635728028800909300.000000,-0.705987,0.406211,-0.513613,-0.269773,-9.416549,0.995335,-1.786406,-0.140604,0.151316,0.360071,41.242795,9.488762,16.915335,4635729537112000500.000000,0.573132,0.396284,0.656827,-0.288197,0
-9.903212,-0.283976,1.890940,-0.076574,-0.056646,-0.162447,45.594650,-7.080689,4.240777,4635732324305076200.000000,0.812647,-0.023801,0.580666,0.043203,-13.723416,-0.608076,-0.824471,0.135956,-1.070978,-1.106985,45.851006,-5.631259,-0.270549,4635728184817542100.000000,-0.709844,0.406935,-0.508680,-0.267899,-9.521259,0.848677,-1.890769,-0.155273,0.142635,0.388113,41.383614,9.560807,16.825927,4635729639950516200.000000,0.573541,0.397214,0.656635,-0.286535,0
-9.604660,-0.077873,1.975801,-0.052570,0.014188,-0.132839,45.776731,-7.013477,4.260768,4635732324305076200.000000,0.812715,-0.024192,0.580582,0.042830,-13.430675,-1.042700,-1.005270,0.140986,-1.044286,-1.105634,45.842138,-5.331524,-0.637782,4635728243549274100.000000,-0.713623,0.407654,-0.503811,-0.265960,-9.512145,0.434311,-2.141452,-0.138348,0.130976,0.422926,41.389118,9.321648,16.924101,4635729639950516200.000000,0.573994,0.398265,0.656333,-0.284854,0
-9.462535,0.134656,1.804336,-0.021910,0.122421,-0.099413,45.912045,-6.860373,4.389648,4635732324305076200.000000,0.812519,-0.024418,0.580872,0.042485,-12.958102,-1.763766,-0.893585,0.200833,-1.021363,-1.093604,45.954059,-4.959938,-1.099302,4635728243549274100.000000,-0.717412,0.408179,-0.499075,-0.263882,-9.573175,0.322534,-2.254770,-0.099258,0.121544,0.471335,41.249332,8.929135,17.029327,4635729639950516200.000000,0.574464,0.399529,0.655879,-0.283178,0
-9.626999,0.277550,1.425531,-0.003486,0.136326,-0.062939,45.771995,-6.872956,4.431287,4635732324305076200.000000,0.812285,-0.024495,0.581215,0.042217,-12.472005,-2.500685,-0.510932,0.251654,-0.988657,-1.084856,45.988628,-4.420778,-1.383667,4635728243549274100.000000,-0.721181,0.408554,-0.494486,-0.261657,-9.630099,0.463634,-2.171889,-0.021463,0.116473,0.502929,41.267709,8.770952,17.025214,4635729639950516200.000000,0.574853,0.401058,0.655265,-0.281646,0
-9.902544,0.343603,1.099917,0.007195,0.065265,-0.029232,45.576876,-6.951400,4.438289,4635732324305076200.000000,0.812218,-0.024442,0.581323,0.042045,-12.120038,-2.999275,-0.612283,0.224752,-0.955151,-1.067587,46.029617,-3.896884,-1.653254,4635728243549274100.000000,-0.724789,0.408995,-0.489978,-0.259472,-9.595019,1.040464,-2.140791,0.050979,0.117226,0.523572,41.416635,8.623951,16.939895,4635729639950516200.000000,0.575141,0.402815,0.654529,-0.280258,0
-10.092288,0.284005,0.987005,0.018488,0.002357,-0.005608,45.558206,-6.940629,4.436494,4635732324305076200.000000,0.812301,-0.024283,0.581221,0.041932,-11.540071,-2.979916,-0.589444,0.205771,-0.921558,-1.032263,46.046326,-3.511666,-2.088043,4635728243549274100.000000,-0.728231,0.409443,-0.485591,-0.257365,-9.597583,1.673536,-1.965392,0.089206,0.110549,0.528069,41.343398,8.468349,17.135190,4635729639950516200.000000,0.575385,0.404667,0.653720,-0.278973,0
-10.158354,0.161931,0.920584,0.027787,-0.012504,0.003361,45.636657,-6.909390,4.431287,4635732324305076200.000000,0.812421,-0.024067,0.581071,0.041829,-10.794428,-2.770218,-0.451825,0.158254,-0.892032,-0.987797,46.099510,-3.240785,-2.505408,4635728243549274100.000000,-0.731460,0.409964,-0.481302,-0.255430,-9.663725,1.965840,-1.962836,0.002662,0.097554,0.537368,41.270164,8.389554,17.334065,4635729639950516200.000000,0.575819,0.406320,0.652961,-0.277450,0
-10.259758,0.228855,0.815939,0.038326,-0.001495,0.000598,45.765886,-6.902391,4.543276,4635732324305076200.000000,0.812515,-0.023824,0.580959,0.041690,-9.697379,-2.293417,-0.007290,0.144098,-0.831683,-0.934886,46.172755,-2.925722,-2.754215,4635728087609954300.000000,-0.734465,0.410473,-0.477256,-0.253573,-9.834566,1.697340,-1.916622,-0.037043,0.079793,0.538654,41.207142,8.453596,17.603075,4635729639950516200.000000,0.576366,0.407859,0.652199,-0.275844,0
-10.460426,0.282402,0.650100,0.042569,-0.009967,0.008886,45.838799,-6.946169,4.570621,4635732324305076200.000000,0.812629,-0.023545,0.580819,0.041569,-8.459018,-2.659232,0.359209,0.215842,-0.753627,-0.898736,46.245995,-2.592808,-2.887473,4635728028800909300.000000,-0.737380,0.410763,-0.473572,-0.251543,-9.729300,1.745133,-2.200891,-0.107613,0.046287,0.520945,41.374450,8.296973,17.599516,4635729639950516200.000000,0.577102,0.409139,0.651463,-0.274143,0
-10.685383,0.228360,0.561541,0.036759,-0.046471,0.025664,45.789808,-7.031627,4.423963,4635732324305076200.000000,0.812829,-0.023239,0.580556,0.041523,-7.586147,-3.370582,0.590136,0.271939,-0.700661,-0.859040,46.141977,-2.316396,-3.059376,4635728028800909300.000000,-0.740227,0.410847,-0.470165,-0.249427,-9.730830,2.561997,-2.271569,-0.225114,0.004270,0.512575,41.459400,7.909860,17.505898,4635729639950516200.000000,0.578140,0.410065,0.650770,-0.272213,0
-10.765140,0.242519,0.526547,0.036175,-0.085978,0.035106,45.704358,-7.068087,4.289846,4635732324305076200.000000,0.813122,-0.022905,0.580159,0.041515,-6.977784,-3.467069,0.815388,0.280733,-0.637772,-0.803613,45.979936,-2.130944,-3.254695,4635728028800909300.000000,-0.742891,0.410853,-0.467045,-0.247352,-9.761335,2.223224,-2.021358,-0.242200,-0.021276,0.484181,41.529587,7.610793,17.232775,4635729639950516200.000000,0.579241,0.410841,0.650079,-0.270347,0
-10.726730,0.191584,0.472511,0.047638,-0.109434,0.045958,45.716883,-6.977112,4.353147,4635732324305076200.000000,0.813472,-0.022501,0.579684,0.041518,-6.380845,-2.934016,0.666248,0.270550,-0.540141,-0.725967,45.989631,-1.786163,-3.458858,4635728028800909300.000000,-0.745254,0.410832,-0.464339,-0.245364,-9.657073,1.698354,-2.187158,-0.209180,-0.044684,0.465847,41.527045,7.448557,17.143261,4635729639950516200.000000,0.580326,0.411619,0.649321,-0.268653,0
-10.698895,0.127283,0.549647,0.072845,-0.127607,0.063361,45.753349,-6.909390,4.431287,4635732324305076200.000000,0.813865,-0.021967,0.579153,0.041521,-5.974309,-1.213632,0.497341,0.201130,-0.447769,-0.622977,46.062872,-1.424293,-3.586624,4635728184688688100.000000,-0.747204,0.410916,-0.462018,-0.243668,-9.677420,1.750226,-2.243105,-0.154838,-0.066225,0.442926,41.469056,7.198309,17.241428,4635729639950516200.000000,0.581348,0.412441,0.648486,-0.267196,0
-10.693686,0.052110,0.692541,0.106722,-0.160598,0.082585,45.711370,-6.951368,4.438284,4635732324305076200.000000,0.814337,-0.021266,0.578516,0.041511,-5.689016,1.607166,-0.058945,-0.082732,-0.356597,-0.493574,46.020916,-1.268577,-3.684283,4635728243549274100.000000,-0.748354,0.411724,-0.459908,-0.242763,-9.605702,2.141378,-2.454705,-0.129424,-0.091727,0.409057,41.483805,6.820889,17.346720,4635729639950516200.000000,0.582355,0.413203,0.647615,-0.265933,0
-10.721666,-0.083941,0.800613,0.145028,-0.188786,0.097525,45.631137,-7.031601,4.387534,4635732324305076200.000000,0.814876,-0.020393,0.577790,0.041462,-5.331873,5.368760,0.098061,-0.528620,-0.278406,-0.402604,45.935473,-1.245155,-3.781934,4635728243549274100.000000,-0.748492,0.413824,-0.457744,-0.242859,-9.575166,2.264959,-2.473034,-0.134184,-0.113312,0.381780,41.560590,6.754242,17.342158,4635729639950516200.000000,0.583397,0.413854,0.646742,-0.264759,0
-10.826466,-0.272416,0.968238,0.180723,-0.216128,0.110500,45.685599,-7.068087,4.184929,4635732324305076200.000000,0.815482,-0.019364,0.576977,0.041373,-4.595709,5.876304,0.134481,-1.304348,-0.052275,-0.456046,45.965203,-1.067955,-3.888450,4635728243549274100.000000,-0.746899,0.418666,-0.455397,-0.243873,-9.684019,2.424162,-2.359577,-0.150339,-0.115937,0.341013,41.712696,6.832598,17.233305,4635729639950516200.000000,0.584428,0.414353,0.645947,-0.263644,0
-10.958961,-0.345235,1.055048,0.204809,-0.268672,0.120713,45.844293,-7.026112,4.002104,4635732324305076200.000000,0.816212,-0.018218,0.575988,0.041266,-3.968203,3.764848,-1.603461,-2.078792,0.267514,-0.428053,46.038448,-0.637747,-3.847696,4635728243549274100.000000,-0.743280,0.426167,-0.453281,-0.245871,-9.762882,2.575806,-2.432865,-0.168590,-0.129202,0.296594,41.712696,6.747653,17.147347,4635729635492697100.000000,0.585476,0.414673,0.645213,-0.262609,0
-10.969112,-0.259657,1.056831,0.213785,-0.343457,0.134309,46.002970,-6.945882,4.011153,4635732324305076200.000000,0.817118,-0.016997,0.574746,0.041190,-4.024673,2.608904,-3.061184,-2.410429,0.510053,-0.327898,46.049674,-0.314466,-3.829776,4635728087705968600.000000,-0.738443,0.434716,-0.451714,-0.248351,-9.691668,2.285894,-2.235977,-0.164274,-0.128134,0.262860,41.715729,6.680988,17.049698,4635729532576333800.000000,0.586476,0.414913,0.644534,-0.261666,0
-10.874883,-0.067636,1.118000,0.217146,-0.395873,0.150020,45.979812,-6.860429,4.052858,4635732324305076200.000000,0.818144,-0.015717,0.573323,0.041163,-4.181405,1.352012,-3.927264,-2.466145,0.677241,-0.210435,46.046326,-0.191003,-3.691405,4635728028800909300.000000,-0.732989,0.443342,-0.450767,-0.250967,-9.672812,2.075258,-2.281774,-0.159419,-0.127242,0.239803,41.793018,6.749761,16.964170,4635729532576333800.000000,0.587439,0.415103,0.643889,-0.260790,0
-10.723052,0.204485,1.124732,0.216522,-0.433581,0.163906,45.723198,-6.970818,3.843029,4635732324305076200.000000,0.819254,-0.014399,0.571769,0.041188,-4.441865,0.585645,-4.058586,-2.325099,0.788621,-0.081977,46.161481,-0.224052,-3.283481,4635728028800909300.000000,-0.727374,0.451365,-0.450496,-0.253477,-9.778635,2.074753,-2.252811,-0.166005,-0.130535,0.226985,41.954318,6.432370,17.159487,4635729532576333800.000000,0.588408,0.415239,0.643264,-0.259932,0
-10.532971,0.378550,1.112652,0.214086,-0.471406,0.168612,45.582443,-7.318050,3.476851,4635732324305076200.000000,0.820448,-0.013072,0.570082,0.041237,-4.785813,0.159377,-3.780434,-2.106576,0.890175,0.041648,46.320167,-0.191003,-3.016648,4635728028800909300.000000,-0.721779,0.458559,-0.450953,-0.255735,-9.785802,2.063555,-2.120057,-0.177259,-0.135699,0.214345,41.892282,6.125093,17.342688,4635729532576333800.000000,0.589396,0.415307,0.642657,-0.259083,0
-10.337649,0.596871,1.172032,0.206899,-0.503752,0.159745,45.624402,-7.544297,3.215518,4635732324305076200.000000,0.821716,-0.011785,0.568278,0.041275,-5.122102,-0.243454,-3.376638,-1.873936,0.990681,0.174745,46.363716,-0.224046,-2.824686,4635728028800909300.000000,-0.716239,0.464872,-0.452178,-0.257742,-9.680974,2.070723,-2.030964,-0.202002,-0.137208,0.206241,41.809852,6.054872,17.237471,4635729541441501200.000000,0.590421,0.415291,0.642086,-0.258190,0
-10.163323,0.767404,1.292437,0.194538,-0.534726,0.156872,45.704632,-7.440958,3.130311,4635732324305076200.000000,0.823052,-0.010542,0.566362,0.041335,-5.451702,-0.504585,-2.913951,-1.652894,1.086144,0.316411,46.301719,-0.253005,-2.345941,4635728184611375100.000000,-0.710744,0.470329,-0.454167,-0.259550,-9.693182,1.962369,-2.138311,-0.230445,-0.148913,0.208465,41.808227,6.051849,16.968290,4635729747324698600.000000,0.591528,0.415197,0.641510,-0.257235,0
-9.934736,0.793481,1.389975,0.184780,-0.565087,0.162212,45.832020,-7.336649,3.069169,4635732324305076200.000000,0.824452,-0.009313,0.564336,0.041437,-5.772417,-0.596965,-2.358200,-1.464268,1.162310,0.438608,46.278267,-0.318348,-1.768893,4635728243549274100.000000,-0.705297,0.475048,-0.456796,-0.261197,-9.698856,1.882600,-2.179598,-0.248483,-0.159462,0.212649,42.048830,5.975095,16.967788,4635729747324698600.000000,0.592699,0.415059,0.640918,-0.256238,0
-9.612021,0.884361,1.381105,0.184644,-0.592549,0.158990,45.899837,-7.476464,2.922575,4635732324305076200.000000,0.825912,-0.008088,0.562210,0.041529,-6.036666,-0.787482,-1.719130,-1.316888,1.220890,0.538948,46.340254,-0.465786,-1.398843,4635728243549274100.000000,-0.699879,0.479178,-0.459928,-0.262725,-9.549854,1.661714,-2.048834,-0.237990,-0.166675,0.214786,42.197475,5.822931,16.948546,4635729747324698600.000000,0.593872,0.414943,0.640291,-0.255276,0
-9.237088,1.001101,1.355022,0.197934,-0.602280,0.146320,45.850913,-7.580798,2.739489,4635732324305076200.000000,0.827390,-0.006846,0.560047,0.041548,-6.254247,-0.996208,-0.997941,-1.175809,1.266067,0.625490,46.301729,-0.689823,-0.964175,4635728087764579300.000000,-0.694521,0.482753,-0.463493,-0.264129,-9.345345,1.707882,-1.994478,-0.208553,-0.167435,0.217186,42.109008,5.822931,16.765436,4635729747324698600.000000,0.594997,0.414905,0.639624,-0.254387,0
-8.916369,1.023654,1.480802,0.218381,-0.573241,0.122807,45.765469,-7.489956,2.437604,4635732324305076200.000000,0.828799,-0.005592,0.557982,0.041436,-6.568009,-1.235782,-0.324190,-1.058257,1.286802,0.710348,46.216284,-0.880823,-0.272267,4635728028800909300.000000,-0.689229,0.485820,-0.467391,-0.265494,-9.216089,1.974410,-1.803372,-0.214917,-0.161027,0.225730,41.966865,5.822931,16.601384,4635729747324698600.000000,0.596125,0.414881,0.638963,-0.253448,0
-8.717674,1.027192,1.560778,0.226904,-0.517377,0.092897,45.721943,-7.422101,2.158759,4635732324305076200.000000,0.830078,-0.004388,0.556106,0.041201,-6.957429,-1.518692,0.367051,-0.940306,1.286449,0.802769,46.201668,-1.175679,0.222295,4635728028800909300.000000,-0.684037,0.488342,-0.471582,-0.266881,-9.206386,2.190135,-1.435463,-0.219907,-0.154838,0.234012,42.208007,5.813412,16.874139,4635729751731511300.000000,0.597252,0.414872,0.638305,-0.252464,0
-8.578176,1.016664,1.508410,0.224613,-0.481564,0.065435,45.765644,-7.610788,2.033328,4635732324305076200.000000,0.831273,-0.003261,0.554350,0.040876,-7.307148,-1.749690,1.021956,-0.782125,1.272586,0.897834,46.328981,-1.570611,0.471266,4635728028800909300.000000,-0.679055,0.490186,-0.476077,-0.268241,-9.246700,2.300186,-1.320403,-0.216396,-0.153769,0.236104,42.374904,5.581472,16.944561,4635729854698881000.000000,0.598372,0.414877,0.637640,-0.251481,0
-8.422938,1.056909,1.546974,0.214683,-0.457749,0.033687,45.802177,-7.800616,1.946112,4635732324305076200.000000,0.832414,-0.002246,0.552670,0.040463,-7.707544,-1.824402,1.638979,-0.601647,1.222962,0.989018,46.322807,-1.985626,0.879041,4635728028800909300.000000,-0.674404,0.491259,-0.480797,-0.269588,-9.091019,2.137794,-1.371226,-0.205060,-0.152527,0.236867,42.435649,5.349559,16.675812,4635729854698881000.000000,0.599469,0.414913,0.636963,-0.250524,0
-8.210108,1.196495,1.571219,0.186889,-0.452755,0.001038,45.802177,-7.655470,1.785562,4635732324305076200.000000,0.833546,-0.001403,0.550999,0.040002,-8.055087,-1.857665,2.302386,-0.419497,1.139331,1.056271,46.187611,-2.285557,1.296466,4635728028800909300.000000,-0.670189,0.491570,-0.485602,-0.270917,-9.005067,2.184407,-1.467386,-0.179624,-0.147448,0.230589,42.207205,5.120615,16.688021,4635729850304953300.000000,0.600501,0.415001,0.636280,-0.249640,0
-8.000911,1.262583,1.445536,0.143393,-0.491249,-0.019697,45.753268,-7.470852,1.640933,4635732324305076200.000000,0.834764,-0.000751,0.549183,0.039568,-8.381550,-2.000628,2.906717,-0.274226,1.052835,1.091026,46.090826,-2.657259,1.625344,4635728028800909300.000000,-0.666380,0.491287,-0.490380,-0.272215,-8.907909,2.457184,-1.532917,-0.186038,-0.148691,0.227559,42.069209,4.968413,16.691737,4635729747324698600.000000,0.601543,0.415063,0.635605,-0.248748,0
-7.796866,1.376116,1.395171,0.093498,-0.536086,-0.037860,45.758638,-7.574019,1.501373,4635732324305076200.000000,0.836084,-0.000308,0.547200,0.039186,-8.666922,-2.299006,3.267906,-0.183912,0.966878,1.094178,46.079602,-3.143324,2.205361,4635728028800909300.000000,-0.662904,0.490631,-0.495010,-0.273502,-8.831913,2.536160,-1.701299,-0.242680,-0.154422,0.228584,42.131227,4.964937,16.504410,4635729747324698600.000000,0.602698,0.414979,0.634969,-0.247713,0
-7.667947,1.457904,1.402089,0.037340,-0.535274,-0.055555,45.831878,-7.727351,1.155856,4635732324305076200.000000,0.837400,-0.000100,0.545207,0.038870,-8.811404,-2.658539,3.415732,-0.141712,0.883461,1.070226,46.144988,-3.585131,2.818072,4635728028800909300.000000,-0.659692,0.489796,-0.499392,-0.274797,-8.979415,2.465895,-1.813171,-0.299757,-0.169160,0.228627,42.213698,4.876984,16.508394,4635729747324698600.000000,0.603990,0.414736,0.634352,-0.246551,0
-7.767547,1.354905,1.412596,-0.022472,-0.490393,-0.063175,45.912101,-7.722004,0.784561,4635732324305076200.000000,0.838611,-0.000125,0.543357,0.038663,-8.855883,-3.015867,3.477935,-0.140497,0.808199,1.020642,46.177261,-3.938113,3.049501,4635728028800909300.000000,-0.656677,0.488961,-0.503452,-0.276097,-9.150815,2.458425,-1.972364,-0.343049,-0.178904,0.230218,42.225407,4.729998,16.602068,4635729747324698600.000000,0.605382,0.414377,0.633750,-0.245287,0
-8.008236,1.372572,1.386361,-0.095123,-0.465712,-0.075700,45.899775,-7.641774,0.715074,4635732324305076200.000000,0.839764,-0.000436,0.541579,0.038577,-8.853714,-3.547047,3.562201,-0.176469,0.714641,0.942329,46.127443,-4.276534,3.156009,4635728028800909300.000000,-0.653858,0.488268,-0.507041,-0.277441,-9.337380,2.275336,-2.133316,-0.398568,-0.191676,0.243972,42.228883,4.574797,16.602068,4635729747324698600.000000,0.606916,0.413899,0.633144,-0.243862,0
-8.257620,1.405549,1.222309,-0.168207,-0.519496,-0.087440,45.905123,-7.514409,0.638116,4635732324305076200.000000,0.841036,-0.001021,0.539598,0.038615,-8.894673,-4.375630,3.916836,-0.252640,0.607734,0.841073,45.992168,-4.609499,3.257021,4635728028800909300.000000,-0.651214,0.487863,-0.510034,-0.278882,-9.596010,2.100664,-2.055624,-0.427172,-0.203555,0.254782,42.310860,4.507503,16.602068,4635729747324698600.000000,0.608540,0.413363,0.632515,-0.242354,0
-8.431911,1.190868,1.109113,-0.233205,-0.590876,-0.092780,45.936459,-7.446516,0.388700,4635732324305076200.000000,0.842464,-0.001834,0.537351,0.038779,-9.026590,-5.388600,4.341904,-0.350302,0.509643,0.739691,45.895505,-4.947941,3.425558,4635728028800909300.000000,-0.648688,0.487816,-0.512433,-0.280449,-9.609036,2.118147,-1.870533,-0.425859,-0.217945,0.269275,42.310365,4.568370,16.586720,4635729747324698600.000000,0.610210,0.412853,0.631818,-0.240837,0
-8.588884,0.889238,1.000910,-0.288122,-0.600744,-0.099342,45.936459,-7.544272,0.066069,4635732324305076200.000000,0.843908,-0.002852,0.535057,0.039044,-9.132114,-6.287709,4.499997,-0.461841,0.412557,0.634164,45.822269,-5.280849,3.629712,4635728028800909300.000000,-0.646257,0.488177,-0.514218,-0.282161,-9.362584,1.970688,-1.633682,-0.441597,-0.218625,0.298068,42.302109,4.330038,16.212284,4635729747324698600.000000,0.611936,0.412375,0.631081,-0.239204,0
-8.723118,0.671308,0.767159,-0.319082,-0.605961,-0.098265,45.929476,-7.575523,-0.197176,4635732324305076200.000000,0.845357,-0.003977,0.532734,0.039380,-9.058108,-6.899670,4.357286,-0.653159,0.328242,0.519308,45.864188,-5.495277,3.899241,4635728028800909300.000000,-0.643746,0.489194,-0.515310,-0.284142,-9.350871,1.799784,-1.291023,-0.398686,-0.210339,0.326272,42.390524,3.942857,15.942868,4635729747324698600.000000,0.613591,0.412087,0.630269,-0.237597,0
-8.792846,0.493424,0.563202,-0.338462,-0.645494,-0.081013,45.973130,-7.453402,-0.343613,4635732324305076200.000000,0.846882,-0.005124,0.530264,0.039821,-9.003552,-7.114548,4.084376,-0.903450,0.251518,0.407228,46.011664,-5.657336,3.979614,4635728028800909300.000000,-0.641012,0.491025,-0.515664,-0.286511,-9.346922,1.636779,-1.223208,-0.326916,-0.208202,0.365071,42.543295,3.650014,15.950766,4635729747324698600.000000,0.615152,0.412084,0.629320,-0.236073,0
-8.953367,0.226562,0.458617,-0.345315,-0.677519,-0.043010,45.960836,-7.427366,-0.495353,4635732324305076200.000000,0.848462,-0.006207,0.527674,0.040410,-9.058869,-7.088177,3.880003,-1.155055,0.175684,0.284037,45.943367,-5.762870,3.908742,4635728028800909300.000000,-0.638061,0.493693,-0.515252,-0.289241,-9.265025,1.659222,-1.296052,-0.277072,-0.206669,0.412365,42.558454,3.650014,16.145571,4635729747324698600.000000,0.616668,0.412333,0.628241,-0.234556,0
-9.204501,0.015639,0.441222,-0.335391,-0.685140,0.000782,45.875382,-7.367967,-0.797150,4635732262898694100.000000,0.850044,-0.007157,0.525054,0.041132,-9.108883,-7.351560,3.833125,-1.362551,0.085120,0.139586,45.722667,-5.910329,3.881954,4635728028800909300.000000,-0.635035,0.497100,-0.514039,-0.292209,-9.555542,1.641699,-1.643668,-0.262859,-0.219789,0.466539,42.650305,3.637216,16.317361,4635729747324698600.000000,0.618243,0.412744,0.627016,-0.232958,0
-9.432913,-0.085484,0.542417,-0.303948,-0.697509,0.044422,45.880681,-7.118540,-1.138891,4635732216930893800.000000,0.851637,-0.007898,0.522391,0.041940,-9.083500,-8.069889,4.027989,-1.461798,-0.018755,-0.019535,45.779693,-6.019215,3.881954,4635728028800909300.000000,-0.632198,0.500969,-0.512083,-0.295173,-9.776653,1.776867,-1.821759,-0.290967,-0.240385,0.513710,42.888054,3.317364,16.220193,4635729747324698600.000000,0.619961,0.413184,0.625679,-0.231198,0
-9.731170,-0.156973,0.777886,-0.268095,-0.665584,0.092793,45.953922,-7.171090,-1.423127,4635732216930893800.000000,0.853145,-0.008412,0.519844,0.042840,-8.910674,-8.885601,4.216829,-1.480160,-0.113166,-0.206688,46.056877,-5.918666,3.819955,4635728028800909300.000000,-0.629731,0.505151,-0.509446,-0.297870,-9.746415,1.639657,-1.593281,-0.300917,-0.267767,0.565748,42.963679,2.944377,16.138678,4635729747324698600.000000,0.621814,0.413704,0.624185,-0.229324,0
-10.111372,-0.106326,0.875426,-0.243071,-0.594778,0.138113,45.985287,-7.458824,-1.747547,4635732216930893800.000000,0.854485,-0.008751,0.517549,0.043843,-8.628941,-9.567290,4.251527,-1.469603,-0.201341,-0.410977,46.081985,-5.747762,3.716789,4635728028800909300.000000,-0.627702,0.509610,-0.506142,-0.300180,-9.875360,1.424279,-1.461024,-0.292023,-0.286183,0.637105,42.808419,2.697284,16.143033,4635729747324698600.000000,0.623761,0.414412,0.622504,-0.227317,0
-10.522891,0.132619,0.833582,-0.244916,-0.620619,0.184650,45.978308,-7.519738,-2.071846,4635732216930893800.000000,0.855865,-0.008993,0.515159,0.045017,-8.244042,-10.033791,4.159606,-1.473249,-0.277304,-0.615873,45.996532,-5.638858,3.615779,4635728028800909300.000000,-0.626055,0.514395,-0.502177,-0.302111,-10.170790,1.018001,-1.669039,-0.248310,-0.310192,0.729867,42.741061,2.383328,15.955997,4635729747324698600.000000,0.625776,0.415446,0.620552,-0.225221,0
-10.887330,0.568633,0.929550,-0.297725,-0.747126,0.239736,45.931211,-7.531987,-2.302008,4635732216930893800.000000,0.857494,-0.009281,0.512304,0.046505,-7.837882,-10.436600,3.886990,-1.502527,-0.339565,-0.810572,46.035073,-5.553413,3.447281,4635728028800909300.000000,-0.624689,0.519561,-0.497572,-0.303713,-10.518892,0.542483,-1.878962,-0.181666,-0.320744,0.844702,42.821149,2.151414,15.674770,4635729747324698600.000000,0.627802,0.416935,0.618300,-0.223013,0
-11.002350,0.898154,1.055084,-0.356771,-0.847970,0.297873,45.802142,-7.666285,-2.485116,4635732216930893800.000000,0.859313,-0.009636,0.509071,0.048329,-7.302217,-10.989977,3.495412,-1.523345,-0.389012,-1.011063,45.996543,-5.290852,3.181124,4635728028800909300.000000,-0.623600,0.525106,-0.492349,-0.304925,-10.726908,0.375004,-1.849164,-0.130823,-0.328264,0.973522,43.061872,1.916537,15.385707,4635729747324698600.000000,0.629867,0.418875,0.615746,-0.220609,0
-10.888989,1.011476,1.177156,-0.370494,-0.854515,0.345168,45.680096,-7.690657,-2.779833,4635732216930893800.000000,0.861120,-0.009940,0.505804,0.050352,-6.689695,-11.511791,3.186627,-1.529001,-0.419445,-1.218953,46.026214,-4.961252,2.958991,4635728028800909300.000000,-0.622784,0.531020,-0.486553,-0.305655,-10.952511,0.274387,-1.694872,-0.087965,-0.336595,1.118449,43.214696,1.604994,15.194793,4635729747324698600.000000,0.631997,0.421282,0.612863,-0.217943,0
-10.857616,1.191103,1.552103,-0.389570,-0.833002,0.362102,45.685337,-7.751707,-3.207075,4635732216930893800.000000,0.862862,-0.010281,0.502602,0.052473,-5.881303,-11.991148,2.634800,-1.572970,-0.399852,-1.441443,46.214542,-4.498908,2.684025,4635728028800909300.000000,-0.622066,0.537484,-0.480223,-0.305829,-11.333813,-0.174806,-1.649951,0.009182,-0.340098,1.281429,43.223487,1.137751,15.109838,4635729747324698600.000000,0.634096,0.424347,0.609578,-0.215097,0
-11.091310,1.368977,1.838090,-0.436264,-0.839870,0.362102,45.716724,-7.971443,-3.622124,4635732216930893800.000000,0.864601,-0.010789,0.499356,0.054692,-5.329939,-11.705826,2.170369,-1.555317,-0.375155,-1.651920,46.322534,-3.995040,2.458517,4635728028800909300.000000,-0.621552,0.544308,-0.473466,-0.305339,-12.087245,-0.246123,-1.683170,0.102755,-0.350822,1.458956,43.157074,0.588418,15.039521,4635729747324698600.000000,0.636192,0.428084,0.605844,-0.212029,0
-11.459251,1.339331,1.705559,-0.448470,-0.850551,0.372478,45.716724,-8.032474,-3.888924,4635732216930893800.000000,0.866344,-0.011317,0.496059,0.056973,-4.477667,-11.875806,1.549511,-1.477328,-0.359508,-1.849745,46.445551,-3.370562,2.254338,4635728028800909300.000000,-0.621375,0.551289,-0.466355,-0.304118,-13.048211,0.300782,-1.343315,0.132153,-0.362187,1.616229,43.257660,0.039575,15.036107,4635729747324698600.000000,0.638373,0.432267,0.601746,-0.208630,0
-11.795813,1.114387,1.665425,-0.434432,-0.851161,0.383922,45.619081,-8.002824,-4.134797,4635732216930893800.000000,0.868068,-0.011771,0.492754,0.059265,-2.667948,-16.895042,-0.459641,-1.476692,-0.189939,-1.966953,46.592017,-2.584195,2.259297,4635728028800909300.000000,-0.620953,0.558654,-0.459366,-0.302170,-13.924611,0.486351,-1.055235,0.099168,-0.363387,1.780062,43.422220,-0.503811,14.946774,4635729747324698600.000000,0.640724,0.436749,0.597343,-0.204703,0
-12.003344,0.814455,1.872927,-0.421463,-0.863060,0.383618,45.497005,-8.287008,-4.511440,4635732216930893800.000000,0.869801,-0.012177,0.489400,0.061528,-2.609687,-18.856786,-0.581018,-1.028850,-0.278908,-1.817544,46.614578,-1.931171,2.203124,4635728028800909300.000000,-0.621498,0.564411,-0.453015,-0.299930,-14.751262,0.441412,-0.881413,0.094895,-0.342365,1.954298,43.431509,-1.200120,14.764149,4635729747324698600.000000,0.643137,0.441643,0.592644,-0.200248,0
-12.095780,0.467447,2.124036,-0.374629,-0.876948,0.381939,45.418531,-8.642789,-4.860232,4635732216930893800.000000,0.871548,-0.012413,0.485997,0.063690,-4.055873,-11.408038,2.209789,-0.222760,-0.557220,-1.568188,46.475082,-1.230085,1.951611,4635728028800909300.000000,-0.624112,0.567226,-0.447508,-0.297448,-15.796180,0.468844,-0.640670,0.089729,-0.330611,2.133014,43.370474,-1.911550,14.600541,4635729747324698600.000000,0.645629,0.446940,0.587606,-0.195264,0
-12.135898,0.068098,2.491961,-0.292691,-0.861239,0.370804,45.428965,-8.752708,-5.141003,4635732216930893800.000000,0.873255,-0.012378,0.482663,0.065643,-4.821015,-2.383062,3.460499,0.257936,-0.623851,-1.418846,46.530961,-0.538642,1.646469,4635728028800909300.000000,-0.627771,0.568403,-0.442754,-0.294602,-17.014356,-0.042671,-0.488296,0.064174,-0.344580,2.347460,43.312837,-2.710758,14.609352,4635729747324698600.000000,0.648316,0.452641,0.582096,-0.189648,0
-12.069671,-0.075005,2.755352,-0.197482,-0.861073,0.338309,45.411564,-8.899127,-5.582117,4635732216930893800.000000,0.874960,-0.012063,0.479346,0.067285,-3.745925,0.874901,1.511421,0.137112,-0.426124,-1.323546,46.739389,-0.000025,1.420952,4635728028800909300.000000,-0.630637,0.569940,-0.438576,-0.291747,-18.183266,-1.124675,-0.488781,0.067328,-0.360857,2.609487,43.343553,-3.653633,14.532230,4635729738795576300.000000,0.651171,0.458922,0.575980,-0.183342,0
-12.012085,-0.048830,3.205041,-0.103646,-0.901496,0.297876,45.374920,-9.099685,-5.927494,4635732216930893800.000000,0.876747,-0.011475,0.475897,0.068594,-3.871232,2.521653,-0.656966,0.024863,-0.426346,-1.124638,46.679289,0.320126,1.145986,4635728028800909300.000000,-0.632975,0.571391,-0.434719,-0.289612,-19.588286,-2.381529,-0.505338,0.096747,-0.383624,2.907064,43.523261,-4.669631,14.361345,4635729532576333800.000000,0.654160,0.465916,0.569130,-0.176317,0
-11.900548,-0.111569,3.845106,-0.050518,-0.958716,0.271163,45.367947,-9.077136,-6.117579,4635732216930893800.000000,0.878642,-0.010730,0.472244,0.069702,-8.434183,0.183650,3.302164,-0.068480,-0.741213,-1.050792,46.508399,0.691492,0.920465,4635728184463841300.000000,-0.635553,0.572559,-0.430081,-0.288581,-21.335273,-3.349176,-0.643365,0.164273,-0.414981,3.248004,43.608832,-5.753673,14.194310,4635729532576333800.000000,0.657230,0.473800,0.561384,-0.168553,0
-11.454282,-0.200521,4.220192,0.003785,-1.028749,0.258343,45.265118,-9.016034,-6.577786,4635732216930893800.000000,0.880664,-0.009791,0.468341,0.070658,-10.570029,-6.103403,6.916493,-0.349442,-0.679896,-1.046304,46.452527,1.106566,0.787082,4635728243549274100.000000,-0.637326,0.574519,-0.425265,-0.287910,-23.405214,-4.692957,-1.187621,0.185889,-0.454724,3.620904,43.395024,-6.779095,14.125416,4635729532576333800.000000,0.660470,0.482486,0.552658,-0.159860,0
-10.847451,-0.231941,4.804039,0.077785,-1.025760,0.257268,45.101205,-9.167628,-7.236907,4635732216930893800.000000,0.882664,-0.008583,0.464460,0.071464,-12.843012,-5.347058,3.677625,-0.521775,-0.602091,-0.949708,46.449169,1.397714,0.615280,4635728243549274100.000000,-0.638414,0.576843,-0.420668,-0.287606,-25.338448,-6.067914,-2.236600,0.209812,-0.472682,4.021679,43.035087,-7.823363,14.158171,4635729532576333800.000000,0.663795,0.492022,0.542915,-0.150114,0
-10.400901,-0.259816,5.580127,0.149196,-0.972498,0.270536,44.984330,-9.368220,-7.568542,4635732278226824200.000000,0.884542,-0.007103,0.460787,0.072178,-15.546898,-1.274253,2.367580,-0.311155,-0.739552,-0.877652,46.502260,1.588764,0.207609,4635728243549274100.000000,-0.640146,0.578301,-0.416119,-0.287448,-27.027997,-7.640885,-4.155352,0.139421,-0.455269,4.400336,42.828066,-9.327111,14.097141,4635729532576333800.000000,0.667249,0.502073,0.532314,-0.139077,0
-9.884831,-0.266831,5.667911,0.230675,-1.010723,0.305010,44.898871,-9.485110,-7.765513,4635732324305076200.000000,0.886467,-0.005245,0.456989,0.072863,-15.582303,-2.245661,0.574494,-0.135648,-0.688339,-0.885036,46.522415,1.883544,-0.130266,4635728243549274100.000000,-0.642205,0.579351,-0.411888,-0.286834,-27.346029,-9.367408,-6.096321,0.042598,-0.328132,4.739852,42.620218,-10.896888,14.028875,4635729532576333800.000000,0.670571,0.512496,0.521214,-0.126565,0
-8.931196,-0.284233,5.610080,0.303933,-1.115854,0.359477,44.722818,-9.577529,-8.262329,4635732324305076200.000000,0.888556,-0.002981,0.452815,0.073611,-16.806624,-5.829877,-2.496489,-0.117545,-0.574049,-0.879037,46.566650,2.402266,-0.216373,4635728243549274100.000000,-0.644089,0.580466,-0.407989,-0.285923,-27.471324,-8.542288,-7.122057,-0.133421,-0.259082,5.045987,42.101245,-12.648322,13.777981,4635729532576333800.000000,0.673995,0.522910,0.509524,-0.112613,0
-7.531108,-0.563029,6.141619,0.358717,-1.087753,0.413041,44.520496,-9.716996,-8.754245,4635732263009145900.000000,0.890551,-0.000421,0.448750,0.074453,-17.583458,-5.832204,-3.959854,0.055979,-0.489315,-0.912450,46.512675,2.864346,-0.299355,4635728243549274100.000000,-0.646276,0.581263,-0.404435,-0.284417,-29.698306,-7.554439,-7.498918,-0.556204,-0.357905,5.255026,41.435453,-14.545843,13.365886,4635729532576333800.000000,0.678328,0.532286,0.497059,-0.097339,0
-6.135897,-1.126159,6.210382,0.434523,-0.899527,0.448301,44.447155,-9.929696,-8.960180,4635732216930893800.000000,0.892160,0.002427,0.445395,0.075283,-17.150997,-4.432604,-3.237170,0.317429,-0.440755,-0.944957,46.423864,3.155543,-0.612698,4635728243549274100.000000,-0.649039,0.581455,-0.401234,-0.282259,-30.402640,-6.903422,-6.354663,-0.768673,-0.518394,5.239730,40.918609,-16.581293,13.032735,4635729532576333800.000000,0.683121,0.540702,0.484011,-0.081977,0
-5.228692,-1.424753,5.581038,0.496663,-0.748223,0.478202,44.537729,-10.173831,-9.205875,4635732216930893800.000000,0.893460,0.005514,0.442612,0.076109,-16.062662,-4.070550,-1.509855,0.518653,-0.440526,-0.968748,46.276499,3.470436,-0.861769,4635728243549274100.000000,-0.652301,0.581129,-0.398202,-0.279692,-29.024123,-6.648313,-5.308120,-0.660812,-0.629977,5.111083,40.563401,-18.603525,12.793649,4635729532576333800.000000,0.687519,0.548863,0.470662,-0.067410,0
-4.872598,-1.266291,4.808517,0.501737,-0.703763,0.517411,44.466504,-10.466750,-9.572097,4635732216930893800.000000,0.894648,0.008678,0.439987,0.077073,-13.644728,-3.360885,0.541262,0.632192,-0.456731,-1.017782,46.167527,3.865268,-0.924400,4635728399523866600.000000,-0.655903,0.580541,-0.395127,-0.276835,-28.060208,-8.437816,-4.584719,-0.352112,-0.795372,4.933741,40.021591,-20.240352,12.471223,4635729548270772200.000000,0.691169,0.557263,0.456941,-0.054304,0
-4.767913,-0.898401,4.035938,0.497752,-0.674032,0.549622,44.222356,-10.796350,-9.875613,4635732216930893800.000000,0.895754,0.011876,0.437462,0.078164,-10.961577,-3.318442,1.733382,0.662328,-0.490075,-1.061829,46.188209,4.280342,-1.069282,4635728458834509800.000000,-0.659663,0.579886,-0.391876,-0.273880,-26.109072,-10.397051,-3.670163,0.134694,-0.847175,4.713200,39.253134,-21.578705,12.266939,4635729747324698600.000000,0.693443,0.566397,0.443278,-0.042858,0
-4.806129,-0.413750,3.676223,0.469877,-0.577979,0.549958,44.208108,-10.937834,-9.992622,4635732216930893800.000000,0.896671,0.014939,0.435279,0.079313,-8.818080,-3.989588,1.691219,0.677544,-0.508700,-1.079385,46.205021,4.695371,-1.273434,4635728458834509800.000000,-0.663487,0.579177,-0.388534,-0.270888,-21.416680,-11.417907,-4.835441,1.023984,-0.529239,4.287650,38.349185,-22.836387,12.412534,4635729747324698600.000000,0.692692,0.577157,0.431212,-0.033517,0
-5.199841,0.206940,3.371406,0.415404,-0.468994,0.493253,44.373765,-10.986590,-9.997864,4635732216930893800.000000,0.897399,0.017659,0.433482,0.080355,-7.339167,-4.627217,0.755637,0.677903,-0.514738,-1.103701,46.072364,5.172316,-1.410202,4635728302867035100.000000,-0.667326,0.578479,-0.385102,-0.267832,-17.094813,-12.751384,-6.520639,2.325628,-0.444249,3.793030,37.609333,-23.783114,12.545910,4635729731656031200.000000,0.688345,0.590596,0.420249,-0.027724,0
-6.027838,0.618908,2.910978,0.384697,-0.401211,0.386623,44.349646,-11.162585,-10.095373,4635732216930893800.000000,0.898033,0.020049,0.431931,0.081059,-6.328266,-4.829516,-0.029203,0.656794,-0.507404,-1.142892,45.951168,5.610876,-1.590802,4635728243549274100.000000,-0.671122,0.577890,-0.381558,-0.264675,-14.144077,-6.556615,-6.269004,2.380246,-0.672195,3.858393,37.073727,-24.685205,12.676891,4635729532576333800.000000,0.684018,0.604066,0.408316,-0.022389,0
-6.986944,0.721956,2.770996,0.341415,-0.388332,0.264869,44.185725,-11.316178,-10.273220,4635732155680970800.000000,0.898681,0.022053,0.430421,0.081387,-5.628324,-5.421096,-0.322477,0.608427,-0.503392,-1.180200,45.924252,5.964017,-1.860217,4635728243549274100.000000,-0.674810,0.577478,-0.377867,-0.261470,-9.308079,4.625891,-8.697275,2.124390,-0.831289,3.794270,36.401433,-25.869942,12.920146,4635729532576333800.000000,0.680353,0.616467,0.395970,-0.017192,0
-8.067842,0.753333,3.037478,0.320888,-0.334289,0.106551,44.117554,-11.450365,-10.400619,4635732109556711400.000000,0.899283,0.023678,0.429118,0.081163,-5.439027,-6.302922,-0.383905,0.612936,-0.504645,-1.186049,45.906569,6.541147,-2.091280,4635728243549274100.000000,-0.678493,0.577040,-0.374148,-0.258236,-7.890981,8.574311,-8.659512,1.554778,-0.915423,3.417602,35.723231,-26.866553,13.144058,4635729532576333800.000000,0.678052,0.626439,0.384275,-0.012332,0
-9.278010,0.866535,3.558650,0.367668,-0.008177,-0.091477,44.208062,-11.565561,-10.381633,4635732109556711400.000000,0.899360,0.025014,0.429071,0.080147,-5.865501,-6.590739,-0.372955,0.643028,-0.495951,-1.166784,45.837950,7.026872,-2.289958,4635728243549274100.000000,-0.682187,0.576475,-0.370517,-0.254978,-10.692952,3.200714,-5.163741,1.445294,-1.072294,2.855658,35.128867,-27.337305,13.251016,4635729532576333800.000000,0.676099,0.635048,0.373520,-0.009291,0
-10.554289,1.350645,3.382400,0.417909,0.128644,-0.275529,44.185763,-11.506546,-10.179577,4635732109556711400.000000,0.899246,0.026164,0.429571,0.078365,-6.773008,-6.674924,-0.375062,0.675548,-0.509433,-1.128295,45.805545,7.265089,-2.555979,4635728243549274100.000000,-0.685915,0.575722,-0.366961,-0.251803,-12.011099,-2.745440,-3.650301,1.847147,-0.986849,2.130024,34.749792,-27.733923,13.173566,4635729532576333800.000000,0.672797,0.643550,0.364845,-0.008691,0
-11.747416,1.952560,3.163224,0.393619,-0.296462,-0.409273,44.027064,-11.340886,-10.114587,4635732109556711400.000000,0.899933,0.027123,0.428482,0.076080,-7.126595,-6.719543,-0.351911,0.690097,-0.523650,-1.079089,45.740300,7.489024,-2.787071,4635728243549274100.000000,-0.689622,0.574817,-0.363483,-0.248771,-13.021530,-4.386631,-6.078181,1.769318,-0.958828,1.422232,34.524979,-28.051280,13.217509,4635729532576333800.000000,0.669544,0.650674,0.358102,-0.009879,0
-12.017729,2.388722,3.908505,0.309417,-0.619739,-0.537113,44.000628,-11.225665,-10.435017,4635732109556711400.000000,0.901237,0.027641,0.426164,0.073428,-7.038625,-6.567168,-0.173857,0.644206,-0.541293,-1.038646,45.654850,7.856925,-2.915041,4635728243549274100.000000,-0.693181,0.573944,-0.359990,-0.245959,-12.006104,-13.719340,-5.340847,1.951894,-0.961994,0.834420,34.412004,-28.345591,13.509599,4635729532576333800.000000,0.665706,0.657364,0.352902,-0.012986,0
-11.434039,2.488702,4.511281,0.251661,-0.473427,-0.662722,44.073867,-11.103701,-10.756225,4635732170780867600.000000,0.902314,0.027676,0.424386,0.070423,-6.535188,-5.976177,0.084602,0.563285,-0.556947,-1.008516,45.560559,8.333854,-3.092256,4635728243549274100.000000,-0.696516,0.573226,-0.356429,-0.243385,-9.580817,-14.760780,-6.040002,2.125710,-0.893748,0.342318,34.571585,-28.339377,13.796580,4635729532576333800.000000,0.661199,0.663754,0.349198,-0.017525,0
-11.178337,2.622440,4.708303,0.144871,-0.189548,-0.765587,44.105347,-10.847574,-10.687055,4635732216930893800.000000,0.902920,0.027044,0.423651,0.067252,-4.937070,-5.579656,0.635971,0.428050,-0.544537,-0.979200,45.409875,8.772445,-3.299763,4635728243549274100.000000,-0.699460,0.572853,-0.352826,-0.241060,-9.340319,-12.207821,-5.964387,2.201868,-0.956422,-0.090061,34.730061,-28.226460,14.156558,4635729524780656600.000000,0.656474,0.669656,0.346480,-0.023535,0
-11.780648,3.030312,4.560871,-0.060886,0.020683,-0.862479,44.063588,-10.469254,-10.474172,4635732216930893800.000000,0.903195,0.025410,0.423656,0.064102,-2.653574,-6.194905,1.427720,0.319095,-0.514373,-0.931507,45.292007,9.134454,-3.569149,4635728243549274100.000000,-0.702033,0.572743,-0.349305,-0.238957,-8.464814,-8.864966,-5.477495,2.280355,-0.932148,-0.514006,34.729174,-27.762578,14.430238,4635729425202151400.000000,0.651383,0.675093,0.344970,-0.030747,0
-12.793681,3.332390,3.616954,-0.243954,0.158393,-0.964396,44.164328,-10.151658,-10.463340,4635732216930893800.000000,0.903260,0.022870,0.424134,0.060905,-1.212154,-7.880468,1.987175,0.320031,-0.434870,-0.822909,45.265053,9.467395,-3.932796,4635728243549274100.000000,-0.704371,0.572540,-0.346269,-0.236975,-6.897760,-5.835317,-6.102726,2.152272,-0.902542,-1.036706,34.756846,-27.273888,14.597396,4635729425202151400.000000,0.646468,0.679361,0.344991,-0.039105,0
-14.010467,3.781624,2.830889,-0.387688,0.266431,-1.066633,44.354506,-9.865772,-10.684537,4635732216930893800.000000,0.903155,0.019583,0.424984,0.057585,-1.339710,-9.297928,2.235593,0.425934,-0.311383,-0.680523,45.194360,9.743965,-4.190872,4635728243549274100.000000,-0.706630,0.571933,-0.344034,-0.234960,-5.935797,-4.583790,-6.750350,1.919489,-0.933005,-1.621878,35.322229,-26.457671,14.574050,4635729425202151400.000000,0.642083,0.682076,0.346586,-0.048786,0
-15.422866,4.419949,2.840425,-0.567202,0.327730,-1.125027,44.415783,-9.311791,-10.836635,4635732216930893800.000000,0.902948,0.015502,0.426015,0.054366,-3.816411,-9.242880,2.751066,0.533634,-0.208027,-0.543955,45.052532,9.929614,-4.248177,4635728243549274100.000000,-0.708855,0.570908,-0.342529,-0.232943,-5.474570,-4.537271,-7.195109,1.732704,-0.984663,-2.244577,36.226100,-25.504609,14.707266,4635729425202151400.000000,0.638087,0.683287,0.349805,-0.060001,0
-17.012892,4.903331,3.022060,-0.745336,0.362196,-1.110940,44.452279,-8.669846,-10.706271,4635732216930893800.000000,0.902661,0.010769,0.427122,0.051515,-8.101362,-8.546739,3.671925,0.587062,-0.103800,-0.393729,44.999860,10.097140,-4.460219,4635728243549274100.000000,-0.710905,0.569604,-0.341736,-0.231044,-5.030505,-4.976554,-6.895583,1.599681,-1.040500,-2.837982,36.824258,-24.529615,14.663567,4635729425202151400.000000,0.634289,0.683146,0.354538,-0.072746,0
-18.732212,5.100858,2.952746,-0.873735,0.369453,-1.013728,44.629874,-8.277011,-10.387315,4635732216930893800.000000,0.902317,0.005726,0.428212,0.049255,-13.056991,-7.330576,4.494075,0.535256,0.017509,-0.280011,45.058326,10.144352,-4.611826,4635728243549274100.000000,-0.712544,0.568404,-0.341519,-0.229265,-4.373139,-5.237860,-6.182163,1.433545,-1.084648,-3.407885,37.451515,-23.401185,14.534600,4635729425202151400.000000,0.630712,0.681555,0.360749,-0.086861,0
-20.317860,5.043625,2.882654,-1.003073,0.297576,-0.846568,44.781874,-7.978913,-10.188062,4635732216930893800.000000,0.902042,0.000509,0.428987,0.047849,-17.890260,-6.221568,4.726354,0.382546,0.104906,-0.208315,45.143783,10.144352,-4.426781,4635728243549274100.000000,-0.713624,0.567636,-0.341583,-0.227708,-3.747137,-5.215564,-5.237673,1.293000,-1.101214,-3.928235,38.451740,-22.046026,14.474442,4635729425202151400.000000,0.627191,0.678615,0.368345,-0.102153,0
-21.302628,4.632852,2.788824,-1.171907,0.118639,-0.643684,44.764689,-7.607626,-10.163515,4635732216930893800.000000,0.900727,-0.014573,0.428824,0.067741,-21.676072,-5.556261,4.542101,0.224259,0.172131,-0.187333,45.105546,10.206198,-4.275155,4635728243549274100.000000,-0.714212,0.567370,-0.341745,-0.226279,-3.238020,-4.699626,-4.284482,1.224773,-1.054966,-4.405366,39.416573,-20.669085,14.411485,4635729425202151400.000000,0.623373,0.674549,0.377314,-0.118420,0
-21.285364,3.959958,2.501420,-1.340099,-0.088015,-0.465219,44.818329,-7.204823,-10.238308,4635732216930893800.000000,0.900993,-0.020279,0.427932,0.068374,-24.263449,-5.593394,4.043876,0.109993,0.262017,-0.205955,45.011267,10.406485,-4.327683,4635728165846646800.000000,-0.714418,0.567555,-0.342022,-0.224744,-2.785655,-3.508585,-3.961233,1.122993,-0.991733,-4.837223,40.080990,-19.008182,14.167364,4635729425202151400.000000,0.619274,0.669296,0.387560,-0.135421,0
-20.687457,3.135348,2.434236,-1.486472,-0.127237,-0.350194,44.928352,-6.843681,-10.353435,4635732216930893800.000000,0.901250,-0.026317,0.426846,0.069699,-25.942098,-5.787906,3.599278,0.062151,0.354395,-0.232953,44.984280,10.597623,-4.084201,4635728136175091700.000000,-0.714402,0.568004,-0.342463,-0.222978,-2.504281,-2.270020,-3.856379,0.912934,-0.939085,-5.258744,40.842537,-17.313719,13.935564,4635729401931087900.000000,0.615147,0.662535,0.399054,-0.152959,0
-20.050834,2.287653,2.516427,-1.639785,0.007169,-0.284975,44.911184,-6.514086,-10.518938,4635732216930893800.000000,0.901195,-0.032854,0.426208,0.071522,-26.652754,-5.578963,2.961300,0.082301,0.474264,-0.272024,44.984280,10.644855,-3.979614,4635728136175091700.000000,-0.714297,0.568558,-0.343186,-0.220782,-2.560441,-1.596111,-3.502368,0.597061,-0.879310,-5.658191,41.954007,-15.318502,13.855265,4635729103079604200.000000,0.611210,0.653984,0.411794,-0.170747,0
-19.357046,1.641951,2.054053,-1.758175,0.094728,-0.231583,44.916140,-6.330540,-10.663866,4635732216930893800.000000,0.900906,-0.039765,0.425851,0.073737,-26.991624,-5.039548,1.972869,0.094474,0.600987,-0.325856,44.984280,10.644855,-4.041434,4635728136175091700.000000,-0.714083,0.569266,-0.344168,-0.218106,-3.026031,-1.048600,-3.166001,0.269463,-0.778838,-6.013361,42.741996,-13.109327,13.665011,4635729103079604200.000000,0.607374,0.643667,0.425743,-0.188500,0
-18.523692,1.339564,1.390848,-1.834040,0.002751,-0.160976,44.947659,-6.250341,-10.761525,4635732216930893800.000000,0.900698,-0.046806,0.425114,0.076361,-26.943545,-4.164213,0.683257,0.085792,0.704325,-0.346444,45.037271,10.644855,-3.791281,4635728136175091700.000000,-0.713713,0.570116,-0.345396,-0.215134,-3.535458,-0.540410,-3.027080,-0.074793,-0.677672,-6.330637,43.308821,-11.035592,13.225545,4635729103079604200.000000,0.603632,0.631568,0.440789,-0.206049,0
-17.507530,1.184443,1.409991,-1.898593,-0.170576,-0.061558,44.898991,-6.032805,-10.921743,4635732216930893800.000000,0.900699,-0.053856,0.423700,0.079500,-26.027358,-2.949120,-1.196283,0.081475,0.791665,-0.331987,44.995700,10.821499,-3.412839,4635728136175091700.000000,-0.713186,0.571030,-0.346910,-0.212000,-4.307035,-0.243917,-2.533743,-0.312546,-0.576930,-6.587235,43.932152,-8.667397,12.799289,4635729095337326600.000000,0.599675,0.618028,0.456648,-0.223391,0
-16.056163,1.055264,1.536609,-1.900473,-0.293264,0.032191,44.862206,-5.757152,-11.018029,4635732216930893800.000000,0.900828,-0.060705,0.421820,0.083013,-24.884220,-2.066997,-3.368312,0.164623,0.845129,-0.362099,44.963243,11.065605,-3.166926,4635728136175091700.000000,-0.712796,0.571778,-0.348580,-0.208526,-4.942476,0.137302,-2.267712,-0.354885,-0.432853,-6.760362,44.398483,-6.306708,12.564928,4635728995705421800.000000,0.594933,0.603710,0.473001,-0.240541,0
-14.117738,0.971507,1.649180,-1.832810,-0.351346,0.105152,44.903913,-5.603370,-10.974627,4635732216930893800.000000,0.900997,-0.067149,0.419738,0.086689,-23.928891,-1.011194,-4.924455,0.450741,0.842747,-0.413075,44.951036,11.194964,-2.909791,4635728136175091700.000000,-0.713124,0.571738,-0.350364,-0.204488,-5.412345,1.072318,-1.736806,-0.243806,-0.315727,-6.877691,44.733267,-4.007173,12.605860,4635728995705421800.000000,0.589088,0.589068,0.489448,-0.257713,0
-12.172188,0.793925,2.291662,-1.715840,-0.338842,0.165013,44.984134,-5.615257,-11.202105,4635732216930893800.000000,0.901105,-0.073051,0.417740,0.090375,-22.728760,0.534876,-6.036325,0.877085,0.794935,-0.395583,45.009467,11.271582,-2.478932,4635728136175091700.000000,-0.714505,0.570352,-0.352402,-0.199987,-5.689908,2.642252,-1.489456,-0.006215,-0.179409,-6.963129,44.959866,-1.340794,12.531663,4635728995705421800.000000,0.581807,0.574494,0.505782,-0.275031,0
-10.269425,0.669701,2.991738,-1.539360,-0.283759,0.221475,44.965248,-5.561586,-11.624340,4635732216930893800.000000,0.901106,-0.078211,0.416012,0.093942,-22.107915,1.848614,-5.899632,1.352187,0.715330,-0.293076,45.077256,11.539067,-2.211383,4635728136175091700.000000,-0.717022,0.567312,-0.354828,-0.195277,-6.612604,5.048361,-1.789175,0.081113,-0.096747,-7.015667,44.943221,1.229424,12.295426,4635728980294462500.000000,0.573598,0.559632,0.521919,-0.292231,0
-8.241278,0.193023,2.986187,-1.291495,-0.271886,0.312494,44.832793,-5.402879,-11.743646,4635732216930893800.000000,0.901099,-0.082285,0.414441,0.097413,-21.603804,4.000569,-4.580850,1.689749,0.581388,-0.351971,45.032344,11.695460,-2.231344,4635728136175091700.000000,-0.720546,0.563213,-0.356972,-0.190198,-8.273744,6.832337,-1.599341,0.117158,-0.105905,-6.995112,44.705147,3.743331,12.167277,4635728780957057000.000000,0.564868,0.544416,0.537503,-0.309235,0
-6.298376,-1.202221,3.127717,-1.049554,-0.235728,0.448541,44.764549,-5.334635,-11.706900,4635732216930893800.000000,0.901032,-0.085230,0.413139,0.100961,-21.351287,4.805801,-4.120651,1.766240,0.384903,-0.521390,44.832113,11.772083,-2.399637,4635728136175091700.000000,-0.724633,0.558945,-0.358165,-0.184947,-10.142504,8.571419,-2.129566,0.250695,-0.125908,-6.880327,44.378124,6.381747,12.127207,4635728780957057000.000000,0.555564,0.529294,0.552163,-0.326056,0
-4.712604,-2.859253,3.807444,-0.833363,-0.053528,0.578901,44.813237,-5.473747,-11.859922,4635732216930893800.000000,0.900656,-0.087215,0.412651,0.104558,-20.528418,6.250019,-5.632341,1.659048,0.225365,-0.718523,44.693923,12.092510,-2.321265,4635728136175091700.000000,-0.728816,0.555136,-0.358311,-0.179622,-12.503517,11.535890,-2.853982,0.446011,-0.186719,-6.652501,43.908133,8.724433,12.179454,4635728780957057000.000000,0.545842,0.514646,0.565481,-0.342676,0
-3.369649,-3.425310,3.860087,-0.652735,0.133148,0.663370,44.849998,-5.676161,-11.975463,4635732216930893800.000000,0.899972,-0.088457,0.412967,0.108092,-18.709291,9.956486,-7.422973,1.473027,0.140580,-0.976011,44.658062,12.507547,-2.208783,4635728136175091700.000000,-0.732845,0.552181,-0.357444,-0.173979,-14.931937,15.181790,-3.166167,0.731618,-0.286127,-6.285481,43.200100,11.062190,11.939601,4635728780957057000.000000,0.535872,0.500996,0.576969,-0.359098,0
-2.056592,-2.557241,3.274458,-0.623385,0.103718,0.713757,44.808271,-5.840098,-11.808549,4635732216930893800.000000,0.899314,-0.089490,0.413198,0.111773,-17.969094,10.587141,-8.230265,1.287664,0.038642,-1.201500,44.478127,12.622455,-2.396992,4635728136175091700.000000,-0.736722,0.550021,-0.355590,-0.168148,-17.292301,19.810079,-3.552409,1.125156,-0.359305,-5.780636,42.503388,13.451457,11.453064,4635728780957057000.000000,0.525668,0.489005,0.586282,-0.375261,0
-0.620040,-1.821057,2.942135,-0.718044,-0.022395,0.791921,44.825434,-6.089190,-11.564265,4635732216930893800.000000,0.898840,-0.090491,0.412977,0.115536,-18.640877,6.162571,-8.203190,0.982340,-0.252324,-1.534775,44.348746,12.860776,-2.698771,4635728213813299200.000000,-0.740519,0.549055,-0.351844,-0.162404,-18.801147,25.577694,-3.687477,1.394393,-0.437029,-5.206396,41.944571,15.448622,11.148819,4635728796316474400.000000,0.515716,0.478615,0.593514,-0.390776,0
0.989334,-1.589116,3.698130,-0.830523,0.064897,0.932960,44.813528,-6.364858,-11.468005,4635732216930893800.000000,0.898032,-0.091905,0.413032,0.120404,-19.451053,1.234671,-5.282615,1.003361,-0.629449,-2.124136,44.245644,13.622854,-3.003946,4635728243549274100.000000,-0.745254,0.548587,-0.345570,-0.155660,-18.767937,31.548795,-3.418121,1.392760,-0.483111,-4.543063,41.267070,17.056491,10.855842,4635728995705421800.000000,0.506731,0.469574,0.599064,-0.404779,0
2.515616,-1.461490,4.456931,-0.925014,0.251957,1.079962,44.686362,-6.608989,-11.560097,4635732216930893800.000000,0.896764,-0.093511,0.413783,0.125909,-19.194952,-0.010143,-2.395399,0.976325,-1.128283,-2.615167,43.906294,14.594748,-3.388567,4635728243549274100.000000,-0.750863,0.548512,-0.336560,-0.148551,-18.031193,36.718358,-4.005906,1.075884,-0.520576,-3.747215,40.674150,18.454218,10.561993,4635728995705421800.000000,0.499636,0.461632,0.603318,-0.416252,0
3.709117,-1.468284,4.466534,-0.990534,0.271613,1.138334,44.576343,-6.950462,-11.619750,4635732216930893800.000000,0.895373,-0.095271,0.414581,0.131731,-16.874856,1.111848,-2.194367,0.361707,-1.680073,-2.685223,43.470284,15.530431,-3.865316,4635728243549274100.000000,-0.755754,0.550022,-0.325224,-0.143320,-17.848109,39.180551,-5.544745,0.549115,-0.597628,-2.849309,40.172825,19.750680,10.264687,4635728995705421800.000000,0.495203,0.454622,0.606475,-0.424595,0
4.685870,-1.614451,4.389410,-1.002870,0.239562,1.066103,44.496146,-7.268176,-11.657909,4635732216930893800.000000,0.894037,-0.097182,0.415208,0.137313,-10.696303,4.211937,-3.598216,-0.647769,-2.000019,-2.960578,43.092579,16.622494,-4.374655,4635728165931090900.000000,-0.758772,0.554780,-0.311579,-0.139295,-17.295307,38.307763,-6.707090,0.139320,-0.628988,-1.893166,39.979252,20.719442,10.069369,4635728995705421800.000000,0.493264,0.449078,0.608415,-0.429943,0
5.319897,-1.681229,4.206967,-0.909746,0.398947,0.890636,44.556689,-7.512308,-11.743355,4635732216930893800.000000,0.892534,-0.099139,0.416399,0.142011,-13.734163,15.393149,-2.432666,-1.761516,-2.059029,-3.521640,42.553286,17.843902,-4.887338,4635728136175091700.000000,-0.759396,0.563591,-0.295714,-0.135037,-16.045810,35.992706,-6.847523,0.046230,-0.580083,-0.849596,39.814448,21.076957,9.854007,4635728995705421800.000000,0.493224,0.446056,0.608644,-0.432801,0
4.958091,-1.284843,4.273600,-0.751846,0.696262,0.663191,44.769292,-7.756443,-11.668925,4635732216930893800.000000,0.890690,-0.101078,0.418683,0.145461,-23.398143,11.831945,-0.792007,-3.057633,-2.105120,-3.779352,41.881172,19.150779,-5.267681,4635728136175091700.000000,-0.756859,0.576560,-0.278247,-0.131612,-14.469702,34.591506,-5.541665,0.215054,-0.504409,0.214099,39.751629,20.997629,9.391894,4635728995705421800.000000,0.494590,0.446210,0.606740,-0.433756,0
3.475800,-0.799399,3.944647,-0.573809,0.944771,0.428925,44.923079,-8.000608,-11.362362,4635732216930893800.000000,0.888608,-0.102915,0.421890,0.147622,-23.611713,11.548867,-4.196896,-3.297739,-2.150499,-3.507262,41.132410,20.410799,-5.456107,4635728136175091700.000000,-0.753277,0.589665,-0.261023,-0.129368,-11.426603,34.074318,-2.983306,0.379256,-0.400727,1.170111,39.995753,20.818048,9.130268,4635728995705421800.000000,0.497106,0.449299,0.602964,-0.432956,0
1.750637,-0.994541,2.749604,-0.368341,1.008867,0.223621,44.918161,-8.147421,-10.811885,4635732216930893800.000000,0.886610,-0.104388,0.425364,0.148632,-21.791739,20.882915,-6.216656,-2.690771,-1.945488,-3.550095,40.478100,21.714219,-5.590377,4635727980975979500.000000,-0.750646,0.600758,-0.244549,-0.125766,-8.229926,34.100024,-0.657802,0.458095,-0.269801,1.987876,40.400337,20.331575,9.139812,4635728995705421800.000000,0.500593,0.454818,0.597753,-0.430393,0
0.784022,-2.098378,1.616699,-0.171733,0.896826,0.089004,44.935276,-8.081653,-10.307315,4635732216930893800.000000,0.884964,-0.105304,0.428482,0.148841,-21.788290,19.207861,-8.823465,-2.122334,-1.818089,-3.489474,39.806116,23.159208,-5.795189,4635727921426726900.000000,-0.748987,0.609849,-0.228829,-0.121407,-5.760566,31.635140,1.459540,0.400960,-0.158878,2.625820,40.821466,19.397791,9.405827,4635729018628579300.000000,0.505005,0.461961,0.591606,-0.426103,0
0.309635,-3.770059,1.114792,0.021552,0.845287,0.045026,45.069379,-7.910752,-9.991445,4635732094662956000.000000,0.883511,-0.105551,0.431505,0.148564,-20.180174,14.714961,-10.200150,-1.318120,-1.567828,-3.311442,39.057360,24.348660,-6.018315,4635727921426726900.000000,-0.748811,0.616199,-0.214680,-0.116163,-4.161532,29.440361,2.030182,0.577372,-0.051295,3.158034,41.167618,18.544141,9.299526,4635729317827969000.000000,0.509676,0.470907,0.584257,-0.420857,0
-0.195884,-4.949447,1.081013,0.239069,0.877344,0.046374,45.191619,-7.878846,-9.653425,4635732002182529000.000000,0.882084,-0.105014,0.434777,0.147884,-19.272665,11.168626,-10.296909,-0.381021,-1.277651,-3.188507,38.350012,25.308280,-6.246875,4635727921426726900.000000,-0.750540,0.619509,-0.202153,-0.109693,-2.312998,24.929514,3.618928,0.524537,0.080231,3.527530,41.589567,17.661882,8.928049,4635729317827969000.000000,0.514673,0.480775,0.576436,-0.414353,0
-0.746878,-5.270028,1.130029,0.425691,0.863016,0.022992,45.186740,-7.910398,-9.325343,4635732002182529000.000000,0.880766,-0.103822,0.438095,0.146786,-19.839284,12.204002,-8.890602,0.746983,-1.060921,-2.888241,37.666456,26.214937,-6.540532,4635727843852938200.000000,-0.754714,0.619016,-0.191554,-0.102630,-3.217343,27.877962,-4.367183,1.596440,0.734671,3.882945,42.249624,16.275531,8.681132,4635729317827969000.000000,0.516423,0.494794,0.567299,-0.408239,0
-1.447384,-5.195479,1.614717,0.499104,0.798995,-0.047865,45.155186,-7.861760,-8.988986,4635732002182529000.000000,0.879626,-0.102449,0.441186,0.145319,-19.643618,13.399781,-7.929941,1.566815,-0.928554,-2.508110,37.176882,26.950695,-7.060750,4635727814052544500.000000,-0.760600,0.615590,-0.182669,-0.095751,-1.344802,37.833604,-16.982829,1.911750,1.008042,3.905576,42.757131,15.115829,8.897265,4635729317827969000.000000,0.516738,0.509845,0.557978,-0.402120,0
-2.280865,-5.168799,2.943405,0.475591,0.649131,-0.107191,45.203822,-7.915273,-8.554971,4635732002182529000.000000,0.878776,-0.101178,0.443683,0.143740,-19.021040,13.289036,-7.728633,2.034783,-0.829634,-1.987111,36.638364,27.489816,-7.791198,4635727814052544500.000000,-0.767278,0.610222,-0.175588,-0.089898,0.440984,21.077263,-2.668101,-0.712247,0.252601,4.102099,43.202666,13.922317,9.372550,4635729317827969000.000000,0.524541,0.518270,0.550827,-0.390950,0
-3.051956,-4.588982,4.827698,0.404115,0.462906,-0.171469,45.289267,-7.976694,-8.238706,4635732002182529000.000000,0.878270,-0.100175,0.445425,0.142136,-18.151699,14.497708,-6.842209,2.419664,-0.648952,-1.384774,36.052512,27.925127,-8.581153,4635727814052544500.000000,-0.774460,0.603158,-0.170733,-0.085218,-12.117372,-0.565206,0.626899,-1.446937,0.464675,3.310652,43.721465,12.308351,9.662983,4635729317827969000.000000,0.532013,0.523479,0.546894,-0.379261,0
-3.627960,-3.000724,6.756768,0.179159,0.466610,-0.289132,45.277460,-7.978381,-8.265694,4635732002182529000.000000,0.877728,-0.100215,0.446996,0.140517,-17.434174,15.875792,-6.321387,2.560115,-0.385171,-0.798647,35.660521,28.163845,-9.365833,4635727814052544500.000000,-0.781492,0.595233,-0.168227,-0.081657,-21.613418,-31.503230,-8.435156,0.163420,0.436146,3.342485,44.148812,10.995060,9.754581,4635729317827969000.000000,0.535972,0.532171,0.540162,-0.371151,0
-4.805440,-1.203968,7.445261,-0.218455,0.586298,-0.481615,45.337868,-7.935026,-8.190126,4635732002182529000.000000,0.876902,-0.102135,0.448689,0.138882,-17.287717,16.669887,-6.073861,2.553111,-0.033469,-0.212917,35.642905,27.973265,-10.058900,4635727814052544500.000000,-0.787963,0.586967,-0.168294,-0.079126,-15.164328,-18.762542,-22.522813,1.552044,0.761721,3.872050,44.417372,9.891297,9.767654,4635729317827969000.000000,0.536796,0.545520,0.530698,-0.364167,0
-7.639455,0.852027,6.638817,-0.377061,0.592846,-0.804084,45.550435,-7.752352,-7.805196,4635732002182529000.000000,0.876108,-0.105449,0.450123,0.136768,-17.200913,17.093066,-5.653401,2.515311,0.350814,0.379766,35.670033,27.819997,-10.594653,4635727814052544500.000000,-0.793786,0.578466,-0.171040,-0.077621,-20.615367,15.484933,-12.441316,1.182023,0.377584,3.975947,44.686771,8.555641,9.798117,4635729333034586100.000000,0.539299,0.557519,0.520535,-0.356891,0
-11.701032,2.499680,5.820659,-0.254345,0.414042,-1.137754,45.648745,-7.273777,-7.626046,4635732002182529000.000000,0.875937,-0.108627,0.450865,0.132873,-16.387796,16.112466,-4.891807,2.398056,0.713570,1.063139,35.802272,27.619936,-10.933077,4635727814052544500.000000,-0.798751,0.569913,-0.176572,-0.077576,-32.196108,15.375132,12.546125,0.479318,0.258895,3.812392,44.950255,7.162898,9.908861,4635729532576333800.000000,0.543293,0.567251,0.511383,-0.348634,0
-14.310592,1.110935,4.490637,-0.165182,-0.249797,-1.107027,45.685139,-6.758780,-7.759866,4635732002182529000.000000,0.877015,-0.111050,0.449238,0.129218,-14.079539,13.477342,-3.734261,2.203911,1.047042,1.905053,36.346783,26.838094,-11.055153,4635727814052544500.000000,-0.802620,0.561411,-0.185124,-0.079675,-22.108904,10.342227,8.159159,-0.361766,0.082247,3.085586,44.997241,5.933457,10.023142,4635729532576333800.000000,0.548477,0.573151,0.504660,-0.340573,0
-15.028292,-0.846691,3.610037,-0.096251,-0.837681,-0.722431,45.716724,-6.489539,-8.015977,4635732002182529000.000000,0.878999,-0.112182,0.445668,0.127109,-11.084794,10.595100,-2.182667,1.925027,1.394412,2.859578,37.092077,25.787625,-11.116188,4635727814052544500.000000,-0.805091,0.553107,-0.196941,-0.084352,-11.875361,3.826339,1.350620,0.066528,0.096116,3.059204,45.181175,4.909125,10.035347,4635729532576333800.000000,0.552477,0.579897,0.497337,-0.333383,0
-14.274647,0.026978,2.714236,-0.019997,-0.942983,-0.373183,45.619532,-6.379440,-8.413091,4635732002182529000.000000,0.881010,-0.112327,0.441907,0.126184,-8.881172,9.532685,-0.760454,1.558903,1.804095,3.749602,37.861143,24.651673,-11.106708,4635727581457877000.000000,-0.805839,0.545286,-0.211996,-0.091348,-1.342545,0.378393,-0.655258,0.452829,0.281123,2.966541,45.365293,3.879544,10.055307,4635729532576333800.000000,0.554940,0.587502,0.490046,-0.326707,0
-12.847684,0.917708,1.773182,0.019918,-0.932912,-0.104383,45.497231,-6.257610,-8.785024,4635732002182529000.000000,0.882864,-0.111834,0.438323,0.126165,-8.194614,9.450556,-0.355383,1.243096,2.249945,4.487894,38.876922,23.139528,-10.576532,4635727491929997300.000000,-0.804875,0.537826,-0.230022,-0.100052,-0.889611,7.074643,-2.880868,0.129967,0.321018,3.206487,45.395889,2.644735,10.183409,4635729532576333800.000000,0.558342,0.594804,0.482615,-0.318663,0
-13.434515,0.604645,2.013707,0.059521,-0.456074,0.151603,45.508956,-6.189154,-8.911405,4635732002182529000.000000,0.883721,-0.110977,0.436629,0.126793,-9.443286,8.658744,-0.720771,1.111546,2.644692,5.074680,40.049451,21.482771,-9.918010,4635727491929997300.000000,-0.802575,0.530129,-0.250511,-0.109913,-3.423569,8.055398,-1.162469,0.345721,0.436179,2.971705,45.359101,1.540172,10.384892,4635729532576333800.000000,0.560567,0.602185,0.475663,-0.311259,0
-15.797700,0.283174,1.113604,0.054457,0.138024,0.384649,45.497235,-6.327972,-8.800350,4635732002182529000.000000,0.883368,-0.110028,0.437228,0.128013,-12.055117,7.442221,-0.893162,1.155645,2.972721,5.576506,41.245672,19.584782,-9.283280,4635727491929997300.000000,-0.799284,0.521569,-0.273064,-0.120610,-3.349349,3.236096,-1.946509,0.451295,0.378172,2.858468,45.480315,0.363793,10.506106,4635729532576333800.000000,0.562407,0.609419,0.468649,-0.304426,0
-17.786972,-0.115313,-0.412064,-0.013185,0.005988,0.537456,45.370149,-6.572103,-8.702206,4635732002182529000.000000,0.883139,-0.108980,0.437373,0.129979,-14.020930,6.123219,-0.559693,1.265116,3.302047,6.035986,42.389087,17.542172,-8.578024,4635727414424212500.000000,-0.795008,0.511883,-0.297555,-0.131904,-5.918742,8.135840,-3.438899,0.188543,0.471067,2.811121,45.579004,-0.695832,10.615972,4635729532576333800.000000,0.564588,0.615972,0.462236,-0.296911,0
-18.299658,-0.501415,-0.625516,-0.095282,-0.697783,0.554041,45.343312,-6.684389,-8.962310,4635732002182529000.000000,0.884137,-0.107822,0.434888,0.132474,-15.144270,4.612983,-0.339143,1.275440,3.615382,6.430163,43.388806,15.408627,-7.572418,4635727229544245200.000000,-0.789434,0.501384,-0.323663,-0.143702,-9.311106,10.761180,-5.207513,-0.426479,0.388998,2.528037,45.519021,-1.568470,10.733553,4635729532576333800.000000,0.568080,0.620351,0.457057,-0.289050,0
-17.987787,-0.525425,0.422697,-0.124242,-0.939815,0.484744,45.326343,-6.786809,-9.438398,4635732002182529000.000000,0.885582,-0.106761,0.431457,0.134873,-16.013675,3.848940,-0.181837,1.162748,3.956783,6.779786,44.411386,12.886869,-6.100406,4635727169807450100.000000,-0.782149,0.490476,-0.351225,-0.155942,-9.969189,8.265270,-5.684153,-0.847987,0.420683,2.361190,45.316645,-2.519789,10.945560,4635729540127188000.000000,0.572333,0.623378,0.452837,-0.280666,0
-17.897472,-0.042246,1.926133,-0.068628,-0.319405,0.416733,45.247829,-7.040986,-9.741001,4635732002182529000.000000,0.885964,-0.105965,0.430311,0.136644,-17.314215,4.331234,-0.010924,0.922938,4.278572,7.045758,45.408411,10.163835,-4.691602,4635727169807450100.000000,-0.772845,0.479613,-0.379825,-0.168565,-13.204034,8.228551,-4.099297,-1.148251,0.424488,2.249770,45.193523,-3.453743,11.049417,4635729639950516200.000000,0.577163,0.625412,0.449213,-0.271940,0
-18.520789,0.331010,2.306826,0.053269,0.353949,0.379575,45.306425,-7.275094,-9.648225,4635732002182529000.000000,0.885208,-0.105169,0.431704,0.137761,-19.293436,4.812266,0.776713,0.674827,4.549475,7.239702,46.261602,7.241104,-3.228906,4635727169807450100.000000,-0.761538,0.468844,-0.409047,-0.181456,-18.437084,7.299913,-0.902453,-1.189362,0.318065,2.171789,45.212793,-4.309023,11.079828,4635729639950516200.000000,0.582145,0.627008,0.445530,-0.263573,0
-20.234688,-0.086416,1.279322,0.260305,0.501576,0.362440,45.472051,-7.341919,-9.362201,4635732002182529000.000000,0.884281,-0.103725,0.433750,0.138378,-21.228406,3.233440,1.335160,0.534068,4.734129,7.396966,46.653184,4.417784,-1.371642,4635727014821650400.000000,-0.748534,0.457784,-0.438525,-0.194489,-20.135591,3.364933,0.452556,-0.768394,0.331239,2.231274,45.158822,-5.175756,11.196552,4635729639950516200.000000,0.586007,0.629684,0.441214,-0.255782,0
-21.675986,-1.382920,-0.088346,0.541360,0.138346,0.379075,45.455640,-7.385209,-9.234067,4635732002182529000.000000,0.884116,-0.101005,0.434624,0.138705,-22.974664,1.178508,2.021876,0.403488,4.870321,7.522598,46.761779,1.835332,0.670848,4635726955059085300.000000,-0.733917,0.446390,-0.467967,-0.207627,-20.781746,2.916115,0.972695,-0.339747,0.349094,2.423101,45.030728,-6.053721,11.398090,4635729639950516200.000000,0.588855,0.633711,0.435934,-0.248238,0
-21.583434,-2.696286,-0.355623,0.872788,-0.204230,0.389145,45.248380,-7.512287,-9.332857,4635732002182529000.000000,0.884692,-0.096846,0.434428,0.138612,-24.093459,0.625976,2.545659,0.155361,4.984621,7.569654,46.717108,-1.146172,2.610508,4635726955059085300.000000,-0.717550,0.435135,-0.496978,-0.220890,-24.220151,6.244892,-0.949482,-0.205994,0.185434,2.549997,44.818114,-7.084903,11.520992,4635729639950516200.000000,0.591710,0.638056,0.429729,-0.241031,0
-20.616537,-3.281316,0.212576,1.271864,0.047319,0.374821,45.142979,-7.726478,-9.404971,4635732002182529000.000000,0.884960,-0.091384,0.435373,0.137640,-24.834851,0.948500,3.251399,-0.247409,5.068137,7.498228,46.508334,-4.140523,4.220776,4635726955059085300.000000,-0.699334,0.424695,-0.525039,-0.234309,-26.183794,5.600531,-2.107732,-0.096070,0.107080,2.647403,44.547611,-8.188932,11.640729,4635729639950516200.000000,0.594439,0.642691,0.422910,-0.233961,0
-19.538738,-3.416133,-0.231437,1.718863,0.613310,0.374119,45.247026,-8.017503,-9.011255,4635732002182529000.000000,0.884330,-0.084596,0.438643,0.135635,-25.280631,0.721902,4.166191,-0.699290,5.168816,7.332065,46.014142,-7.008639,5.933696,4635726800099056600.000000,-0.679283,0.415436,-0.551924,-0.247725,-26.366446,4.446687,-0.661895,0.019281,0.080226,2.756904,44.407341,-9.191880,11.567485,4635729639950516200.000000,0.596935,0.647694,0.415563,-0.226866,0
-18.566930,-3.678301,-1.802484,2.192384,0.901247,0.339746,45.374638,-8.334874,-8.438659,4635732002182529000.000000,0.883288,-0.076281,0.443193,0.132527,-25.097346,-2.153230,4.096596,-1.006786,5.262168,7.171533,45.067125,-9.861526,7.921798,4635726740310720500.000000,-0.657711,0.406937,-0.577716,-0.260888,-26.847271,4.557779,0.651199,0.029390,0.052958,2.800588,44.182477,-10.053466,11.494241,4635729639950516200.000000,0.599410,0.652683,0.407964,-0.219723,0
-17.524927,-4.384604,-3.357761,2.676546,0.863948,0.236945,45.369930,-8.652250,-8.054413,4635732002182529000.000000,0.882418,-0.066343,0.447789,0.128146,-24.662686,-5.923184,2.910535,-1.099041,5.300135,7.079025,43.980702,-12.480166,9.632490,4635726740310720500.000000,-0.635092,0.398395,-0.602565,-0.273597,-27.073811,3.082130,1.320859,-0.037170,0.047522,2.815519,43.895511,-10.857962,11.434670,4635729639950516200.000000,0.602003,0.657435,0.400315,-0.212415,0
-15.947588,-5.069605,-4.497729,3.152035,0.849847,0.108776,45.386835,-8.928015,-7.645236,4635732002182529000.000000,0.881630,-0.054875,0.452479,0.122392,-23.832299,-7.710237,1.815551,-1.009028,5.361746,6.980784,42.779748,-15.059942,11.286510,4635726740310720500.000000,-0.611719,0.389389,-0.626701,-0.285345,-27.469777,-0.247724,0.790714,-0.086995,0.055746,2.847423,43.693963,-11.836615,11.549912,4635729639950516200.000000,0.604661,0.662028,0.392585,-0.204892,0
-13.731487,-4.654924,-5.196894,3.523085,1.068060,-0.050931,45.520806,-9.075075,-7.059939,4635732002182529000.000000,0.880408,-0.042444,0.458028,0.115280,-23.278489,-9.114237,1.964232,-0.789869,5.360349,6.828692,41.464251,-17.554219,13.235172,4635726740310720500.000000,-0.588074,0.379703,-0.650018,-0.295756,-29.039187,-2.583336,-0.282926,-0.250472,0.066133,2.930368,43.560788,-13.162087,11.582012,4635729639950516200.000000,0.607733,0.666256,0.384734,-0.196835,0
-11.756243,-3.169773,-4.874106,3.609077,1.427967,-0.287413,45.698633,-9.051266,-6.234403,4635732002182529000.000000,0.878407,-0.030309,0.464783,0.107047,-23.328156,-11.007952,3.286453,-0.542715,5.191155,6.660701,39.945367,-19.884544,15.215501,4635726585402233900.000000,-0.564741,0.369173,-0.672136,-0.304978,-32.739532,-5.288720,-1.284222,-0.666179,-0.043422,3.166123,43.274082,-14.409078,11.702637,4635729639950516200.000000,0.612224,0.669606,0.376226,-0.187787,0
-11.150014,-1.080981,-3.511391,3.268524,1.560926,-0.579207,45.874801,-9.050651,-5.337741,4635732002182529000.000000,0.876015,-0.020035,0.471721,0.098364,-22.922677,-13.236914,5.690352,-0.168366,4.887307,6.457558,38.067813,-22.105688,16.816453,4635726370653869100.000000,-0.542428,0.357509,-0.692912,-0.312781,-41.838365,-9.930218,-3.490808,-1.017238,-0.372381,3.563200,42.901895,-15.536139,11.615173,4635729639950516200.000000,0.618388,0.672282,0.365964,-0.178056,0
-11.648305,1.763382,-1.050622,2.668467,1.008400,-0.810380,45.955596,-9.026863,-4.649603,4635732002182529000.000000,0.874583,-0.012173,0.476286,0.090047,-22.724783,-16.230683,8.602670,0.241014,4.547315,6.236891,36.183835,-24.003469,18.342848,4635726310813990900.000000,-0.521411,0.344727,-0.712381,-0.319074,-48.253115,-12.931510,-4.235724,-1.185931,-0.657454,3.317454,42.455377,-16.861781,11.175755,4635729639950516200.000000,0.625131,0.673778,0.355693,-0.169459,0
-10.540815,6.273586,2.146773,2.137632,0.116710,-0.947812,45.863844,-8.797521,-4.302913,4635732002182529000.000000,0.874834,-0.006179,0.477337,0.082319,-23.651237,-19.340278,9.321866,0.364342,4.268690,6.034754,34.455036,-25.724061,19.893137,4635726310813990900.000000,-0.501155,0.331566,-0.730419,-0.324648,-45.968547,-15.286106,-3.218908,-0.835162,-0.722474,3.121909,42.071841,-17.966406,10.755865,4635729639950516200.000000,0.630715,0.675712,0.345478,-0.162040,0
-6.226158,11.213809,5.544842,1.733477,-0.176316,-1.118143,45.789970,-8.467944,-4.182182,4635732002182529000.000000,0.875640,-0.001895,0.477138,0.074775,-25.799027,-20.974537,8.053971,0.362349,3.992925,5.863476,32.594494,-27.420743,21.161637,4635726310813990900.000000,-0.481515,0.318255,-0.746984,-0.329958,-39.528410,-18.208564,-0.359846,0.146320,-0.522067,3.421065,41.604854,-19.156472,10.611638,4635729639950516200.000000,0.633320,0.680653,0.334214,-0.154653,0
-1.374297,13.455919,8.616789,1.469836,0.347306,-1.447622,45.880060,-8.138338,-4.053497,4635732002182529000.000000,0.875438,0.000612,0.478728,0.066543,-28.012778,-21.075062,6.533382,0.443143,3.681876,5.678032,30.665954,-28.932531,22.048346,4635726310813990900.000000,-0.462808,0.304667,-0.762172,-0.334785,-34.400875,-24.698303,2.427627,1.067703,-0.216808,3.678609,40.944565,-20.404658,10.692750,4635729654897600500.000000,0.632901,0.688421,0.322354,-0.146969,0
1.310973,12.182378,9.627647,1.334192,0.594130,-1.813548,46.045682,-7.621638,-3.730140,4635732002182529000.000000,0.874769,0.001828,0.481143,0.057244,-28.989255,-21.296017,5.415117,0.466083,3.374980,5.512117,28.490614,-30.205834,23.023316,4635726543088626700.000000,-0.444987,0.290902,-0.776016,-0.339355,-28.688367,-32.085375,3.360137,3.920060,0.247568,3.911181,40.420809,-21.341003,11.225003,4635729854698881000.000000,0.623566,0.704032,0.309178,-0.141112,0
2.706727,9.897591,11.057892,1.129065,0.049405,-1.972147,46.161139,-6.872449,-3.505505,4635732002182529000.000000,0.875151,0.002110,0.481481,0.047768,-28.276494,-21.015703,5.420974,0.450956,3.022178,5.325667,26.396194,-31.282275,24.002682,4635726632936538100.000000,-0.428248,0.277068,-0.788429,-0.343825,-26.500928,-34.712201,-1.281332,4.536951,0.942684,3.857936,39.738364,-21.930575,12.018477,4635729854698881000.000000,0.611127,0.721172,0.297425,-0.134066,0
5.308338,7.677290,14.071299,0.800701,-0.272901,-1.825800,46.317514,-6.061523,-3.777003,4635732002182529000.000000,0.876083,0.001555,0.480540,0.039478,-26.155847,-21.918747,5.882052,0.623635,2.717154,5.006058,24.484090,-32.193319,24.822873,4635726632936538100.000000,-0.412911,0.263370,-0.799701,-0.347303,-27.771244,-8.477964,-0.484320,2.016764,1.297171,4.768568,38.893933,-22.938959,12.800843,4635729854698881000.000000,0.605980,0.732812,0.285080,-0.120436,0
8.862676,5.052728,15.322945,0.468302,0.217878,-1.456838,46.461041,-5.435955,-3.962462,4635732002182529000.000000,0.875923,0.000447,0.481307,0.033200,-23.695268,-25.188272,5.402049,0.976382,2.503829,4.521822,22.616294,-32.928032,25.442316,4635726710365010900.000000,-0.399159,0.250232,-0.810170,-0.348827,-30.091451,14.273317,1.145848,0.728501,1.138114,5.152987,37.833403,-24.554244,13.410182,4635729839777567700.000000,0.598739,0.754062,0.233635,-0.135343,0
10.035228,3.057311,13.802616,0.197351,0.794217,-1.046057,46.449510,-4.989254,-3.619073,4635732002182529000.000000,0.874519,-0.000906,0.484124,0.028965,-21.206368,-28.152151,3.702456,1.335868,2.369753,3.916536,20.977436,-33.444391,26.144702,4635727050024610800.000000,-0.386941,0.238235,-0.819959,-0.348120,-35.428563,16.281795,-1.732407,-1.215136,0.848096,5.227862,36.486549,-26.363277,13.658389,4635729625032783900.000000,0.604530,0.756445,0.219828,-0.118367,0
7.785010,3.172375,12.332243,-0.053735,1.041188,-0.600591,46.370990,-4.712749,-3.222146,4635732002182529000.000000,0.872539,-0.002304,0.487800,0.026858,-18.677661,-29.037743,2.811636,1.699631,2.269631,3.197394,19.532852,-33.640773,27.042324,4635727169807450100.000000,-0.376335,0.227877,-0.829112,-0.344989,-41.382191,-5.322114,-0.616012,-1.256498,0.896382,4.838717,35.413384,-27.876657,13.626372,4635729425202151400.000000,0.609921,0.758024,0.207282,-0.102125,0
4.930909,4.112774,11.149937,-0.245561,1.167926,-0.026245,46.436271,-4.638813,-2.885966,4635732002182529000.000000,0.870214,-0.003246,0.491911,0.027227,-17.353125,-27.579624,5.071095,2.116511,2.022059,2.448459,18.252160,-33.747241,27.985750,4635727169807450100.000000,-0.362953,0.231243,-0.834242,-0.344721,-44.230466,-4.173470,-0.813043,-2.100541,0.970872,4.690746,34.328516,-29.380231,13.492935,4635729425202151400.000000,0.617567,0.757010,0.195653,-0.085251,0
2.818945,5.097854,9.594316,-0.409587,1.073911,0.564948,46.648734,-4.721928,-2.341306,4635732063104782300.000000,0.867989,-0.003560,0.495659,0.030076,-16.701044,-23.909565,9.338924,2.397212,1.717801,1.696879,17.248046,-33.610631,28.793708,4635727169807450100.000000,-0.356880,0.224459,-0.841755,-0.337198,-46.842314,-22.356571,3.744739,-2.400869,0.968251,4.036472,32.947026,-30.741533,13.357340,4635729425202151400.000000,0.625658,0.754353,0.186098,-0.069789,0
1.754314,6.688977,9.145253,-0.583899,0.686505,1.021281,46.712798,-4.972311,-1.933097,4635732109556711400.000000,0.866479,-0.003516,0.497977,0.034940,-16.312184,-19.452506,12.736281,2.274808,1.362102,0.996271,16.623029,-33.193872,29.480088,4635727402064996400.000000,-0.352868,0.219783,-0.847772,-0.329337,-38.906191,-27.784638,-1.821777,-2.678605,0.940694,3.795741,31.723105,-32.017260,13.012980,4635729425202151400.000000,0.634325,0.750478,0.177233,-0.054801,0
2.412733,7.486777,9.425056,-0.707813,0.431696,1.248522,46.549527,-5.343442,-1.829467,4635732109556711400.000000,0.865432,-0.003411,0.499345,0.040884,-15.704356,-15.777447,14.879229,1.736895,0.920666,0.385965,16.171945,-32.696790,30.139266,4635727491929997300.000000,-0.350729,0.217420,-0.851757,-0.322844,-30.656568,-13.482101,1.028630,-2.775905,0.869448,3.220570,30.794104,-33.191648,12.323515,4635729440046151700.000000,0.642989,0.745633,0.169934,-0.041467,0
4.180458,6.917013,9.107977,-0.761782,0.585626,1.212662,46.497638,-5.891641,-1.694272,4635731987752593400.000000,0.864035,-0.003603,0.501239,0.046807,-14.658468,-13.409574,16.713745,0.836997,0.427702,-0.221888,15.797495,-32.266699,30.657643,4635727491929997300.000000,-0.350336,0.217840,-0.853228,-0.319081,-25.337770,-8.714319,0.079546,-2.395443,0.930777,2.489283,30.017898,-34.059605,11.890802,4635729639950516200.000000,0.650124,0.741093,0.164956,-0.030162,0
