Accelerometer-X,Accelerometer-Y,Accelerometer-Z,Gyroscope-X,Gyroscope-Y,Gyroscope-Z,Magnetometer-X,Magnetometer-Y,Magnetometer-Z,Barometer-pressure,Orientation-S,Orientation-X,Orientation-Y,Orientation-Z,Accelerometer-X,Accelerometer-Y,Accelerometer-Z,Gyroscope-X,Gyroscope-Y,Gyroscope-Z,Magnetometer-X,Magnetometer-Y,Magnetometer-Z,Barometer-pressure,Orientation-S,Orientation-X,Orientation-Y,Orientation-Z,Accelerometer-X,Accelerometer-Y,Accelerometer-Z,Gyroscope-X,Gyroscope-Y,Gyroscope-Z,Magnetometer-X,Magnetometer-Y,Magnetometer-Z,Barometer-pressure,Orientation-S,Orientation-X,Orientation-Y,Orientation-Z,jump
-9.610165,0.985771,2.291963,0.232423,-0.116428,0.198410,43.774370,15.987200,-2.189533,4635732431679258600.000000,0.673596,0.325141,0.511377,-0.423137,-10.056204,-0.986561,1.003855,-1.857322,-0.223270,-0.133309,43.779717,13.031963,9.426964,4635728136175091700.000000,-0.743547,-0.013089,-0.644349,0.178275,-9.677336,-0.091722,-1.424799,0.068058,-0.045959,-0.138996,43.672485,11.705665,-10.145017,4635729854698881000.000000,0.242062,0.712051,0.271952,-0.600360,0
-9.724616,0.991828,2.282784,0.265004,-0.139091,0.197607,43.760418,15.901752,-2.441195,4635732431679258600.000000,0.673851,0.326064,0.510296,-0.423326,-10.134987,-1.014490,1.320255,-1.685296,-0.260803,-0.131966,43.696966,13.013092,9.515106,4635728136175091700.000000,-0.744224,-0.007352,-0.644790,0.174134,-9.667027,-0.149954,-1.298025,0.060257,-0.054505,-0.139790,43.800163,11.780144,-10.315256,4635729854698881000.000000,0.241542,0.711788,0.272214,-0.600763,0
-9.804011,1.023860,2.343726,0.291981,-0.181407,0.197607,43.886986,15.816300,-2.665613,4635732431679258600.000000,0.674156,0.326988,0.509048,-0.423629,-10.232643,-1.200726,1.536998,-1.541759,-0.287717,-0.130314,43.621025,12.813373,9.619576,4635728136175091700.000000,-0.744936,-0.002046,-0.645013,0.170366,-9.749338,-0.261054,-1.180062,0.072827,-0.062638,-0.138448,43.781371,11.789540,-10.290200,4635729854698881000.000000,0.240996,0.711518,0.272432,-0.601202,0
-9.788876,1.030012,2.441378,0.319212,-0.223335,0.192942,43.946651,15.738471,-2.787776,4635732431679258600.000000,0.674504,0.327904,0.507639,-0.424059,-10.339813,-1.276383,1.517692,-1.425952,-0.292673,-0.149454,43.737991,12.566528,9.719932,4635728136175091700.000000,-0.745618,0.002956,-0.645111,0.166962,-9.805676,-0.307070,-1.340321,0.090026,-0.068389,-0.135655,43.663070,11.873745,-10.096449,4635729854698881000.000000,0.240413,0.711255,0.272593,-0.601674,0
-9.628830,1.025422,2.546649,0.343386,-0.259522,0.181467,43.847641,15.756625,-2.880840,4635732431679258600.000000,0.674872,0.328798,0.506100,-0.424620,-10.611327,-1.158157,1.425436,-1.319868,-0.278527,-0.162370,43.832803,12.645718,9.665433,4635728136175091700.000000,-0.746229,0.007652,-0.645157,0.163877,-9.819137,-0.426313,-1.458012,0.100159,-0.076797,-0.134423,43.726917,12.032424,-9.961860,4635729854698881000.000000,0.239812,0.710981,0.272716,-0.602181,0
-9.386248,1.109201,2.656516,0.352753,-0.293037,0.163582,43.833652,15.730859,-3.153673,4635732431679258600.000000,0.675264,0.329621,0.504472,-0.425296,-10.738525,-0.809323,1.375328,-1.240992,-0.267027,-0.175310,43.848991,12.616937,9.491723,4635728136175091700.000000,-0.746781,0.012130,-0.645164,0.161039,-9.772181,-0.578133,-1.242026,0.107389,-0.084274,-0.124399,43.714401,12.159829,-10.168130,4635729854698881000.000000,0.239222,0.710707,0.272784,-0.602707,0
-9.114681,1.281549,2.850143,0.348226,-0.316152,0.142623,43.914507,15.698721,-3.295999,4635732431679258600.000000,0.675670,0.330345,0.502815,-0.426051,-10.640619,-0.558590,1.319686,-1.225998,-0.251589,-0.199181,43.734888,12.407867,9.381969,4635728136175091700.000000,-0.747256,0.016613,-0.645189,0.158312,-9.811623,-0.537435,-1.234821,0.117880,-0.092298,-0.111307,43.630826,12.075942,-10.400399,4635729840937254900.000000,0.238644,0.710438,0.272779,-0.603256,0
-8.871997,1.423555,2.980058,0.337016,-0.317250,0.125259,43.992341,15.698721,-3.242695,4635732431679258600.000000,0.676061,0.330997,0.501196,-0.426831,-10.351522,-0.531727,1.315700,-1.261175,-0.211205,-0.233370,43.759551,12.287337,9.591267,4635728136175091700.000000,-0.747577,0.021271,-0.645342,0.155595,-9.773129,-0.655429,-1.333736,0.114456,-0.102679,-0.095806,43.630517,12.012085,-10.315256,4635729747324698600.000000,0.238125,0.710157,0.272727,-0.603816,0
-8.690350,1.472502,2.957338,0.330195,-0.297380,0.110972,44.073193,15.592126,-3.385666,4635732431679258600.000000,0.676392,0.331635,0.499663,-0.427609,-10.145528,-0.537126,1.223325,-1.323506,-0.176686,-0.261367,43.842300,12.392038,9.722608,4635728136175091700.000000,-0.747759,0.026175,-0.645620,0.152795,-9.635736,-0.914884,-1.342517,0.125709,-0.103337,-0.075077,43.535695,12.021464,-10.338702,4635729747324698600.000000,0.237626,0.709909,0.272584,-0.604369,0
-8.592572,1.492321,2.922164,0.323661,-0.268681,0.103082,44.052061,15.428855,-3.597891,4635732431679258600.000000,0.676655,0.332288,0.498233,-0.428353,-10.060192,-0.537126,1.291401,-1.401614,-0.169836,-0.284507,43.794648,12.493689,9.665448,4635727968922375200.000000,-0.747875,0.031378,-0.645943,0.149853,-9.523930,-1.137823,-1.238608,0.145542,-0.101474,-0.044921,43.386379,12.085329,-10.510870,4635729747324698600.000000,0.237142,0.709718,0.272304,-0.604909,0
-8.607657,1.577629,2.856674,0.313784,-0.242105,0.096812,43.920941,15.414792,-3.669833,4635732431679258600.000000,0.676864,0.332947,0.496902,-0.429057,-9.932630,-0.584652,1.403947,-1.506066,-0.166509,-0.305270,43.899316,12.455557,9.643848,4635727921426726900.000000,-0.747927,0.036960,-0.646314,0.146689,-9.731433,-0.921649,-1.112435,0.147541,-0.102431,-0.021996,43.343099,12.075959,-10.583533,4635729747324698600.000000,0.236711,0.709553,0.271950,-0.605430,0
-8.706753,1.669256,2.736180,0.298440,-0.230192,0.093997,43.853587,15.389082,-3.849501,4635732431679258600.000000,0.677062,0.333577,0.495635,-0.429720,-9.719595,-0.816794,1.542335,-1.614663,-0.161404,-0.318080,43.934444,12.306264,9.871986,4635727921426726900.000000,-0.747908,0.042909,-0.646736,0.143266,-9.901480,-0.437334,-1.129328,0.146833,-0.109498,-0.011476,43.576316,12.012085,-10.499928,4635729747324698600.000000,0.236315,0.709381,0.271559,-0.605961,0
-8.844039,1.795771,2.594297,0.269628,-0.229916,0.091999,43.902269,15.303637,-4.244415,4635732431679258600.000000,0.677294,0.334122,0.494423,-0.430327,-9.658758,-0.935969,1.641297,-1.676801,-0.156063,-0.318781,43.877407,12.268440,10.012875,4635727921426726900.000000,-0.747827,0.049048,-0.647179,0.139671,-9.817591,-0.231372,-1.214070,0.130600,-0.115000,-0.009887,43.703780,12.021454,-10.510574,4635729747324698600.000000,0.235978,0.709181,0.271200,-0.606488,0
-8.944859,1.946850,2.432594,0.233049,-0.243372,0.091458,44.033379,15.225799,-4.365807,4635732431679258600.000000,0.677603,0.334538,0.493237,-0.430878,-9.408928,-0.971187,1.783771,-1.691000,-0.158208,-0.303338,43.728131,12.325469,10.034486,4635727921426726900.000000,-0.747721,0.055187,-0.647592,0.135983,-9.736554,-0.073518,-1.521793,0.091355,-0.128065,-0.012978,43.608978,12.096250,-10.521496,4635729747324698600.000000,0.235763,0.708905,0.270936,-0.607011,0
-8.995273,1.956352,2.307353,0.204986,-0.261003,0.093858,44.047479,15.198217,-4.211862,4635732431679258600.000000,0.677990,0.334847,0.492049,-0.431388,-9.101049,-1.100152,2.056518,-1.695273,-0.165807,-0.284943,43.690296,12.341684,10.110522,4635728005027314700.000000,-0.747607,0.061292,-0.647955,0.132216,-9.613193,-0.174298,-1.633684,0.057929,-0.136225,-0.022319,43.479923,12.180142,-10.620989,4635729747324698600.000000,0.235633,0.708565,0.270777,-0.607530,0
-8.986235,1.974427,2.293405,0.179893,-0.271032,0.093733,43.913363,15.198217,-4.252452,4635732431679258600.000000,0.678431,0.335066,0.490876,-0.431860,-8.852891,-1.087766,2.380712,-1.708693,-0.164373,-0.264290,43.813855,12.341684,10.360254,4635728028800909300.000000,-0.747459,0.067378,-0.648300,0.128343,-9.564364,-0.262050,-1.429281,0.052476,-0.147677,-0.029386,43.523528,12.234665,-10.802265,4635729747324698600.000000,0.235513,0.708183,0.270641,-0.608083,0
-8.896352,2.002014,2.307199,0.156520,-0.264791,0.091597,43.795730,15.144955,-4.496426,4635732498606115800.000000,0.678886,0.335226,0.489766,-0.432281,-8.573346,-1.188347,2.624832,-1.741359,-0.164259,-0.233769,43.858499,12.218080,10.577250,4635728028800909300.000000,-0.747280,0.073480,-0.648636,0.124279,-9.526450,-0.117136,-1.257100,0.051362,-0.149404,-0.035295,43.375760,12.159870,-10.864327,4635729761034782700.000000,0.235383,0.707788,0.270524,-0.608644,0
-8.827541,2.055277,2.330026,0.133160,-0.236923,0.090127,43.816803,15.158419,-4.723934,4635732539053441000.000000,0.679314,0.335367,0.488777,-0.432618,-8.356399,-1.610655,2.673421,-1.721334,-0.180305,-0.193994,43.861198,12.049847,10.696522,4635728028800909300.000000,-0.747131,0.079416,-0.648889,0.120133,-9.566191,0.018707,-1.157881,0.034384,-0.147654,-0.052249,43.310308,12.094682,-10.791608,4635729854698881000.000000,0.235258,0.707362,0.270501,-0.609198,0
-8.851786,2.201586,2.374254,0.105931,-0.208597,0.085065,43.947897,15.239266,-4.805117,4635732539053441000.000000,0.679711,0.335471,0.487925,-0.432875,-8.113546,-2.006523,2.635384,-1.667546,-0.208919,-0.149843,43.984821,12.078650,10.794175,4635728028800909300.000000,-0.747062,0.085075,-0.649006,0.115980,-9.635031,0.138690,-1.065164,0.009518,-0.142746,-0.068136,43.318377,12.180411,-10.901753,4635729854698881000.000000,0.235160,0.706905,0.270594,-0.609724,0
-8.920427,2.308614,2.331791,0.076427,-0.195084,0.075591,44.053334,15.218209,-4.748857,4635732539053441000.000000,0.680105,0.335497,0.487177,-0.433079,-7.914251,-2.058939,2.681646,-1.687842,-0.249047,-0.096662,44.019897,12.030974,10.891831,4635728028800909300.000000,-0.747084,0.090668,-0.648994,0.111586,-9.744622,0.043411,-1.097358,-0.021793,-0.148903,-0.080634,43.446148,12.329477,-11.084571,4635729854698881000.000000,0.235129,0.706389,0.270797,-0.610245,0
-9.031709,2.377259,2.355852,0.043190,-0.182282,0.068238,44.035289,15.140365,-4.704450,4635732539053441000.000000,0.680506,0.335437,0.486536,-0.433217,-7.664578,-1.955754,2.678818,-1.749705,-0.289277,-0.037790,43.839227,11.812397,10.913419,4635728028800909300.000000,-0.747180,0.096309,-0.648872,0.106820,-9.765923,-0.300156,-1.181245,-0.028777,-0.161060,-0.076362,43.425923,12.318587,-11.169774,4635729841014567900.000000,0.235143,0.705838,0.270993,-0.610789,0
-9.143160,2.420072,2.347012,0.007279,-0.173582,0.064228,43.954444,15.059519,-4.821555,4635732539053441000.000000,0.680931,0.335282,0.485989,-0.433282,-7.234363,-1.919261,2.606859,-1.802854,-0.310494,0.024523,43.664340,11.622604,10.989490,4635728028800909300.000000,-0.747299,0.101950,-0.648696,0.101702,-9.761256,-0.706948,-1.265378,-0.001509,-0.175878,-0.071953,43.278119,12.233136,-11.168219,4635729747324698600.000000,0.235104,0.705282,0.271093,-0.611402,0
-9.225603,2.467303,2.250952,-0.029702,-0.175299,0.061024,43.975480,15.019707,-5.009259,4635732539053441000.000000,0.681405,0.335013,0.485509,-0.433283,-6.672748,-1.555265,2.340766,-1.847824,-0.312372,0.095025,43.885971,11.527779,11.087140,4635728028800909300.000000,-0.747390,0.107534,-0.648523,0.096236,-9.733963,-0.848074,-1.396080,0.035036,-0.189898,-0.065661,43.214207,12.158574,-11.170001,4635729747324698600.000000,0.234989,0.704732,0.271067,-0.612091,0
-9.276030,2.551158,2.209540,-0.073077,-0.184633,0.059816,44.007690,15.015106,-5.078280,4635732539053441000.000000,0.681956,0.334601,0.485083,-0.433213,-6.438586,-0.730111,1.890277,-1.886626,-0.283614,0.170985,44.215562,11.254878,11.118244,4635728028800909300.000000,-0.747371,0.113016,-0.648448,0.090436,-9.765923,-0.700031,-1.324163,0.056224,-0.203900,-0.053660,43.203327,12.169454,-11.267661,4635729747324698600.000000,0.234858,0.704181,0.270939,-0.612832,0
-9.259413,2.565154,2.209540,-0.120072,-0.189062,0.059151,44.053320,14.969475,-5.139121,4635732672839559200.000000,0.682579,0.334047,0.484729,-0.433055,-6.237752,0.007502,1.221338,-1.880752,-0.231491,0.247891,44.297967,10.858726,11.054392,4635728028800909300.000000,-0.747196,0.118245,-0.648527,0.084430,-9.762814,-0.536675,-1.168351,0.060748,-0.210425,-0.048339,43.138082,12.244025,-11.365318,4635729747324698600.000000,0.234734,0.703623,0.270777,-0.613592,0
-9.271422,2.528534,2.232354,-0.167069,-0.185070,0.059414,44.035307,14.835398,-5.107498,4635732753801805800.000000,0.683260,0.333367,0.484470,-0.432795,-6.094101,0.681484,0.482225,-1.824338,-0.180712,0.333101,44.120067,10.377215,11.197081,4635728028800909300.000000,-0.746897,0.123042,-0.648745,0.078332,-9.739955,-0.339824,-0.979698,0.055332,-0.210018,-0.050475,43.211317,12.244025,-11.462967,4635729747324698600.000000,0.234620,0.703058,0.270635,-0.614345,0
-9.335461,2.438680,2.177721,-0.211405,-0.191969,0.063143,43.954458,14.725331,-5.066072,4635732753801805800.000000,0.684022,0.332555,0.484267,-0.432443,-6.133619,1.077252,0.041727,-1.704642,-0.158191,0.416534,44.011690,10.133346,11.385604,4635728028800909300.000000,-0.746583,0.127227,-0.648999,0.072304,-9.735512,-0.175778,-1.001007,0.021578,-0.207900,-0.052339,43.264376,12.244025,-11.583919,4635729747324698600.000000,0.234597,0.702462,0.270588,-0.615056,0
-9.408706,2.369837,2.212341,-0.248143,-0.192284,0.073142,43.975470,14.697714,-5.126909,4635732753801805800.000000,0.684852,0.331658,0.484114,-0.431989,-6.076483,0.795772,0.020414,-1.571715,-0.142405,0.492961,44.185601,10.028980,11.587732,4635728028800909300.000000,-0.746283,0.130781,-0.649268,0.066402,-9.782788,-0.302294,-1.004112,0.001612,-0.213241,-0.052883,43.169608,12.253341,-11.828974,4635729747324698600.000000,0.234637,0.701832,0.270588,-0.615759,0
-9.413512,2.363632,2.258370,-0.285245,-0.175756,0.086624,44.000085,14.796561,-5.285390,4635732620041455600.000000,0.685723,0.330712,0.484055,-0.431398,-6.045367,0.087508,0.207710,-1.451752,-0.130542,0.566892,44.315668,9.753438,11.491082,4635728028800909300.000000,-0.746004,0.133751,-0.649551,0.060599,-9.808547,-0.367773,-1.036282,0.006834,-0.219124,-0.057698,43.031097,12.326579,-11.804152,4635729747324698600.000000,0.234656,0.701187,0.270583,-0.616489,0
-9.338868,2.429068,2.220350,-0.318114,-0.157054,0.097849,43.896628,14.909638,-5.184159,4635732539053441000.000000,0.686620,0.329728,0.484093,-0.430681,-6.042665,-0.370589,0.579511,-1.386058,-0.125683,0.638098,44.346792,9.357315,11.450544,4635728028800909300.000000,-0.745736,0.136318,-0.649845,0.054751,-9.767474,-0.356710,-1.126387,0.017226,-0.229416,-0.066107,43.051265,12.381206,-11.646067,4635729747324698600.000000,0.234634,0.700515,0.270566,-0.617269,0
-9.233617,2.473498,2.303771,-0.354269,-0.143956,0.108126,44.042059,14.736588,-4.949034,4635732539053441000.000000,0.687557,0.328684,0.484218,-0.429842,-6.033160,-0.546720,0.909022,-1.376370,-0.104182,0.737703,44.292469,8.875731,11.612122,4635728028800909300.000000,-0.745407,0.138575,-0.650231,0.048631,-9.770374,-0.195116,-1.232948,0.016394,-0.244234,-0.073448,43.188241,12.317270,-11.791811,4635729747324698600.000000,0.234611,0.699795,0.270558,-0.618096,0
-9.108557,2.424892,2.353033,-0.390199,-0.121303,0.112156,44.265206,14.559050,-5.045591,4635732539053441000.000000,0.688503,0.327586,0.484466,-0.428887,-6.144498,-0.554741,0.881558,-1.385990,-0.075818,0.851397,44.285756,8.441799,11.734098,4635728028800909300.000000,-0.744987,0.140541,-0.650743,0.042145,-9.700044,-0.128466,-1.242247,0.002645,-0.258390,-0.080399,43.166736,12.328120,-12.207403,4635729747324698600.000000,0.234626,0.699016,0.270592,-0.618956,0
-8.951483,2.392651,2.343822,-0.425969,-0.099378,0.109495,43.565011,15.134865,-5.288337,4635732539053441000.000000,0.689447,0.326417,0.484842,-0.427835,-6.281480,-0.539830,0.778493,-1.430168,-0.036169,0.963428,44.488025,7.960236,11.622686,4635728028800909300.000000,-0.744417,0.142327,-0.651419,0.035212,-9.576612,-0.261005,-1.309292,-0.012342,-0.274005,-0.090674,43.082833,12.421320,-12.171755,4635729747324698600.000000,0.234676,0.698171,0.270680,-0.619853,0
-8.788200,2.423048,2.343822,-0.459360,-0.090934,0.105223,42.397611,16.118940,-5.333261,4635732539053441000.000000,0.690408,0.325159,0.485306,-0.426716,-6.292224,-0.337584,0.433792,-1.478582,0.014867,1.085313,44.687343,7.526293,11.670344,4635728028800909300.000000,-0.743658,0.143917,-0.652295,0.027798,-9.551029,-0.266632,-1.294963,-0.042521,-0.287229,-0.097744,43.008042,12.560059,-11.926633,4635729747324698600.000000,0.234809,0.697253,0.270852,-0.620760,0
-8.652307,2.494671,2.389414,-0.493659,-0.066453,0.103610,42.272999,16.439011,-5.196240,4635732539053441000.000000,0.691361,0.323841,0.485902,-0.425496,-6.343816,0.279760,-0.123717,-1.491492,0.061618,1.204452,44.670923,7.044788,11.846701,4635728028800909300.000000,-0.742732,0.145208,-0.653347,0.020006,-9.671360,-0.108679,-1.026610,-0.072666,-0.302031,-0.101881,42.933437,12.614533,-11.985474,4635729747324698600.000000,0.235035,0.696261,0.271100,-0.621678,0
-8.537831,2.595321,2.515849,-0.532636,-0.019095,0.100286,42.609322,16.209184,-5.058721,4635732539053441000.000000,0.692261,0.322487,0.486706,-0.424140,-6.502577,0.743509,-0.389374,-1.446477,0.093181,1.315306,44.607174,6.420734,11.975522,4635728028800909300.000000,-0.741710,0.146047,-0.654517,0.012011,-9.691130,-0.288693,-0.869823,-0.089756,-0.308169,-0.105085,42.931889,12.466676,-12.438516,4635729747324698600.000000,0.235309,0.695232,0.271396,-0.622597,0
-8.465962,2.659592,2.461796,-0.579206,0.022342,0.097605,42.458368,15.884218,-5.002047,4635732539053441000.000000,0.693130,0.321065,0.487713,-0.422639,-6.837684,1.001112,-0.455761,-1.364457,0.105988,1.400142,44.679148,5.562068,11.942874,4635727945236120600.000000,-0.740657,0.146390,-0.655729,0.003984,-9.689760,-0.442742,-0.901978,-0.106169,-0.313118,-0.106799,42.890265,12.410463,-12.756558,4635729747324698600.000000,0.235631,0.694170,0.271734,-0.623511,0
-8.485509,2.703810,2.331873,-0.632730,0.037908,0.099196,42.865456,15.303925,-4.802898,4635732539053441000.000000,0.694038,0.319518,0.488853,-0.421001,-7.311105,1.030836,-0.663385,-1.313210,0.137809,1.461489,44.846015,4.903041,11.936134,4635727921426726900.000000,-0.739501,0.146398,-0.657031,-0.004074,-9.759903,-0.581820,-0.976592,-0.115210,-0.323137,-0.097984,42.666253,12.503980,-12.671285,4635729747324698600.000000,0.236012,0.693082,0.272060,-0.624434,0
-8.500963,2.813418,2.317783,-0.697580,0.043510,0.102400,43.908541,14.723425,-4.566087,4635732539053441000.000000,0.695021,0.317797,0.490115,-0.419210,-7.659606,0.673915,-1.109744,-1.359903,0.209512,1.518101,44.962623,4.326586,12.024342,4635727921426726900.000000,-0.738067,0.146385,-0.658540,-0.012390,-9.793263,-0.822705,-0.978139,-0.103837,-0.335007,-0.087167,42.600911,12.801262,-12.685207,4635729760931699700.000000,0.236402,0.691986,0.272314,-0.625392,0
-8.443179,2.952299,2.240458,-0.769402,0.054571,0.104940,44.337288,14.690943,-4.560691,4635732539053441000.000000,0.696075,0.315890,0.491527,-0.417247,-7.850789,0.070238,-2.028256,-1.470539,0.308148,1.576375,45.003282,3.610335,12.134209,4635727921426726900.000000,-0.736236,0.146546,-0.660329,-0.021129,-9.726207,-0.927596,-0.981066,-0.080744,-0.341295,-0.075283,42.644767,12.919739,-12.779604,4635729854698881000.000000,0.236762,0.690908,0.272466,-0.626380,0
-8.380518,3.071383,2.253487,-0.840704,0.071780,0.104417,44.132204,14.881910,-4.602191,4635732539053441000.000000,0.697177,0.313802,0.493108,-0.415110,-7.847986,-0.500701,-2.799815,-1.560712,0.428372,1.618495,44.828215,2.986534,12.320057,4635727921426726900.000000,-0.733951,0.146867,-0.662447,-0.030170,-9.709522,-0.795945,-0.906125,-0.064103,-0.353165,-0.063818,42.507725,12.770332,-12.768944,4635729854698881000.000000,0.237117,0.689827,0.272531,-0.627409,0
-8.308901,3.143271,2.355758,-0.906549,0.100311,0.097629,44.060859,14.744372,-4.412297,4635732539053441000.000000,0.698286,0.311555,0.494888,-0.412815,-8.027127,-1.002526,-3.305644,-1.502258,0.545031,1.640918,44.653271,2.400594,12.898028,4635727921426726900.000000,-0.731311,0.146948,-0.664880,-0.039044,-9.744599,-0.457543,-0.741404,-0.074135,-0.358235,-0.062088,42.526114,12.717337,-12.793672,4635729854698881000.000000,0.237510,0.688723,0.272611,-0.628437,0
-8.208266,3.108554,2.392651,-0.949629,0.135154,0.084693,44.245037,14.624469,-4.183083,4635732539053441000.000000,0.699346,0.309211,0.496852,-0.410416,-8.983679,-3.818008,-1.297150,-1.275993,0.631064,1.507810,44.770038,1.624664,13.211193,4635727921426726900.000000,-0.728533,0.146711,-0.667474,-0.046831,-9.750469,-0.329600,-0.633240,-0.092807,-0.361440,-0.063426,42.579422,12.866603,-12.999805,4635729854698881000.000000,0.237957,0.687589,0.272740,-0.629452,0
-8.181942,2.992728,2.423028,-0.980604,0.152460,0.068411,44.390449,14.677629,-4.060735,4635732539053441000.000000,0.700371,0.306768,0.498932,-0.407971,-10.456694,-7.619710,-0.714817,-1.327386,0.733963,1.415517,44.965340,0.595189,13.276235,4635727921426726900.000000,-0.725402,0.146897,-0.670263,-0.054415,-9.642304,-0.329600,-0.630298,-0.097987,-0.365319,-0.067036,42.557805,12.865059,-13.257385,4635729841117650900.000000,0.238412,0.686435,0.272890,-0.630475,0
-8.259516,2.721750,2.388321,-1.002277,0.154217,0.057301,44.377174,14.709921,-4.028443,4635732539053441000.000000,0.701388,0.304237,0.501060,-0.405504,-12.133167,-8.522134,-0.074424,-1.161735,0.897995,1.223337,44.828249,-0.025875,13.433611,4635727921426726900.000000,-0.721907,0.147145,-0.673421,-0.060852,-9.630097,-0.363569,-0.680526,-0.078929,-0.372513,-0.073310,42.408520,12.874469,-13.355044,4635729774487158800.000000,0.238804,0.685271,0.273000,-0.631543,0
-8.392155,2.398135,2.447149,-1.007003,0.137867,0.052482,44.296343,14.656767,-3.899356,4635732539053441000.000000,0.702425,0.301650,0.503145,-0.403053,-14.355055,-14.782167,3.224965,-0.877836,0.825647,0.805520,44.586811,-0.400204,13.856863,4635727921426726900.000000,-0.718860,0.147687,-0.676142,-0.065278,-9.611714,-0.619777,-0.642217,-0.001483,-0.370917,-0.079731,42.396169,13.013092,-13.475860,4635729962073063400.000000,0.238955,0.684180,0.272926,-0.632700,0
-8.591786,2.115742,2.783452,-1.004202,0.128842,0.057915,44.271638,14.632062,-3.646282,4635732539053441000.000000,0.703473,0.299062,0.505183,-0.400596,-16.001097,-22.470611,7.579144,-0.603521,0.571834,0.426571,44.542102,-0.732422,14.126665,4635727921426726900.000000,-0.716782,0.148402,-0.677926,-0.067950,-9.576907,-0.698107,-0.521833,0.074424,-0.373998,-0.094290,42.310860,13.003837,-13.733462,4635729962073063400.000000,0.238854,0.683138,0.272690,-0.633965,0
-8.838913,1.740880,3.022527,-0.990368,0.141869,0.071254,44.276253,14.636677,-3.365512,4635732539053441000.000000,0.704487,0.296559,0.507211,-0.398105,-14.593391,-23.674257,7.468294,-0.442339,0.517576,0.057463,44.478356,-0.872147,14.096843,4635727921426726900.000000,-0.715054,0.149662,-0.679357,-0.069098,-9.724939,-0.175131,-0.508216,0.106926,-0.383612,-0.112302,42.301604,12.939848,-13.829579,4635729934936374300.000000,0.238623,0.682081,0.272409,-0.635309,0
-9.042106,1.301446,3.056466,-0.978046,0.156848,0.083550,44.230700,14.583533,-3.137906,4635732539053441000.000000,0.705462,0.294140,0.509238,-0.395578,-9.912555,-14.601717,0.877792,-0.260515,0.771075,0.076547,44.335937,-0.957601,14.217551,4635727921426726900.000000,-0.712709,0.150397,-0.681600,-0.069630,-9.887472,-0.001937,-0.566020,0.093060,-0.393447,-0.122530,42.227162,12.948807,-13.904232,4635729747324698600.000000,0.238415,0.680970,0.272184,-0.636674,0
-9.144680,1.059375,2.998711,-0.975219,0.171918,0.097552,44.256147,14.611955,-2.828726,4635732539053441000.000000,0.706413,0.291778,0.511279,-0.392990,-5.963063,-0.134763,-6.108326,0.166097,1.188320,0.451298,44.357627,-1.043045,14.865811,4635727921426726900.000000,-0.709324,0.148919,-0.685427,-0.069802,-10.049794,-0.395817,-0.594748,0.096786,-0.403859,-0.137149,42.129399,13.011954,-13.912200,4635729747324698600.000000,0.238169,0.679817,0.271979,-0.638084,0
-9.213308,1.096719,2.958808,-0.970569,0.191666,0.114902,44.288460,14.648884,-2.564167,4635732405508975600.000000,0.707332,0.289495,0.513340,-0.390329,-7.587124,6.318791,-6.624734,0.831270,1.094413,0.557572,44.307462,-1.062044,15.485685,4635727921426726900.000000,-0.706566,0.145139,-0.689213,-0.068444,-9.945305,-0.656296,-0.561541,0.124901,-0.405226,-0.153868,41.900048,13.008852,-14.007896,4635729747324698600.000000,0.237799,0.678667,0.271745,-0.639545,0
-9.438355,1.124725,2.984553,-0.950474,0.198415,0.137709,44.341594,14.595751,-2.429587,4635732324305076200.000000,0.708237,0.287327,0.515352,-0.387629,-9.111991,0.659075,-1.288157,1.437880,0.821684,0.530638,44.098603,-1.005087,15.679719,4635728004924230700.000000,-0.704934,0.139567,-0.692321,-0.065428,-9.782371,-0.366736,-0.564955,0.132595,-0.409997,-0.178064,41.829392,13.078369,-14.211179,4635729747324698600.000000,0.237348,0.677482,0.271554,-0.641049,0
-9.861992,1.012205,3.063740,-0.914734,0.171043,0.166664,44.419451,14.563432,-2.339522,4635732324305076200.000000,0.709193,0.285278,0.517183,-0.384946,-10.110208,-3.363153,2.645526,1.457106,0.700486,0.550562,43.920920,-1.121684,15.926522,4635728028800909300.000000,-0.703620,0.133840,-0.695055,-0.062483,-9.712843,-0.134281,-0.598163,0.110240,-0.418614,-0.210032,41.894672,13.008842,-14.483961,4635729747324698600.000000,0.236882,0.676213,0.271503,-0.642580,0
-10.319962,0.891451,3.260087,-0.852223,0.109716,0.203620,44.401612,14.517887,-2.185746,4635732324305076200.000000,0.710257,0.283392,0.518680,-0.382355,-10.887388,-1.806346,2.977426,0.916944,1.112100,0.486397,43.819184,-1.349508,16.371308,4635728028800909300.000000,-0.700797,0.129984,-0.698788,-0.060683,-9.816484,-0.126324,-0.600436,0.078096,-0.418143,-0.251988,41.868823,13.101115,-14.678144,4635729747324698600.000000,0.236394,0.674863,0.271657,-0.644113,0
-10.698666,0.801391,3.804819,-0.765767,0.018495,0.251510,44.381502,14.490188,-1.929732,4635732324305076200.000000,0.711482,0.281716,0.519707,-0.379912,-19.143579,5.810797,5.630640,0.995429,0.845289,0.661703,43.610342,-1.479780,16.707780,4635728028800909300.000000,-0.698722,0.125315,-0.701830,-0.059310,-10.083611,-0.045420,-0.638491,0.045381,-0.425175,-0.296352,41.715810,13.266629,-14.853295,4635729747324698600.000000,0.235885,0.673409,0.272015,-0.645668,0
-11.123915,0.290996,4.487048,-0.681478,-0.042206,0.312477,44.386120,14.490188,-1.758196,4635732324305076200.000000,0.712830,0.280324,0.520344,-0.377537,-19.012424,13.695989,13.215300,0.671023,0.322820,0.701189,43.489590,-1.501511,16.839395,4635728028800909300.000000,-0.697977,0.121343,-0.703272,-0.059272,-10.201983,-0.026967,-0.824135,0.025088,-0.448870,-0.336366,41.634059,13.483786,-14.960027,4635729747324698600.000000,0.235351,0.671822,0.272515,-0.647303,0
-11.486156,-0.682876,4.630247,-0.585843,-0.054880,0.386000,44.386120,14.444663,-1.781944,4635732324305076200.000000,0.714202,0.279354,0.520701,-0.375163,-14.524755,9.023296,8.509385,-0.191748,0.805420,0.346859,43.480051,-1.624875,16.943830,4635728028800909300.000000,-0.695458,0.121035,-0.705713,-0.060487,-10.180120,-0.231076,-1.148058,0.102513,-0.475797,-0.381825,41.700489,13.550218,-15.146263,4635729747324698600.000000,0.234506,0.670183,0.272906,-0.649141,0
-11.642550,-1.356592,4.588327,-0.506661,-0.059122,0.483215,44.333017,14.310739,-1.750629,4635732457756214300.000000,0.715637,0.278822,0.520805,-0.372672,-14.522203,3.643645,-4.641358,-0.684307,1.101080,0.074025,43.349911,-1.793066,17.262478,4635728028800909300.000000,-0.691875,0.123029,-0.708733,-0.062211,-10.297652,-0.848546,-1.380292,0.314354,-0.515119,-0.433691,41.669839,13.578598,-15.260949,4635729747324698600.000000,0.232973,0.668580,0.272829,-0.651375,0
-11.647521,-1.369594,4.351870,-0.454926,-0.039386,0.612073,44.406863,14.048817,-1.587669,4635732539053441000.000000,0.717162,0.278752,0.520732,-0.369883,-14.006470,1.514404,-11.068778,-0.617598,1.044349,-0.185491,43.179025,-1.840599,17.792693,4635728028800909300.000000,-0.688543,0.125579,-0.711454,-0.063018,-10.356148,-1.017101,-1.223081,0.440195,-0.553096,-0.488388,41.361821,13.878080,-15.541689,4635729747324698600.000000,0.230981,0.666926,0.272523,-0.653903,0
-11.504702,-0.781135,3.789730,-0.408736,-0.028954,0.747759,44.570182,13.723839,-1.559231,4635732539053441000.000000,0.718812,0.279128,0.520456,-0.366772,-13.390412,-0.226944,-7.366789,-0.121590,0.797931,-0.310433,43.074544,-1.719968,18.290518,4635728028800909300.000000,-0.686221,0.127009,-0.713519,-0.062123,-10.254822,0.374278,-0.748657,0.300992,-0.595501,-0.515909,41.264160,14.106354,-15.823593,4635729747324698600.000000,0.229346,0.664983,0.272628,-0.656408,0
-11.168223,0.191435,3.244313,-0.381650,-0.032304,0.852996,44.736464,13.288042,-1.753843,4635732539053441000.000000,0.720588,0.279806,0.519999,-0.363404,-11.592911,0.038815,0.086146,0.192006,0.671795,-0.349743,42.979612,-1.485388,18.548354,4635728028800909300.000000,-0.684443,0.127626,-0.715276,-0.060251,-10.020010,1.491913,-0.549333,0.145503,-0.623646,-0.563128,41.160833,14.172795,-16.097293,4635729747324698600.000000,0.228042,0.662752,0.273260,-0.658852,0
-10.669771,1.318698,2.593814,-0.385943,-0.035767,0.911118,44.899769,12.795160,-1.779679,4635732539053441000.000000,0.722453,0.280587,0.519462,-0.359849,-9.401078,0.526038,2.896375,0.017155,0.740038,-0.349052,42.900931,-1.428266,18.658284,4635728028800909300.000000,-0.682361,0.128754,-0.717175,-0.058866,-9.992202,1.146114,-0.539142,0.062187,-0.644610,-0.622938,41.008949,14.201105,-16.192927,4635729767245553700.000000,0.226824,0.660308,0.274262,-0.661306,0
-10.249391,2.410093,1.882494,-0.445762,-0.079856,0.908167,45.066044,12.466151,-1.490762,4635732539053441000.000000,0.724467,0.281112,0.518876,-0.356220,-7.943847,-0.385645,2.477414,-0.164268,0.807954,-0.313948,42.818207,-1.437752,18.904987,4635728028800909300.000000,-0.679962,0.130309,-0.719233,-0.058085,-9.934562,1.030201,-0.431540,-0.069703,-0.661007,-0.682854,40.922364,14.499496,-16.388247,4635729962073063400.000000,0.225819,0.657615,0.275773,-0.663700,0
-9.892444,3.118611,1.297510,-0.570096,-0.222527,0.846816,45.130772,12.272143,-1.456561,4635732539053441000.000000,0.726829,0.280912,0.518106,-0.352667,-7.855983,-2.549768,2.004950,-0.078905,0.765552,-0.213113,42.732749,-1.440474,19.197985,4635728028800909300.000000,-0.677705,0.131308,-0.721238,-0.057358,-9.909015,1.180474,-0.361941,-0.160606,-0.671116,-0.744332,40.803192,14.716714,-16.599415,4635729962073063400.000000,0.224901,0.654727,0.277690,-0.666064,0
-9.298761,3.482605,0.947015,-0.714177,-0.440369,0.727823,45.183848,12.002674,-1.692742,4635732405663600600.000000,0.729642,0.279695,0.517016,-0.349411,-8.052686,-4.075002,1.198359,0.168451,0.692569,-0.078194,42.580902,-1.374073,19.405571,4635728028800909300.000000,-0.675764,0.131184,-0.723162,-0.056308,-9.878051,1.001675,-0.441728,-0.211693,-0.686563,-0.810331,40.466849,14.811435,-16.939585,4635729962073063400.000000,0.223953,0.651659,0.279909,-0.668458,0
-8.467744,3.626889,1.059248,-0.848279,-0.576908,0.589077,45.261717,11.771648,-1.915809,4635732324305076200.000000,0.732686,0.277567,0.515857,-0.346439,-8.131450,-3.731998,0.239443,0.452918,0.605589,0.029360,42.410005,-1.231710,19.664560,4635728028800909300.000000,-0.674210,0.129913,-0.724959,-0.054751,-9.912629,0.744215,-0.458233,-0.273085,-0.706164,-0.862448,40.084374,15.145960,-17.027287,4635729962073063400.000000,0.223043,0.648404,0.282417,-0.670868,0
-7.910263,3.559034,1.434313,-0.992773,-0.565173,0.501455,45.190906,11.661410,-1.982225,4635732324305076200.000000,0.735727,0.274819,0.515030,-0.343401,-8.303592,-2.603801,-0.649058,0.642311,0.547166,0.095260,42.362410,-1.063528,19.954817,4635728028800909300.000000,-0.672912,0.127896,-0.726664,-0.052839,-10.043532,0.480149,-0.394929,-0.348416,-0.719181,-0.901775,39.894462,15.753898,-17.152996,4635729962073063400.000000,0.222237,0.644981,0.285224,-0.673244,0
-8.026292,3.071402,1.564219,-1.122699,-0.478128,0.504806,45.130772,11.633656,-1.916951,4635732324305076200.000000,0.738714,0.271799,0.514637,-0.339964,-8.530067,-1.601316,-1.676937,0.643419,0.573555,0.107053,42.426080,-0.902125,20.162408,4635728028800909300.000000,-0.671523,0.125844,-0.728440,-0.050943,-10.117462,0.237850,-0.306098,-0.400616,-0.734924,-0.937872,39.646041,16.189492,-17.425828,4635729962073063400.000000,0.221482,0.641405,0.288252,-0.675615,0
-8.595921,2.352837,1.633732,-1.248672,-0.412880,0.565959,45.282394,11.482033,-1.758643,4635732324305076200.000000,0.741766,0.268606,0.514538,-0.335984,-9.150849,-0.651887,-1.802754,0.464121,0.624940,0.074450,42.255459,-0.933114,20.354998,4635728028800909300.000000,-0.669884,0.124403,-0.730296,-0.049473,-9.965542,-0.241844,-0.161434,-0.375813,-0.758818,-0.958900,39.467232,16.354966,-17.620017,4635729962073063400.000000,0.220624,0.637742,0.291236,-0.678079,0
-9.070193,1.847853,1.631560,-1.365858,-0.424140,0.635676,45.427980,11.131781,-1.790744,4635732324305076200.000000,0.745042,0.265175,0.514469,-0.331535,-10.006586,0.869335,-0.347463,0.189789,0.621679,0.022005,42.011311,-1.084954,20.616704,4635728028800909300.000000,-0.668118,0.123884,-0.732052,-0.048693,-9.930912,-0.795309,0.167516,-0.329229,-0.783329,-0.952534,39.197324,16.608362,-17.803126,4635729962073063400.000000,0.219683,0.634042,0.294042,-0.680639,0
-9.234704,1.314848,1.644653,-1.416037,-0.451095,0.717564,45.407307,10.769781,-1.961653,4635732457659377700.000000,0.748512,0.261716,0.514272,-0.326740,-10.110571,2.003698,0.819580,-0.128072,0.638131,-0.021914,41.947363,-1.056709,20.982759,4635728028800909300.000000,-0.666142,0.124387,-0.733762,-0.048752,-10.406023,-0.537652,0.110593,-0.303209,-0.776346,-0.916238,38.806933,17.072192,-17.996370,4635729962073063400.000000,0.218762,0.630413,0.296677,-0.683159,0
-9.435158,0.611804,2.005983,-1.429002,-0.392823,0.789787,45.427986,10.493233,-2.018848,4635732539053441000.000000,0.751933,0.258439,0.514171,-0.321611,-9.912634,1.121804,0.354905,-0.413215,0.673133,-0.055867,41.944637,-1.037629,21.069979,4635728028800909300.000000,-0.663913,0.125791,-0.735486,-0.049571,-10.980698,-0.133479,-0.159298,-0.340763,-0.770854,-0.892379,38.554162,17.529306,-18.289348,4635729962073063400.000000,0.217994,0.626777,0.299354,-0.685577,0
-9.917574,-0.034206,2.277753,-1.448708,-0.308460,0.826124,45.566481,10.249122,-1.953587,4635732539053441000.000000,0.755207,0.255279,0.514296,-0.316220,-10.176470,-0.370013,-0.486043,-0.511591,0.666545,-0.064680,41.821379,-1.047111,21.069979,4635728028800909300.000000,-0.661647,0.127492,-0.737158,-0.050670,-11.435551,0.400258,-0.594847,-0.419771,-0.731414,-0.887254,38.442969,17.905276,-18.554124,4635729962073063400.000000,0.217392,0.623173,0.302271,-0.687771,0
-10.455094,-0.377621,2.251195,-1.473938,-0.302144,0.840192,45.729803,9.951924,-1.848351,4635732539053441000.000000,0.758474,0.252067,0.514432,-0.310706,-10.456049,-1.134681,-1.079096,-0.435216,0.640682,-0.059350,41.586838,-1.116205,21.439742,4635728028800909300.000000,-0.659493,0.128959,-0.738769,-0.051563,-11.806239,0.848886,-1.211932,-0.488879,-0.684355,-0.893645,38.192088,18.136063,-18.534033,4635729962073063400.000000,0.216885,0.619616,0.305439,-0.689742,0
-10.841902,-0.231891,2.323221,-1.498910,-0.333671,0.824606,45.843022,9.675385,-1.859747,4635732539053441000.000000,0.761776,0.248689,0.514491,-0.305205,-10.576942,-0.944485,-1.110995,-0.284070,0.605444,-0.057680,41.339964,-1.135288,21.839981,4635728028800909300.000000,-0.657523,0.129996,-0.740310,-0.052015,-12.190874,0.809253,-0.577866,-0.666127,-0.653412,-0.884838,37.888216,18.371569,-18.463412,4635729962073063400.000000,0.216816,0.615983,0.309113,-0.691379,0
-11.015289,0.213008,2.513887,-1.537397,-0.346338,0.768439,45.928463,9.484307,-1.823952,4635732539053441000.000000,0.765033,0.245041,0.514588,-0.299796,-10.577066,-0.418438,-0.839979,-0.172326,0.563085,-0.078417,41.095838,-1.144768,22.000336,4635728028800909300.000000,-0.655745,0.130782,-0.741742,-0.052087,-12.258303,0.941857,-1.118942,-0.821015,-0.587777,-0.831037,37.708301,18.776845,-18.666612,4635729962073063400.000000,0.217208,0.612450,0.313146,-0.692579,0
-10.956779,0.675606,2.709197,-1.596327,-0.351126,0.671684,45.960873,9.272581,-1.774704,4635732539053441000.000000,0.768199,0.240980,0.514815,-0.294557,-10.552654,-0.093928,-0.873330,-0.164708,0.536713,-0.106777,41.041290,-1.204367,22.022156,4635728028800909300.000000,-0.654055,0.131628,-0.743084,-0.052074,-12.159699,0.476095,-1.245269,-1.179933,-0.591276,-0.781338,37.427392,19.331744,-18.913599,4635729962073063400.000000,0.218655,0.608626,0.318074,-0.693249,0
-10.734524,0.993845,2.912092,-1.651945,-0.337646,0.542291,46.013910,8.975396,-1.944338,4635732539053441000.000000,0.771192,0.236467,0.515255,-0.289583,-10.528240,0.086594,-1.102390,-0.219357,0.523644,-0.134787,41.098158,-1.163871,22.173807,4635728028800909300.000000,-0.652379,0.132705,-0.744359,-0.052160,-12.094276,-1.942271,-0.542920,-1.571122,-0.594732,-0.804862,37.040299,19.907237,-18.800021,4635729962073063400.000000,0.221020,0.604373,0.324173,-0.693394,0
-10.465981,0.987974,2.839298,-1.677875,-0.302732,0.408340,45.993294,8.698851,-2.043268,4635732539053441000.000000,0.773932,0.231614,0.515942,-0.284934,-10.465912,-0.086447,-1.301876,-0.266269,0.493058,-0.158412,40.991317,-1.147496,22.283821,4635728028800909300.000000,-0.650774,0.133977,-0.745522,-0.052345,-11.276555,-1.950390,-0.746110,-1.862865,-0.570081,-0.770904,36.836485,20.145923,-18.411639,4635729942283437100.000000,0.224167,0.599929,0.331031,-0.693002,0
-10.242881,0.677780,2.701214,-1.677693,-0.260818,0.291289,45.915423,8.659246,-1.743202,4635732605683934200.000000,0.776403,0.226549,0.516850,-0.280605,-10.373721,-0.525572,-1.428108,-0.292996,0.457574,-0.164256,40.832636,-1.213835,22.454558,4635728028800909300.000000,-0.649262,0.135330,-0.746576,-0.052617,-10.599911,-0.582032,-1.101009,-2.183811,-0.552966,-0.682695,36.893992,20.502762,-18.062310,4635729747324698600.000000,0.228328,0.595306,0.338584,-0.691982,0
-10.055015,0.176080,2.597587,-1.668884,-0.210101,0.202835,45.842129,8.646170,-1.441213,4635732646427623400.000000,0.778615,0.221370,0.517969,-0.276519,-10.257111,-0.890657,-1.376867,-0.255723,0.425643,-0.157032,40.854004,-1.232948,22.725686,4635728028800909300.000000,-0.647866,0.136552,-0.747552,-0.052811,-10.080163,1.065514,-2.211049,-2.474030,-0.510875,-0.553017,36.776110,21.345885,-17.870213,4635729747324698600.000000,0.233497,0.590648,0.346656,-0.690249,0
-9.849064,-0.476751,2.293341,-1.643331,-0.163831,0.138917,45.814384,8.512189,-1.534175,4635732646427623400.000000,0.780591,0.216180,0.519242,-0.272639,-10.125560,-0.926478,-1.061243,-0.179688,0.377253,-0.139956,40.993585,-1.166610,22.867036,4635728028800909300.000000,-0.646659,0.137505,-0.748420,-0.052841,-9.275965,4.242256,-3.679367,-2.830231,-0.421718,-0.383940,36.481198,21.929254,-17.571524,4635729747324698600.000000,0.239869,0.586069,0.355380,-0.687525,0
-9.598998,-1.101265,2.007308,-1.602109,-0.124572,0.103554,45.761271,8.546161,-1.643380,4635732646427623400.000000,0.782370,0.211082,0.520603,-0.268914,-9.906011,-0.744994,-0.777605,-0.124809,0.343750,-0.124047,40.962753,-1.014837,22.888882,4635728028800909300.000000,-0.645583,0.138252,-0.749216,-0.052763,-8.742385,8.414526,-6.540360,-3.281783,-0.218665,-0.189263,36.422528,22.260055,-17.088770,4635729747324698600.000000,0.247559,0.581813,0.365067,-0.683326,0
-9.338014,-1.523272,1.837715,-1.568533,-0.092757,0.089090,45.782047,8.606219,-1.534181,4635732446202866700.000000,0.783999,0.206090,0.522020,-0.265269,-9.718736,-0.591606,-0.597073,-0.095225,0.315981,-0.107437,40.621510,-0.986066,23.106786,4635728028800909300.000000,-0.644606,0.138861,-0.749953,-0.052654,-8.621445,13.061142,-10.526350,-4.113411,-0.004077,-0.080266,36.501257,22.731725,-16.520461,4635729747324698600.000000,0.257187,0.577337,0.376992,-0.677063,0
-9.172717,-1.663174,1.820218,-1.553780,-0.059675,0.087444,45.913022,8.462057,-1.335901,4635732324305076200.000000,0.785510,0.201171,0.523507,-0.261620,-9.642571,-0.533116,-0.409941,-0.084750,0.289036,-0.090345,40.471729,-1.121449,23.463374,4635728028800909300.000000,-0.643714,0.139383,-0.750627,-0.052573,-10.841413,10.501412,-10.599612,-4.992049,-0.006843,0.114361,36.500018,23.279992,-15.719827,4635729747324698600.000000,0.269386,0.572011,0.390788,-0.668968,0
-9.047681,-1.695175,1.767448,-1.551614,-0.045266,0.097286,45.973080,8.321170,-1.196667,4635732324305076200.000000,0.786965,0.196289,0.525009,-0.257920,-9.565322,-0.524918,-0.432541,-0.106527,0.281401,-0.079888,40.644817,-1.216548,23.557554,4635728028800909300.000000,-0.642831,0.139928,-0.751280,-0.052594,-10.914018,6.696660,-8.370272,-5.079519,-0.057912,0.524210,36.408282,23.826014,-14.497087,4635729747324698600.000000,0.282898,0.566862,0.403623,-0.660095,0
-9.004443,-1.572471,1.819874,-1.551355,-0.026274,0.117147,45.980666,8.341936,-1.106595,4635732324305076200.000000,0.788367,0.191464,0.526534,-0.254128,-9.678823,-0.667026,-0.574833,-0.126487,0.281752,-0.073001,40.699482,-1.166631,23.408707,4635728028800909300.000000,-0.641933,0.140504,-0.751933,-0.052695,-10.477543,5.636230,-6.067550,-4.799323,-0.109495,0.949697,36.746834,24.424984,-13.382959,4635729747324698600.000000,0.296880,0.562373,0.414448,-0.651023,0
-9.046994,-1.398271,1.933042,-1.554270,-0.013627,0.151265,46.083907,8.374279,-0.952875,4635732324305076200.000000,0.789747,0.186710,0.528054,-0.250197,-9.859200,-0.679608,-0.591423,-0.142748,0.289452,-0.070737,40.510006,-1.156970,23.289180,4635728028800909300.000000,-0.641001,0.141119,-0.752603,-0.052849,-12.096520,4.048586,-3.889779,-4.344671,-0.177304,1.343910,37.159542,24.603103,-12.364263,4635729747324698600.000000,0.310867,0.558730,0.422874,-0.642153,0
-9.100442,-1.175933,1.874366,-1.550318,-0.019455,0.198490,46.143986,8.374279,-0.765151,4635732524467148800.000000,0.791153,0.182060,0.529491,-0.246111,-9.862313,-0.586153,-0.680682,-0.196897,0.301551,-0.062209,40.389027,-1.226012,23.418874,4635728195440899100.000000,-0.639996,0.141853,-0.753296,-0.053189,-12.239818,4.275003,-2.606620,-3.881599,-0.161154,1.700781,37.429193,24.142714,-11.430073,4635729747324698600.000000,0.324596,0.556173,0.429111,-0.633382,0
-9.126516,-0.854272,1.780976,-1.535395,-0.016198,0.252416,45.999861,8.374279,-0.627553,4635732646427623400.000000,0.792562,0.177575,0.530860,-0.241867,-9.661950,-0.495242,-0.783799,-0.256245,0.311881,-0.055673,40.303585,-1.112558,23.604698,4635728243549274100.000000,-0.638920,0.142727,-0.754005,-0.053727,-12.616188,4.485266,-2.364205,-3.515278,-0.100164,1.987473,37.730082,23.845353,-10.682156,4635729747324698600.000000,0.338027,0.554624,0.433673,-0.624546,0
-9.191814,-0.492699,1.750281,-1.510601,-0.001795,0.298001,45.813446,8.381863,-0.472187,4635732646427623400.000000,0.793935,0.173280,0.532195,-0.237506,-9.503047,-0.731803,-0.985635,-0.327182,0.310721,-0.047017,40.284431,-1.074252,23.797274,4635728243549274100.000000,-0.637803,0.143762,-0.754697,-0.054511,-13.140582,3.807846,-2.990128,-3.222210,-0.024988,2.189809,38.238403,23.596565,-10.014022,4635729747324698600.000000,0.351077,0.553900,0.436994,-0.615610,0
-9.388042,-0.156854,1.753242,-1.485746,0.022851,0.326238,45.851929,8.280323,-0.334596,4635732579727821800.000000,0.795231,0.169149,0.533545,-0.233079,-9.529763,-1.004553,-1.189145,-0.387860,0.303963,-0.032433,40.161326,-1.140540,23.916817,4635728160255046700.000000,-0.636666,0.144911,-0.755363,-0.055530,-12.883961,2.460713,-3.614651,-2.907389,0.076286,2.354090,38.803086,23.058381,-9.257246,4635729747324698600.000000,0.363549,0.554059,0.439167,-0.606616,0
-9.614056,-0.013875,1.560719,-1.473931,0.028873,0.325705,46.063696,8.010853,-0.346056,4635732539053441000.000000,0.796474,0.165055,0.534882,-0.228665,-9.640895,-1.005221,-1.327653,-0.432874,0.296485,-0.025525,39.993147,-1.225997,24.005012,4635728136175091700.000000,-0.635521,0.146154,-0.756000,-0.056712,-12.169449,1.096976,-3.826212,-2.507045,0.185328,2.514886,39.157101,22.502350,-8.526062,4635729727687322600.000000,0.375219,0.555268,0.440023,-0.597719,0
-9.791240,-0.295685,1.334330,-1.456650,-0.004881,0.313147,46.156193,7.734349,-0.310195,4635732539053441000.000000,0.797737,0.160953,0.536077,-0.224345,-9.677734,-0.856207,-1.203488,-0.444699,0.288179,-0.032854,39.954830,-1.188330,24.099936,4635728136175091700.000000,-0.634395,0.147450,-0.756602,-0.057918,-11.800165,0.088660,-3.307714,-1.970059,0.284665,2.658590,39.533432,21.837367,-8.058908,4635729532576333800.000000,0.385745,0.557718,0.439274,-0.589229,0
-9.927195,-0.870353,1.542522,-1.436062,-0.030797,0.305378,46.057625,7.694908,-0.154833,4635732539053441000.000000,0.799007,0.156873,0.537152,-0.220105,-9.765699,-0.647441,-1.216522,-0.469447,0.284606,-0.054307,40.153695,-1.295017,24.207056,4635728136175091700.000000,-0.633267,0.148876,-0.757173,-0.059148,-11.865541,-0.041807,-2.375650,-1.433459,0.384480,2.785681,40.130416,20.773322,-7.688323,4635729532576333800.000000,0.395082,0.561408,0.436994,-0.581177,0
-9.958283,-1.414176,1.739367,-1.411268,-0.052499,0.304017,45.997494,7.681791,-0.032374,4635732539053441000.000000,0.800279,0.152847,0.538112,-0.215930,-10.008134,-0.645510,-1.270825,-0.510365,0.294899,-0.075559,40.211185,-1.463179,24.307451,4635728136175091700.000000,-0.632084,0.150480,-0.757742,-0.060443,-11.710077,0.769122,-1.576873,-0.979311,0.488378,2.899280,40.716373,19.944390,-7.388656,4635729532576333800.000000,0.403376,0.566212,0.433446,-0.573425,0
-9.797401,-1.750803,1.826101,-1.377786,-0.067664,0.306412,46.050566,7.600970,0.060653,4635732539053441000.000000,0.801538,0.148920,0.538971,-0.211824,-10.014298,0.495930,-0.874641,-0.476279,0.297185,-0.114907,40.021820,-1.567789,24.329355,4635728136175091700.000000,-0.630921,0.152118,-0.758296,-0.061527,-11.349433,0.848782,-1.357251,-0.552383,0.584998,2.981707,41.302322,19.227396,-7.029127,4635729532576333800.000000,0.410618,0.572022,0.428775,-0.565982,0
-9.538102,-1.835737,2.004193,-1.350758,-0.049271,0.309617,46.136015,7.523103,0.218957,4635732539053441000.000000,0.802715,0.145103,0.539847,-0.207749,-9.874780,0.479789,-0.889410,-0.529852,0.300259,-0.152312,39.834487,-1.586962,24.471375,4635728136175091700.000000,-0.629722,0.154014,-0.758816,-0.062679,-11.065435,0.425032,-1.381663,-0.215314,0.685681,3.031216,41.888212,18.278581,-6.745088,4635729522783416300.000000,0.416925,0.578641,0.423292,-0.558724,0
-9.299880,-1.770469,2.110207,-1.317458,-0.007133,0.312821,46.168400,7.442284,0.414261,4635732539053441000.000000,0.803754,0.141436,0.540814,-0.203705,-9.621404,-0.189648,-0.691064,-0.592107,0.318615,-0.179276,39.729858,-1.520687,24.663953,4635728136175091700.000000,-0.628427,0.156163,-0.759344,-0.063945,-10.991076,0.403958,-1.404965,-0.005978,0.777344,3.049461,42.460808,17.117763,-6.558676,4635729444787985400.000000,0.422537,0.585772,0.417365,-0.551489,0
-9.201431,-1.627336,2.230203,-1.280849,0.053791,0.312709,46.221458,7.258301,0.556513,4635732539053441000.000000,0.804609,0.137940,0.541938,-0.199700,-9.539461,-0.524438,-0.594174,-0.659249,0.325306,-0.205501,39.710682,-1.501511,24.783527,4635728136175091700.000000,-0.627070,0.158571,-0.759847,-0.065350,-10.874456,0.390561,-1.432757,0.134224,0.855899,3.033819,42.905834,15.968129,-6.461018,4635729639950516200.000000,0.427561,0.593205,0.411221,-0.544240,0
-9.260391,-1.410955,2.241934,-1.243352,0.090059,0.307257,46.359967,6.961096,0.605742,4635732405715142700.000000,0.805333,0.134585,0.543138,-0.195772,-9.647584,-0.744151,-0.936228,-0.679211,0.328270,-0.210665,39.653883,-1.634046,24.956912,4635728136175091700.000000,-0.625686,0.161047,-0.760341,-0.066802,-10.432788,0.107573,-1.635862,0.219074,0.927939,2.987208,43.399611,15.040468,-6.345579,4635729639950516200.000000,0.432073,0.600773,0.405057,-0.536949,0
-9.400564,-1.219876,2.179225,-1.196539,0.082871,0.289833,46.424755,6.843725,0.724051,4635732324305076200.000000,0.806011,0.131338,0.544271,-0.192006,-9.718337,-0.954412,-1.350023,-0.583497,0.311595,-0.185576,39.703703,-1.804945,25.152226,4635728219440658400.000000,-0.624407,0.163188,-0.760828,-0.068027,-9.857952,-0.314127,-2.035371,0.254223,0.982510,2.911562,43.806858,14.090468,-6.025916,4635729639950516200.000000,0.436163,0.608299,0.399033,-0.529628,0
-9.513785,-1.030874,2.327430,-1.145934,0.092011,0.253073,46.371707,6.893822,0.854107,4635732324305076200.000000,0.806591,0.128182,0.545399,-0.188467,-9.700901,-1.114605,-1.487806,-0.438644,0.257688,-0.152703,39.666092,-1.909583,25.044616,4635728243549274100.000000,-0.623384,0.164831,-0.761232,-0.068915,-9.405194,-0.690351,-2.397142,0.280446,1.026788,2.826498,44.014380,12.931911,-5.448861,4635729639950516200.000000,0.439854,0.615733,0.393184,-0.522310,0
-9.538611,-0.914287,2.368648,-1.093741,0.103205,0.212853,46.346880,6.770034,0.838093,4635732324305076200.000000,0.807068,0.125117,0.546533,-0.185171,-9.673748,-0.759416,-1.529907,-0.321178,0.205440,-0.135329,39.706437,-1.862512,24.925039,4635728243549274100.000000,-0.622601,0.166099,-0.761542,-0.069512,-9.070086,-1.139738,-2.688960,0.333653,1.063099,2.731830,44.249645,11.908822,-4.969502,4635729639950516200.000000,0.443076,0.623095,0.387466,-0.515079,0
-9.458201,-0.974500,2.293723,-1.042986,0.097643,0.176130,46.396979,6.578934,0.813267,4635732324305076200.000000,0.807486,0.122133,0.547617,-0.182113,-9.696658,-0.514482,-1.585458,-0.267130,0.168729,-0.126653,39.722889,-1.909573,25.054543,4635728243549274100.000000,-0.621969,0.167187,-0.761777,-0.069984,-8.810407,-1.282873,-2.686717,0.381718,1.076985,2.607633,44.747920,10.913367,-4.578865,4635729639950516200.000000,0.445818,0.630285,0.381937,-0.508046,0
-9.442217,-1.161813,2.255422,-1.000485,0.102616,0.142468,46.379291,6.465713,0.999750,4635732324305076200.000000,0.807831,0.119217,0.548691,-0.179259,-9.780606,-0.636994,-1.551845,-0.227849,0.126506,-0.121661,39.599844,-2.051815,25.098421,4635728243549274100.000000,-0.621496,0.168146,-0.761916,-0.070375,-8.647277,-0.980998,-2.288312,0.392591,1.080189,2.469455,45.079725,9.987841,-4.188232,4635729639950516200.000000,0.448174,0.637200,0.376701,-0.501211,0
-9.559234,-1.373959,2.155242,-0.954741,0.104568,0.115729,46.306050,6.387841,1.171487,4635732324305076200.000000,0.808116,0.116394,0.549742,-0.176594,-9.812008,-0.759317,-1.083921,-0.159355,0.097384,-0.099173,39.507419,-2.096929,25.022718,4635728243549274100.000000,-0.621157,0.168846,-0.762015,-0.070627,-8.587341,-0.276343,-1.840000,0.348125,1.082034,2.327794,45.203997,9.199999,-3.815381,4635729639950516200.000000,0.450294,0.643736,0.371892,-0.494506,0
-9.725495,-1.551166,2.205734,-0.909845,0.085307,0.105489,46.278267,6.413088,1.322170,4635732324305076200.000000,0.808403,0.113683,0.550690,-0.174073,-9.653897,-0.800198,-0.734549,-0.132128,0.096828,-0.082166,39.547722,-2.033439,25.076458,4635728243549274100.000000,-0.620834,0.169422,-0.762130,-0.070837,-8.798184,-0.160879,-1.682404,0.262674,1.069509,2.189324,45.480322,8.345481,-3.611191,4635729649704776700.000000,0.452328,0.649802,0.367564,-0.487908,0
-9.775187,-1.558351,2.232701,-0.866864,0.042954,0.112632,46.278267,6.445509,1.512848,4635732324305076200.000000,0.808760,0.111102,0.551454,-0.171644,-9.512605,-0.815151,-0.671407,-0.112687,0.109033,-0.059173,39.564194,-1.947987,25.098421,4635728243549274100.000000,-0.620480,0.169878,-0.762299,-0.071037,-9.158859,-0.753461,-1.633595,0.158674,1.049796,2.045319,45.819919,7.504278,-3.300475,4635729747324698600.000000,0.454335,0.655348,0.363764,-0.481429,0
-9.652307,-1.397162,2.277709,-0.812469,0.010907,0.128100,46.331286,6.392488,1.586962,4635732324305076200.000000,0.809168,0.108715,0.552056,-0.169299,-9.475692,-0.638138,-0.605180,-0.104572,0.122917,-0.037679,39.431741,-1.928770,25.022733,4635728160332350500.000000,-0.620080,0.170248,-0.762521,-0.071257,-9.455148,-1.611298,-1.337330,0.082554,1.035524,1.917344,45.999709,6.804085,-2.812238,4635729747324698600.000000,0.456275,0.660473,0.360407,-0.475074,0
-9.446500,-1.166942,2.493582,-0.762194,0.004530,0.145189,46.409154,6.261610,1.533952,4635732324305076200.000000,0.809571,0.106533,0.552587,-0.167013,-9.482406,-0.737325,-0.718404,-0.125133,0.132664,-0.020696,39.270301,-2.061218,25.152132,4635728136175091700.000000,-0.619631,0.170620,-0.762773,-0.071579,-9.663757,-1.962115,-1.021039,0.001391,1.016690,1.825002,46.025230,6.188212,-2.332843,4635729747324698600.000000,0.458248,0.665216,0.357400,-0.468788,0
-9.241921,-1.051535,2.630466,-0.717739,0.007991,0.160953,46.542974,6.102921,1.562089,4635732324305076200.000000,0.809949,0.104538,0.553086,-0.164773,-9.437849,-0.885341,-0.766320,-0.120621,0.146176,0.000294,39.367043,-2.222662,25.347451,4635728136175091700.000000,-0.619135,0.170918,-0.763076,-0.071932,-9.872429,-1.754718,-0.866683,-0.103086,0.991249,1.746939,46.075121,5.617872,-1.951058,4635729747324698600.000000,0.460361,0.669546,0.354738,-0.462533,0
-9.122332,-0.999772,2.679292,-0.681493,0.022201,0.173256,46.554866,6.042665,1.599170,4635732324305076200.000000,0.810280,0.102704,0.553598,-0.162566,-9.461953,-0.877717,-0.759607,-0.100942,0.150368,0.026861,39.594689,-2.135396,25.391399,4635728136175091700.000000,-0.618632,0.171081,-0.763413,-0.072288,-9.941359,-1.183242,-0.987695,-0.226881,0.966109,1.645578,46.272570,4.844416,-1.666949,4635729747324698600.000000,0.462631,0.673397,0.352525,-0.456328,0
-9.124799,-0.931167,2.667553,-0.647868,0.035870,0.189237,46.423992,6.088090,1.478036,4635732324305076200.000000,0.810569,0.101029,0.554121,-0.160376,-9.501323,-0.668083,-0.983879,-0.087029,0.147298,0.055460,39.517217,-1.967245,25.381941,4635728136175091700.000000,-0.618141,0.171117,-0.763766,-0.072676,-9.724939,-0.643850,-0.966651,-0.349331,0.924065,1.535263,46.585659,4.154116,-1.453957,4635729747324698600.000000,0.465067,0.676731,0.350751,-0.450247,0
-9.158485,-0.865498,2.686856,-0.615933,0.038197,0.205812,46.310728,6.168899,1.403851,4635732324305076200.000000,0.810845,0.099501,0.554619,-0.158200,-9.585240,-0.913063,-1.371448,-0.085211,0.127300,0.078506,39.346313,-1.994984,25.530539,4635728136175091700.000000,-0.617707,0.171068,-0.764085,-0.073133,-9.577172,-0.205493,-0.857890,-0.471856,0.876782,1.433592,46.590194,3.519338,-1.054489,4635729747324698600.000000,0.467701,0.679553,0.349382,-0.444292,0
-9.182901,-0.713616,2.694903,-0.596623,0.021488,0.220767,46.384250,6.102947,1.646101,4635732324305076200.000000,0.811155,0.098062,0.555038,-0.156024,-9.616684,-1.256374,-1.436514,-0.032487,0.115976,0.111453,39.383503,-2.269588,25.583968,4635728219366247400.000000,-0.617337,0.170775,-0.764412,-0.073514,-9.801222,0.204070,-0.756932,-0.633328,0.815807,1.341349,46.407032,2.898963,-0.575071,4635729747324698600.000000,0.470685,0.681781,0.348437,-0.438432,0
-9.222454,-0.589365,2.806748,-0.583805,-0.000835,0.243007,46.555147,5.891266,1.915607,4635732324305076200.000000,0.811521,0.096704,0.555359,-0.153811,-9.515399,-1.207657,-1.040501,0.005253,0.113464,0.141149,39.282549,-2.343822,25.511055,4635728243549274100.000000,-0.616993,0.170289,-0.764766,-0.073854,-10.194065,0.408433,-0.641404,-0.780958,0.754144,1.258407,46.368056,2.431699,-0.194362,4635729747324698600.000000,0.474004,0.683453,0.347858,-0.432674,0
-9.241004,-0.546404,3.047454,-0.578936,-0.019803,0.273018,46.567094,5.647147,1.883848,4635732324305076200.000000,0.811943,0.095418,0.555597,-0.151513,-9.541898,-1.181368,-1.012882,0.008439,0.115706,0.168093,39.048192,-2.287075,25.555262,4635728243549274100.000000,-0.616636,0.169709,-0.765144,-0.074252,-10.596980,0.373794,-0.705823,-0.876221,0.695686,1.199762,46.536828,2.044450,0.087508,4635729747324698600.000000,0.477549,0.684717,0.347486,-0.427040,0
-9.172885,-0.521988,3.210061,-0.581585,-0.053195,0.303077,46.436228,5.448405,1.705371,4635732324305076200.000000,0.812456,0.094173,0.555708,-0.149119,-9.634049,-0.957161,-1.415892,0.033955,0.117256,0.193967,39.056642,-2.270577,25.725815,4635728243549274100.000000,-0.616283,0.168982,-0.765552,-0.074634,-10.839162,0.750904,-0.693529,-0.962925,0.640245,1.131890,46.552426,1.589344,0.371641,4635729747324698600.000000,0.481280,0.685581,0.347335,-0.421553,0
-9.010028,-0.429448,3.390988,-0.576585,-0.044924,0.314698,46.474328,5.285063,1.756902,4635732457462978600.000000,0.812949,0.092976,0.555834,-0.146693,-9.703338,-0.673647,-1.525925,0.080547,0.087709,0.205536,39.331217,-2.393508,25.703634,4635728243549274100.000000,-0.616053,0.168089,-0.765906,-0.074919,-10.687165,1.366782,-0.795685,-1.053895,0.586348,1.069062,46.486892,1.339688,0.566959,4635729747324698600.000000,0.485215,0.686048,0.347400,-0.416195,0
-8.860135,-0.355724,3.479110,-0.563918,-0.000107,0.308481,46.587600,5.171789,2.005185,4635732539053441000.000000,0.813323,0.091835,0.556102,-0.144298,-9.726549,-0.459070,-1.355713,0.108409,0.068286,0.208048,39.414954,-2.561660,25.608727,4635728243549274100.000000,-0.615904,0.167109,-0.766219,-0.075135,-10.513788,2.019457,-0.838825,-1.170113,0.538089,1.008564,46.507911,1.012476,0.779900,4635729747324698600.000000,0.489425,0.686078,0.347725,-0.410910,0
-8.844017,-0.334239,3.441270,-0.549371,0.022794,0.297138,46.574665,5.093909,2.119449,4635732539053441000.000000,0.813627,0.090730,0.556439,-0.141966,-9.729300,-0.263788,-1.258922,0.095852,0.066811,0.195880,39.285351,-2.533999,25.737981,4635728243549274100.000000,-0.615754,0.166200,-0.766515,-0.075361,-10.683573,2.443681,-1.076241,-1.306523,0.488662,0.953884,46.602364,0.469804,1.152891,4635729747324698600.000000,0.493980,0.685635,0.348323,-0.405660,0
-8.923111,-0.299332,3.334836,-0.525810,0.034905,0.282079,46.546829,4.960134,2.071119,4635732539053441000.000000,0.813880,0.089678,0.556806,-0.139733,-9.814390,-0.371004,-1.122247,0.056048,0.059021,0.185649,39.180621,-2.448544,25.782036,4635728243549274100.000000,-0.615605,0.165423,-0.766770,-0.075694,-10.825766,2.444992,-1.336213,-1.446872,0.447967,0.921619,46.540228,0.016819,1.331707,4635729747324698600.000000,0.498913,0.684754,0.349148,-0.400366,0
-9.043455,-0.235377,3.215702,-0.496974,0.060449,0.262342,46.592221,4.849775,2.038636,4635732539053441000.000000,0.814046,0.088692,0.557245,-0.137623,-9.820260,-0.528495,-1.124273,0.001262,0.065711,0.179585,39.104627,-2.429273,25.403890,4635728243549274100.000000,-0.615398,0.164808,-0.767020,-0.076183,-10.793651,2.188853,-1.254169,-1.539105,0.418627,0.921408,46.475783,-0.211712,1.360415,4635729747324698600.000000,0.504124,0.683594,0.350047,-0.395000,0
-9.215570,-0.184828,3.098266,-0.469457,0.087198,0.248261,46.521715,4.821924,2.099164,4635732539053441000.000000,0.814128,0.087783,0.557762,-0.135614,-9.767486,-0.731700,-1.258181,-0.020021,0.075806,0.184171,39.154278,-2.561619,25.293739,4635728243549274100.000000,-0.615142,0.164236,-0.767292,-0.076744,-10.679402,1.694996,-1.088778,-1.531596,0.407060,0.939959,46.506787,-0.542255,1.564502,4635729737660635100.000000,0.509330,0.682420,0.350836,-0.389614,0
-9.380632,-0.163337,2.953487,-0.441428,0.092161,0.239971,46.317613,4.768959,2.196827,4635732539053441000.000000,0.814180,0.086952,0.558280,-0.133696,-9.753716,-0.781274,-1.218358,-0.015814,0.075493,0.189994,39.239731,-2.732523,25.671872,4635728243549274100.000000,-0.614889,0.163634,-0.767567,-0.077308,-10.518509,1.272132,-0.971220,-1.451271,0.408225,0.951613,46.597855,-1.021518,1.848690,4635729639950516200.000000,0.514296,0.681398,0.351444,-0.384295,0
-9.519544,-0.067910,2.809934,-0.411266,0.086414,0.229185,46.229435,4.683514,2.241520,4635732539053441000.000000,0.814224,0.086195,0.558762,-0.131885,-9.696995,-0.611114,-1.215232,-0.015540,0.073116,0.192853,39.126662,-2.837254,25.782036,4635728243549274100.000000,-0.614642,0.163020,-0.767838,-0.077880,-10.322217,0.929960,-0.777003,-1.292898,0.410746,0.960949,46.613480,-1.634324,2.036316,4635729639950516200.000000,0.518797,0.680700,0.351760,-0.379160,0
-9.631124,0.078572,2.705918,-0.374996,0.079750,0.215044,46.373170,4.552676,2.072167,4635732539053441000.000000,0.814261,0.085525,0.559205,-0.130208,-9.689923,-0.542636,-1.296358,-0.025120,0.075942,0.190854,38.899061,-2.790367,25.555183,4635728243549274100.000000,-0.614380,0.162439,-0.768110,-0.078475,-10.010208,0.970831,-0.591717,-1.133353,0.416962,0.955428,46.541343,-2.011752,2.153851,4635729639950516200.000000,0.522805,0.680319,0.351836,-0.374236,0
-9.721212,0.179666,2.628037,-0.338786,0.064993,0.200753,46.567275,4.439376,1.965392,4635732405988820000.000000,0.814309,0.084937,0.559581,-0.128669,-9.673777,-0.537126,-1.290047,-0.028599,0.077734,0.193438,38.910112,-2.837235,25.715875,4635728410218381300.000000,-0.614109,0.161859,-0.768386,-0.079088,-9.869343,1.123494,-0.389677,-0.988025,0.422386,0.937078,46.472623,-2.254803,2.357948,4635729639950516200.000000,0.526343,0.680213,0.351736,-0.369534,0
-9.776403,0.207526,2.547239,-0.303948,0.042460,0.185545,46.586906,4.308559,2.207396,4635732324305076200.000000,0.814386,0.084420,0.559866,-0.127270,-9.658812,-0.537126,-1.310132,-0.036283,0.091207,0.195230,38.995571,-2.979402,25.933260,4635728458834509800.000000,-0.613788,0.161296,-0.768695,-0.079722,-9.660722,0.698712,-0.250870,-0.807055,0.440629,0.917743,46.340399,-2.494420,2.634466,4635729639950516200.000000,0.529295,0.680482,0.351441,-0.365077,0
-9.737403,0.192402,2.499601,-0.272009,0.023187,0.172832,46.506101,4.195242,2.416525,4635732324305076200.000000,0.814490,0.083971,0.560072,-0.125995,-9.665507,-0.622182,-1.290047,-0.035973,0.107469,0.198779,38.958157,-3.081383,25.826143,4635728458834509800.000000,-0.613415,0.160727,-0.769047,-0.080352,-9.439917,0.070419,-0.192031,-0.599473,0.471588,0.908035,46.374520,-2.824928,2.734458,4635729639950516200.000000,0.531584,0.681225,0.350916,-0.360846,0
-9.629256,0.107481,2.497873,-0.243422,0.009149,0.172738,46.473583,4.064406,2.400747,4635732324305076200.000000,0.814614,0.083612,0.560214,-0.124791,-9.687164,-0.779298,-1.196724,-0.011269,0.109434,0.205532,38.866012,-2.977826,26.008845,4635728458834509800.000000,-0.613049,0.160073,-0.769415,-0.080920,-9.215648,-0.329600,-0.163079,-0.389418,0.512575,0.895148,46.616631,-3.288809,2.768428,4635729639950516200.000000,0.533184,0.682461,0.350194,-0.356827,0
-9.507194,-0.044827,2.540326,-0.216977,0.002288,0.181793,46.473583,3.951096,2.428730,4635732324305076200.000000,0.814749,0.083361,0.560315,-0.123620,-9.645427,-0.647789,-1.086857,0.028804,0.119701,0.212182,38.843956,-2.941984,26.075014,4635728292171236400.000000,-0.612674,0.159299,-0.769827,-0.081370,-9.068064,-0.300017,-0.215195,-0.200085,0.545221,0.857791,46.679229,-3.740633,3.149044,4635729639950516200.000000,0.534133,0.684100,0.349362,-0.353067,0
-9.392684,-0.147674,2.563555,-0.185387,0.000407,0.191812,46.526514,3.971507,2.518826,4635732324305076200.000000,0.814882,0.083239,0.560389,-0.122489,-9.650540,-0.532018,-1.080943,0.059950,0.134412,0.214456,38.853405,-3.008129,25.923826,4635728243549274100.000000,-0.612271,0.158443,-0.770287,-0.081717,-8.906103,0.032829,-0.295166,-0.078543,0.562022,0.798283,46.378624,-4.076763,3.543090,4635729639950516200.000000,0.534613,0.685935,0.348551,-0.349562,0
-9.282812,-0.155780,2.631613,-0.153445,-0.004632,0.196794,46.559036,4.056963,2.551347,4635732324305076200.000000,0.815016,0.083236,0.560426,-0.121417,-9.712750,-0.446569,-1.086459,0.077800,0.139445,0.205603,38.790023,-3.150272,25.955286,4635728243549274100.000000,-0.611867,0.157571,-0.770759,-0.081980,-8.716256,0.351996,-0.322864,-0.017695,0.575142,0.729170,46.056005,-4.477419,3.812163,4635729639950516200.000000,0.534790,0.687816,0.347873,-0.346257,0
-9.180522,-0.138929,2.756584,-0.118910,-0.022692,0.194300,46.657319,4.036558,2.490865,4635732324305076200.000000,0.815179,0.083335,0.560386,-0.120441,-9.710396,-0.257118,-1.124268,0.068773,0.147371,0.186407,38.770714,-3.252298,26.204210,4635728243549274100.000000,-0.611437,0.156786,-0.771235,-0.082219,-8.596201,0.174700,-0.372959,-0.004147,0.577898,0.641104,46.278267,-4.808794,3.739671,4635729639950516200.000000,0.534790,0.689593,0.347428,-0.343154,0
-9.097990,-0.164518,2.936208,-0.079544,-0.040643,0.188298,46.717731,3.905760,2.400774,4635732324305076200.000000,0.815367,0.083545,0.560265,-0.119582,-9.695432,-0.245339,-1.229821,0.039515,0.153677,0.161733,38.836885,-3.337757,26.052906,4635728243549274100.000000,-0.610976,0.156157,-0.771699,-0.082486,-8.584548,-0.148861,-0.323950,-0.027914,0.553732,0.547421,46.178817,-4.614236,3.942433,4635729639950516200.000000,0.534752,0.691140,0.347228,-0.340291,0
-9.017187,-0.243584,3.068142,-0.035648,-0.047253,0.184535,46.566549,3.792418,2.375795,4635732324305076200.000000,0.815552,0.083893,0.560102,-0.118841,-9.711585,-0.133463,-1.436975,0.008057,0.152400,0.135270,38.856163,-3.423209,25.989561,4635728243549274100.000000,-0.610508,0.155692,-0.772131,-0.082787,-8.185354,-0.018230,-0.385173,-0.085859,0.522277,0.440018,45.082150,-3.959035,4.328884,4635729639950516200.000000,0.534769,0.692352,0.347345,-0.337671,0
-8.969530,-0.288329,3.153594,0.006976,-0.052035,0.181737,46.473583,3.706966,2.380444,4635732324305076200.000000,0.815731,0.084377,0.559901,-0.118210,-9.679284,0.081932,-1.668894,-0.009684,0.146715,0.104434,38.856163,-3.442488,26.206962,4635728243549274100.000000,-0.610056,0.155370,-0.772522,-0.083071,-7.712674,0.075527,-0.264037,-0.344479,0.483379,0.275189,44.230512,-3.652917,4.528946,4635729639950516200.000000,0.535352,0.692690,0.348212,-0.335153,0
-8.975350,-0.292978,3.261714,0.052192,-0.055798,0.177872,46.579400,3.629079,2.440909,4635732324305076200.000000,0.815901,0.085004,0.559667,-0.117699,-9.687167,0.115378,-1.711792,-0.018607,0.127900,0.071563,38.790002,-3.376325,26.345946,4635728243549274100.000000,-0.609671,0.155169,-0.772840,-0.083313,-8.541021,-2.335995,0.463955,-0.511673,0.418230,0.139550,44.436317,-3.958065,4.544224,4635729639950516200.000000,0.536318,0.692362,0.349555,-0.332880,0
-8.946860,-0.262747,3.308206,0.102240,-0.063886,0.170293,46.644489,3.495377,2.425199,4635732324305076200.000000,0.816067,0.085780,0.559382,-0.117334,-9.711582,0.289452,-1.784651,-0.030219,0.102988,0.038451,38.704550,-3.290873,26.292377,4635728160412561400.000000,-0.609371,0.155096,-0.773069,-0.083524,-8.365560,-4.458534,1.161663,-0.615730,0.352889,0.002003,44.934580,-4.215261,4.726008,4635729639950516200.000000,0.537483,0.691506,0.351291,-0.330948,0
-8.916056,-0.168590,3.293095,0.152181,-0.078279,0.159359,46.591598,3.377389,2.218867,4635732324305076200.000000,0.816243,0.086693,0.559028,-0.117126,-9.726545,0.445778,-1.872859,-0.044691,0.084796,0.001203,38.496224,-3.214873,26.260881,4635728136175091700.000000,-0.609133,0.155172,-0.773223,-0.083700,-8.234117,-5.242443,1.982169,-0.676977,0.278827,-0.154059,44.779375,-4.004028,4.985199,4635729639950516200.000000,0.538713,0.690176,0.353391,-0.329485,0
-8.934069,0.013911,3.344229,0.198006,-0.097604,0.150254,46.604366,3.344829,2.051443,4635732324305076200.000000,0.816443,0.087732,0.558588,-0.117063,-9.795456,0.315427,-1.873246,-0.067086,0.061333,-0.029804,38.374957,-3.264495,26.333730,4635728136175091700.000000,-0.608967,0.155398,-0.773288,-0.083884,-7.718897,-3.788363,2.514959,-0.699385,0.131901,-0.300951,44.614710,-4.059540,4.888873,4635729639950516200.000000,0.540017,0.688371,0.355611,-0.328737,0
-8.887582,0.271439,3.358784,0.229903,-0.130208,0.147404,46.586947,3.397718,2.074667,4635732324305076200.000000,0.816703,0.088857,0.558022,-0.117096,-9.710798,0.032304,-1.792130,-0.100749,0.041486,-0.052855,38.431263,-3.406646,26.365234,4635728136175091700.000000,-0.608851,0.155775,-0.773276,-0.084132,-6.791368,-0.905775,2.357820,-0.752593,-0.047862,-0.467887,45.246464,-4.646198,4.698762,4635729639950516200.000000,0.541504,0.685946,0.357974,-0.328797,0
-8.706817,0.605088,3.420381,0.238604,-0.147251,0.148727,46.559036,3.377393,2.232765,4635732324305076200.000000,0.816999,0.090007,0.557393,-0.117151,-9.576529,-0.386244,-1.940160,-0.111432,0.024983,-0.064294,38.576159,-3.310198,26.367990,4635728136175091700.000000,-0.608786,0.156211,-0.773211,-0.084396,-6.101778,0.571028,1.887740,-0.966420,-0.150025,-0.771403,45.622422,-4.763627,4.705056,4635729639950516200.000000,0.543327,0.682432,0.361260,-0.329506,0
-8.535324,0.910856,3.617997,0.242163,-0.118065,0.160117,46.611920,3.344829,2.299644,4635732324305076200.000000,0.817230,0.091209,0.556855,-0.117164,-9.480047,-0.450500,-1.970909,-0.081565,-0.005921,-0.062918,38.602566,-3.214891,26.358542,4635728136175091700.000000,-0.608840,0.156556,-0.773078,-0.084587,-9.089004,-2.998333,0.815892,-0.679084,-0.107444,-0.950571,45.032025,-3.883793,4.882961,4635729639950516200.000000,0.544010,0.679340,0.364748,-0.330923,0
-8.431262,1.171864,3.801707,0.236673,-0.061659,0.174564,46.689816,3.246617,2.242109,4635732457205270500.000000,0.817338,0.092455,0.556507,-0.117094,-9.498533,-0.269386,-1.823658,-0.066847,-0.033729,-0.063606,38.543116,-3.264482,26.365232,4635728136175091700.000000,-0.608994,0.156855,-0.772879,-0.084748,-11.614921,-0.194545,1.966233,0.014384,-0.182112,-0.740965,45.090472,-3.547505,4.855787,4635729639950516200.000000,0.543123,0.678024,0.366511,-0.333123,0
-8.376032,1.360216,3.759340,0.213942,-0.029861,0.176805,46.717731,3.133255,2.156663,4635732539053441000.000000,0.817381,0.093643,0.556276,-0.116950,-9.613505,-0.389814,-1.924014,-0.058543,-0.054404,-0.061609,38.526566,-3.406627,26.367990,4635728136175091700.000000,-0.609219,0.157119,-0.772631,-0.084900,-10.157207,8.066120,3.486322,0.157741,-0.201939,-0.609116,45.779353,-3.692243,4.567995,4635729639950516200.000000,0.542039,0.677200,0.367656,-0.335296,0
-8.399837,1.438719,3.577991,0.189730,-0.019280,0.172533,46.770605,3.047807,2.184514,4635732539053441000.000000,0.817405,0.094745,0.556093,-0.116761,-9.776118,-0.486705,-1.965392,-0.046692,-0.086029,-0.050964,38.592698,-3.574757,26.519155,4635728136175091700.000000,-0.609550,0.157307,-0.772313,-0.085063,-12.738911,13.148135,0.928524,0.213623,-0.134780,-0.517622,45.494802,-3.069733,4.460311,4635729639950516200.000000,0.540818,0.676732,0.368613,-0.337156,0
-8.559051,1.377157,3.579048,0.169029,-0.000823,0.176851,46.750317,2.969914,2.161329,4635732539053441000.000000,0.817395,0.095795,0.555981,-0.116501,-9.852542,-0.481609,-1.908707,-0.060327,-0.093170,-0.042280,38.678148,-3.547259,26.638889,4635728136175091700.000000,-0.609892,0.157500,-0.771978,-0.085296,-14.654521,11.149453,-0.347197,0.036459,-0.224786,-0.453538,44.979671,-2.516630,4.373774,4635729639950516200.000000,0.540323,0.675833,0.369434,-0.338850,0
-8.869368,1.247547,3.602946,0.151380,0.023081,0.186463,46.672427,2.836272,1.957968,4635732539053441000.000000,0.817341,0.096820,0.555955,-0.116159,-9.863582,-0.844495,-1.788238,-0.091607,-0.098715,-0.029844,38.820269,-3.461815,26.434257,4635728136175091700.000000,-0.610227,0.157729,-0.771626,-0.085665,-12.871428,4.284961,0.609017,0.049927,-0.222719,-0.519786,45.070550,-2.618883,4.301080,4635729639950516200.000000,0.539691,0.674862,0.370425,-0.340707,0
-9.273326,1.181225,3.400218,0.121485,0.028741,0.190130,46.636939,2.823933,1.795123,4635732539053441000.000000,0.817287,0.097754,0.555961,-0.115732,-9.759676,-0.819934,-1.398919,-0.104297,-0.104539,-0.016785,38.856163,-3.376366,25.999598,4635728219260262400.000000,-0.610568,0.157946,-0.771261,-0.086112,-10.493653,0.178209,0.599906,0.418788,-0.146460,-0.560526,45.187753,-2.115745,4.466826,4635729639950516200.000000,0.537841,0.674760,0.371176,-0.343007,0
-9.693065,1.088847,3.102562,0.073778,-0.018226,0.192113,46.737999,2.856532,1.810725,4635732539053441000.000000,0.817361,0.098507,0.555828,-0.115206,-9.634841,-0.564016,-0.821686,-0.113185,-0.089216,-0.014712,38.601123,-3.357036,26.033593,4635728243549274100.000000,-0.610854,0.158185,-0.770934,-0.086583,-8.752379,0.633184,-0.804983,0.633251,-0.094447,-0.452189,45.019821,-1.390843,4.429685,4635729639950516200.000000,0.535458,0.675375,0.371429,-0.345246,0
-10.062800,1.022527,3.005916,0.012444,-0.131822,0.194656,46.705023,2.803676,1.964132,4635732539053441000.000000,0.817724,0.099004,0.555336,-0.114576,-9.626118,-0.547733,-0.494695,-0.159166,-0.061241,-0.017434,38.536011,-3.423158,26.150581,4635728243549274100.000000,-0.611020,0.158559,-0.770658,-0.087176,-9.512945,3.352311,-2.581697,0.570919,-0.112485,-0.379667,45.016285,-1.277957,4.163808,4635729659018645500.000000,0.533377,0.675929,0.371523,-0.347274,0
-10.313987,1.020765,3.000128,-0.051136,-0.242927,0.193489,46.591636,2.771080,2.038636,4635732539053441000.000000,0.818369,0.099228,0.554495,-0.113849,-9.678866,-0.353754,-0.675588,-0.229821,-0.028856,-0.027249,38.793784,-3.499157,25.955442,4635728243549274100.000000,-0.611039,0.159156,-0.770432,-0.087950,-10.965677,4.284072,-2.843361,0.524024,-0.133813,-0.385765,45.095229,-1.495798,4.182509,4635729854698881000.000000,0.531448,0.676334,0.371653,-0.349299,0
-10.524406,1.168878,3.021015,-0.113088,-0.307195,0.179714,46.559036,2.869235,1.857428,4635732539053441000.000000,0.819179,0.099180,0.553469,-0.113052,-9.692678,0.160359,-1.009098,-0.297979,-0.004835,-0.050568,38.802261,-3.459065,25.891903,4635728243549274100.000000,-0.610944,0.160009,-0.770225,-0.088867,-11.393519,2.672686,-2.424602,0.664901,-0.095294,-0.392743,45.077160,-1.542004,4.261465,4635729854698881000.000000,0.529047,0.677089,0.371678,-0.351447,0
-10.729024,1.370604,3.032094,-0.178339,-0.381526,0.164705,46.604334,2.778788,1.639967,4635732539053441000.000000,0.820178,0.098839,0.552225,-0.112186,-9.749345,0.302422,-1.143126,-0.351808,-0.001653,-0.083883,38.594030,-3.508599,26.033571,4635728243549274100.000000,-0.610815,0.161108,-0.769983,-0.089870,-11.524689,1.742474,-3.399853,0.684677,-0.120485,-0.328174,44.768096,-1.275401,4.262849,4635729845177700400.000000,0.526718,0.677944,0.371433,-0.353550,0
-10.863943,1.364985,2.921752,-0.240345,-0.479328,0.153617,46.685123,2.534651,1.582304,4635732539053441000.000000,0.821420,0.098215,0.550678,-0.111255,-9.784809,0.229638,-1.206920,-0.392917,-0.006268,-0.113344,38.538773,-3.650703,25.933363,4635728243549274100.000000,-0.610682,0.162403,-0.769690,-0.090933,-11.142431,2.647432,-3.593301,0.599830,-0.128584,-0.261306,44.706124,-0.651811,4.169211,4635729747324698600.000000,0.524735,0.678697,0.371103,-0.355394,0
-10.923858,1.303302,2.841435,-0.312304,-0.545794,0.144256,46.717731,2.441481,1.526571,4635732539053441000.000000,0.822834,0.097292,0.548936,-0.110218,-9.762009,0.226412,-1.532361,-0.404102,-0.016566,-0.136984,38.604875,-3.686636,25.816358,4635728243549274100.000000,-0.610583,0.163799,-0.769349,-0.091979,-11.010448,3.239916,-3.750244,0.504713,-0.123661,-0.221189,44.991848,-0.115409,4.219752,4635729747324698600.000000,0.523070,0.679307,0.370809,-0.356987,0
-11.035957,1.354369,2.666062,-0.383823,-0.591974,0.142977,46.710184,2.433933,1.255316,4635732539053441000.000000,0.824375,0.096100,0.547065,-0.109039,-9.819808,-0.145736,-1.463072,-0.375912,-0.043186,-0.154456,38.680875,-3.629984,25.945313,4635728243549274100.000000,-0.610594,0.165168,-0.768936,-0.092907,-11.208743,3.016942,-4.924672,0.354011,-0.140389,-0.187360,45.063247,-0.597978,4.037724,4635729747324698600.000000,0.521904,0.679614,0.370605,-0.358320,0
-11.209727,1.285993,2.314520,-0.429571,-0.704338,0.152784,46.758351,2.323622,0.876932,4635732539053441000.000000,0.826188,0.094722,0.544819,-0.107766,-9.763643,-0.690616,-1.057322,-0.364139,-0.055985,-0.160564,38.772992,-3.802200,26.065085,4635728243549274100.000000,-0.610656,0.166521,-0.768488,-0.093791,-10.662289,2.785447,-5.082181,0.202445,-0.107904,-0.167285,44.995407,-1.064117,3.872237,4635729747324698600.000000,0.521147,0.679668,0.370640,-0.359281,0
-11.347554,1.032092,2.356905,-0.457399,-0.863679,0.162708,46.836252,2.258370,0.551342,4635732539053441000.000000,0.828366,0.093199,0.542025,-0.106457,-9.590466,-1.035019,-1.329782,-0.353258,-0.060984,-0.146422,38.729046,-3.989701,26.011700,4635728243549274100.000000,-0.610734,0.167798,-0.768039,-0.094679,-9.933169,2.851969,-4.822169,0.056088,-0.062011,-0.137595,44.984280,-0.693994,3.780725,4635729747324698600.000000,0.520777,0.679519,0.370910,-0.359821,0
-11.276332,0.809925,2.583733,-0.474043,-0.993424,0.168864,46.811406,2.160284,0.333836,4635732539053441000.000000,0.830830,0.091573,0.538778,-0.105138,-9.668911,-1.268588,-1.808638,-0.307400,-0.085907,-0.124717,38.586954,-3.962362,25.838519,4635728243549274100.000000,-0.610914,0.168879,-0.767558,-0.095492,-9.642769,3.367581,-4.232899,-0.045981,-0.037756,-0.101503,44.991836,-0.576322,3.861111,4635729747324698600.000000,0.520713,0.679240,0.371283,-0.360056,0
-10.919671,0.654107,2.686733,-0.469947,-1.089834,0.170904,46.725952,1.994038,-0.018162,4635732539053441000.000000,0.833492,0.089923,0.535182,-0.103856,-9.893688,-1.082397,-1.859922,-0.274985,-0.121013,-0.119633,38.673700,-3.876910,25.794243,4635728160515645400.000000,-0.611227,0.169847,-0.767001,-0.096240,-9.630563,4.024898,-3.239549,-0.142134,-0.010338,-0.090604,45.076202,-0.848049,3.772088,4635729747324698600.000000,0.520894,0.678811,0.371828,-0.360041,0
-10.395401,0.386876,2.868508,-0.441535,-1.152743,0.182128,46.836691,1.921224,-0.489610,4635732539053441000.000000,0.836267,0.088367,0.531336,-0.102620,-10.052875,-0.645050,-1.852758,-0.277433,-0.151548,-0.142761,38.841838,-3.857539,25.728163,4635728136175091700.000000,-0.611645,0.170882,-0.766348,-0.096957,-9.533177,4.491246,-2.299195,-0.223340,-0.029595,-0.087807,45.142979,-0.759710,3.772088,4635729747324698600.000000,0.521339,0.678181,0.372446,-0.359947,0
-9.803722,0.135635,3.124845,-0.386987,-1.189836,0.210848,46.978075,1.961833,-0.912848,4635732539053441000.000000,0.839094,0.087048,0.527313,-0.101415,-10.224917,-0.404964,-1.798885,-0.279029,-0.192778,-0.185885,38.748417,-3.857539,25.482228,4635728136175091700.000000,-0.612209,0.172042,-0.765556,-0.097599,-8.583547,4.480117,-1.189128,-0.258933,-0.038706,-0.077722,45.135432,-0.538204,3.772088,4635729747324698600.000000,0.521912,0.677475,0.373067,-0.359800,0
-9.185836,-0.210564,3.298199,-0.321173,-1.216189,0.238834,46.905087,1.936995,-1.235567,4635732539053441000.000000,0.841943,0.086008,0.523145,-0.100265,-10.304178,0.067919,-1.612399,-0.310167,-0.244239,-0.245262,38.775741,-3.857539,25.566819,4635728136175091700.000000,-0.612938,0.173448,-0.764575,-0.098225,-7.960667,4.458582,-0.950037,-0.270180,-0.052905,-0.062393,45.058602,-0.569791,3.772088,4635729747324698600.000000,0.522562,0.676746,0.373632,-0.359642,0
-8.495413,-0.725434,3.337285,-0.247032,-1.256188,0.256391,46.787002,1.798745,-1.629470,4635732539053441000.000000,0.844837,0.085248,0.518785,-0.099226,-10.220884,0.667178,-2.024970,-0.382959,-0.297643,-0.323143,38.983872,-3.914162,25.913121,4635728136175091700.000000,-0.613814,0.175266,-0.763367,-0.098922,-7.833209,4.187516,-0.562254,-0.215487,-0.058748,-0.042789,45.082653,-0.780197,3.763474,4635729747324698600.000000,0.523096,0.676158,0.374045,-0.359542,0
-7.702658,-0.970142,3.392965,-0.190433,-1.305729,0.261036,46.799613,1.627849,-2.093330,4635732539053441000.000000,0.847794,0.084675,0.514209,-0.098309,-10.108247,1.400232,-2.585384,-0.516403,-0.371694,-0.429337,39.105337,-3.798663,25.624282,4635728136175091700.000000,-0.614867,0.177731,-0.761830,-0.099825,-7.660866,3.702785,-0.728120,-0.104557,-0.056393,-0.019573,45.201148,-0.742151,3.665816,4635729747324698600.000000,0.523348,0.675852,0.374232,-0.359557,0
-6.872616,-0.762536,3.566038,-0.147711,-1.316584,0.250729,46.774803,1.509753,-2.677851,4635732539053441000.000000,0.850729,0.084225,0.509564,-0.097521,-9.922902,2.301331,-2.832712,-0.731740,-0.457578,-0.578054,39.190780,-3.759880,25.145467,4635728136175091700.000000,-0.616087,0.181180,-0.759862,-0.101092,-7.612743,3.946128,-1.123364,-0.016554,-0.030727,-0.000880,45.038864,-0.463881,3.569239,4635729747324698600.000000,0.523340,0.675805,0.374290,-0.359596,0
-6.118018,-0.230464,3.740501,-0.126104,-1.281994,0.222172,46.583792,1.424311,-3.336972,4635732539053441000.000000,0.853546,0.083803,0.505028,-0.096865,-9.781432,2.967640,-2.840433,-1.040207,-0.538558,-0.764449,39.398893,-3.825930,24.961898,4635728136175091700.000000,-0.617394,0.185973,-0.757395,-0.102914,-7.692827,4.771073,-1.806523,-0.042290,-0.016239,0.001447,44.972073,-0.484425,3.491317,4635729747324698600.000000,0.523385,0.675728,0.374412,-0.359548,0
-5.538203,0.313811,3.796502,-0.130754,-1.229971,0.177940,46.380230,1.331323,-3.996141,4635732539053441000.000000,0.856213,0.083291,0.500680,-0.096337,-9.885815,3.025195,-2.775503,-1.422279,-0.626683,-0.968759,39.520378,-3.779282,24.864239,4635728136175091700.000000,-0.618744,0.192346,-0.754343,-0.105479,-7.718326,5.105460,-2.335343,-0.145816,-0.005962,0.007046,44.973155,-0.703399,3.499977,4635729766367060000.000000,0.523714,0.675449,0.374696,-0.359298,0
-5.113128,0.734218,3.645719,-0.125100,-1.159667,0.116275,46.465672,1.241211,-4.429117,4635732539053441000.000000,0.858686,0.082697,0.496589,-0.096015,-10.103876,2.729418,-2.636223,-1.822070,-0.726548,-1.176786,39.662429,-3.627796,24.474116,4635728136175091700.000000,-0.620134,0.200346,-0.750634,-0.108835,-7.737648,4.822425,-2.617025,-0.239265,0.011883,0.027405,44.990766,-0.773707,3.605192,4635729962073063400.000000,0.524309,0.675025,0.375100,-0.358806,0
-4.900566,1.112630,3.311119,-0.113287,-1.046579,0.046849,46.702270,1.253765,-4.782390,4635732539053441000.000000,0.860875,0.082046,0.492912,-0.095925,-10.184863,2.573532,-2.326583,-2.235822,-0.827437,-1.372687,39.962635,-3.711622,24.148989,4635728053193004000.000000,-0.621516,0.209959,-0.746228,-0.113048,-7.577889,4.152921,-2.536981,-0.240304,0.036005,0.061052,45.058605,-0.695822,3.780725,4635729962073063400.000000,0.524918,0.674687,0.375464,-0.358170,0
-4.881162,1.506137,2.716939,-0.121233,-0.945382,-0.019283,46.640205,1.281777,-5.218258,4635732539053441000.000000,0.862817,0.081271,0.489614,-0.096020,-9.966759,2.645690,-1.991437,-2.652643,-0.902252,-1.570732,40.295009,-3.738238,23.858784,4635728028800909300.000000,-0.622765,0.221199,-0.741141,-0.118090,-7.416703,3.650676,-2.507167,-0.252243,0.045400,0.113050,45.076211,-0.695822,3.861110,4635729943079958500.000000,0.525623,0.674418,0.375719,-0.357374,0
-5.030864,1.848672,2.094704,-0.157201,-0.952593,-0.066881,46.441289,1.327009,-5.636908,4635732539053441000.000000,0.864754,0.080265,0.486314,-0.096213,-9.654943,2.748886,-1.360008,-3.038642,-0.969539,-1.748171,40.426482,-3.669434,23.499802,4635728028800909300.000000,-0.623828,0.233911,-0.735373,-0.123899,-7.383737,3.377794,-2.430353,-0.264145,0.064692,0.184303,45.136501,-0.709858,3.772088,4635729747324698600.000000,0.526436,0.674262,0.375833,-0.356349,0
-5.243043,1.927703,1.902553,-0.195622,-1.048838,-0.075903,46.270397,1.302258,-5.899375,4635732539053441000.000000,0.866880,0.079064,0.482676,-0.096393,-9.573379,2.846543,-0.337941,-3.379372,-1.045084,-1.883579,40.641215,-3.782073,23.196846,4635728028800909300.000000,-0.624705,0.247825,-0.728912,-0.130438,-7.643332,3.045286,-2.419887,-0.253710,0.095857,0.264669,45.069733,-0.868554,3.780725,4635729747324698600.000000,0.527290,0.674301,0.375773,-0.355075,0
-5.307354,1.942041,2.059768,-0.246540,-1.118844,-0.058785,46.205021,1.269570,-6.142775,4635732539053441000.000000,0.869152,0.077684,0.478791,-0.096430,-10.626951,3.462934,1.395319,-3.694544,-1.130479,-1.909509,40.897547,-4.009551,22.765195,4635728028800909300.000000,-0.625345,0.262518,-0.721809,-0.137913,-7.951415,2.560239,-2.162792,-0.221914,0.127742,0.360270,45.055700,-1.020770,3.862191,4635729747324698600.000000,0.528144,0.674605,0.375466,-0.353549,0
-5.094510,2.085986,2.465063,-0.316406,-1.102717,-0.031737,46.250245,1.314793,-6.491379,4635732472757968900.000000,0.871407,0.076110,0.474972,-0.096222,-12.635269,4.722279,3.160768,-4.028442,-1.290669,-1.933534,41.087862,-4.055635,21.987396,4635728111747271700.000000,-0.625900,0.277970,-0.713816,-0.146452,-8.411965,2.136659,-1.772240,-0.166697,0.146776,0.471835,44.911037,-1.105127,3.776758,4635729747324698600.000000,0.528976,0.675231,0.374805,-0.351810,0
-4.629241,2.198396,2.736585,-0.358861,-1.060019,-0.013700,46.323488,1.342814,-6.934776,4635732431679258600.000000,0.873579,0.074434,0.471309,-0.095850,-12.474996,4.400350,3.788129,-4.136493,-1.346009,-1.998589,41.381378,-3.977410,21.120614,4635728136175091700.000000,-0.626296,0.293757,-0.705259,-0.155145,-8.791847,1.981919,-1.388064,-0.066512,0.164054,0.577393,44.913191,-1.213903,3.707457,4635729747324698600.000000,0.529650,0.676264,0.373735,-0.349943,0
-4.177920,2.093631,2.843578,-0.358870,-1.014064,0.016104,46.343973,1.433249,-7.418366,4635732431679258600.000000,0.875655,0.072834,0.467794,-0.095353,-12.233491,0.476748,0.924396,-3.802181,-1.282469,-2.058507,41.720419,-4.077806,20.489647,4635728136175091700.000000,-0.626720,0.308779,-0.696744,-0.162560,-8.652909,1.629695,-1.118048,0.081393,0.183281,0.684490,44.936528,-1.674918,3.822344,4635729747324698600.000000,0.530030,0.677814,0.372187,-0.348014,0
-4.028443,1.848436,2.911090,-0.337073,-0.899496,0.069629,46.241339,1.489303,-7.778533,4635732431679258600.000000,0.877507,0.071463,0.464664,-0.094668,-14.463997,-1.773062,-2.588848,-3.039368,-1.364043,-2.047209,41.930171,-4.047883,19.984741,4635728136175091700.000000,-0.628164,0.321626,-0.688328,-0.167841,-8.231749,1.471695,-1.373306,0.284404,0.201189,0.824982,44.948735,-1.967180,4.098093,4635729747324698600.000000,0.530006,0.680049,0.369982,-0.346035,0
-4.118871,1.572338,3.057884,-0.302456,-0.746342,0.135129,46.127856,1.436553,-8.059303,4635732431679258600.000000,0.879066,0.070405,0.462054,-0.093763,-16.680714,-0.971004,-2.916664,-2.196842,-1.641437,-2.007987,42.025625,-3.773867,19.496504,4635728136175091700.000000,-0.631361,0.331887,-0.679667,-0.171137,-8.028866,1.892338,-1.960332,0.425615,0.204332,0.934806,44.968468,-2.153816,4.204344,4635729747324698600.000000,0.529726,0.682760,0.367263,-0.344016,0
-4.378371,1.193636,3.077024,-0.280080,-0.663493,0.221286,46.140363,1.298364,-8.392796,4635732497953892400.000000,0.880484,0.069628,0.459709,-0.092561,-16.535704,0.741926,-2.915301,-1.737829,-1.791110,-2.055435,42.476054,-3.170789,18.942169,4635728219115590700.000000,-0.635531,0.340904,-0.670742,-0.173179,-8.115773,2.913963,-2.161785,0.490805,0.194752,1.009482,45.052150,-2.628825,4.392134,4635729747324698600.000000,0.529372,0.685700,0.364209,-0.341954,0
-4.738093,0.656245,2.768411,-0.268990,-0.656936,0.305298,46.115660,1.127469,-8.766536,4635732539053441000.000000,0.881910,0.069054,0.457354,-0.091070,-16.489907,2.193960,-4.594594,-1.632436,-1.884658,-2.150574,43.160065,-2.553276,18.283663,4635728243549274100.000000,-0.640064,0.349776,-0.661385,-0.174771,-8.083844,3.036309,-2.198689,0.544053,0.172768,1.083364,44.982527,-3.079770,4.493398,4635729747324698600.000000,0.528991,0.688823,0.360810,-0.339864,0
-5.206933,0.110822,2.713190,-0.255012,-0.595009,0.350811,46.037743,0.964099,-8.964144,4635732539053441000.000000,0.883223,0.068642,0.455203,-0.089419,-16.670228,2.766472,-5.832435,-1.689816,-1.954242,-2.246268,43.644589,-2.219100,17.609513,4635728243549274100.000000,-0.644651,0.358944,-0.651530,-0.176330,-8.009416,3.384672,-2.443343,0.585583,0.133340,1.157888,44.846383,-3.411127,4.504532,4635729747324698600.000000,0.528641,0.692075,0.357041,-0.337777,0
-5.528413,-0.040252,3.039421,-0.263380,-0.509136,0.362352,45.956971,0.948548,-9.117390,4635732539053441000.000000,0.884372,0.068254,0.453364,-0.087685,-15.872837,2.382350,-6.441423,-1.660364,-1.947148,-2.325425,43.729697,-1.774160,16.702341,4635728160621662200.000000,-0.649190,0.368179,-0.641462,-0.177546,-8.297044,3.386898,-2.272966,0.631685,0.095918,1.219342,44.942977,-3.879733,4.513132,4635729747324698600.000000,0.528284,0.695445,0.352935,-0.335721,0
-5.550469,0.145980,3.168209,-0.278969,-0.387481,0.355261,45.916719,1.082051,-9.312699,4635732539053441000.000000,0.885287,0.067839,0.451978,-0.085913,-14.805304,1.218590,-6.960748,-1.455467,-1.906179,-2.339149,43.906036,-1.264262,15.886076,4635728136175091700.000000,-0.653814,0.376850,-0.631506,-0.178075,-8.512849,3.160569,-2.940500,0.620456,0.074850,1.284087,44.994096,-4.263850,4.604336,4635729747324698600.000000,0.528062,0.698834,0.348599,-0.333557,0
-5.916982,0.552991,2.426365,-0.311401,-0.064684,0.320033,45.919577,1.094767,-9.387493,4635732539053441000.000000,0.885587,0.067353,0.451801,-0.084118,-14.214636,1.566014,-7.598775,-1.210381,-1.867092,-2.255690,44.335936,-0.695003,15.333850,4635728136175091700.000000,-0.658539,0.384593,-0.621851,-0.178088,-8.630317,4.175594,-3.016459,0.563966,0.109233,1.322353,44.696413,-4.601623,4.636258,4635729747324698600.000000,0.527990,0.702177,0.344292,-0.331115,0
-7.098689,1.000735,0.245273,-0.317127,0.106587,0.320330,45.976975,0.858684,-9.259451,4635732539053441000.000000,0.885562,0.066908,0.452256,-0.082262,-13.008807,3.134198,-8.081643,-1.047436,-1.785990,-2.134028,44.494291,0.070064,14.836127,4635728136175091700.000000,-0.663117,0.391569,-0.612632,-0.177850,-9.417556,4.307066,-2.613575,0.443218,0.110746,1.359707,44.498131,-5.158526,4.737546,4635729747324698600.000000,0.528301,0.705286,0.340033,-0.328402,0
-8.875932,1.701956,-0.664415,-0.303173,-0.113628,0.305834,46.009705,0.634537,-9.292936,4635732539053441000.000000,0.885941,0.066411,0.451896,-0.080547,-10.967996,3.540147,-7.952741,-0.916838,-1.668084,-2.019544,44.432787,0.774775,14.260264,4635728136175091700.000000,-0.667429,0.397922,-0.603934,-0.177374,-9.697134,4.305171,-2.143230,0.340624,0.094726,1.407393,44.521473,-5.778224,4.748680,4635729747324698600.000000,0.528982,0.708189,0.335727,-0.325475,0
-10.048718,2.332357,0.379871,-0.401225,-0.493682,0.252565,45.904265,0.618936,-9.423328,4635732539053441000.000000,0.887040,0.065325,0.450177,-0.078949,-9.632303,3.247957,-7.735175,-0.731757,-1.505176,-1.866399,44.523639,1.323632,13.605565,4635728136175091700.000000,-0.671443,0.403445,-0.596005,-0.176563,-9.342732,4.502818,-1.033558,0.317240,0.076176,1.451369,44.527253,-6.243125,4.758318,4635729747324698600.000000,0.529799,0.711051,0.331268,-0.322461,0
-10.194769,2.032780,1.084871,-0.334839,-0.762946,0.182210,45.688191,0.699705,-9.573693,4635732539053441000.000000,0.888594,0.064263,0.447456,-0.077808,-8.774838,3.491609,-7.822621,-0.511733,-1.314573,-1.677744,44.613576,1.892896,13.066114,4635728136175091700.000000,-0.675151,0.407984,-0.589031,-0.175393,-9.071176,4.366609,-0.583601,0.320425,0.033844,1.497768,44.466215,-6.733129,4.868183,4635729747324698600.000000,0.530705,0.713901,0.326560,-0.319463,0
-9.924162,1.123535,0.798272,-0.262125,-0.890137,0.144839,45.692540,0.574318,-9.937512,4635732539053441000.000000,0.890342,0.063360,0.444243,-0.076974,-7.764670,4.031920,-7.531716,-0.345748,-1.123244,-1.460850,44.554873,2.469373,12.650476,4635728136175091700.000000,-0.678465,0.411633,-0.583042,-0.174087,-8.428274,4.513451,-0.337267,0.346913,0.019133,1.551373,44.397701,-7.352872,4.969483,4635729747324698600.000000,0.531602,0.716832,0.321610,-0.316413,0
-9.704657,0.194974,0.460801,-0.216305,-0.802967,0.140586,45.753349,0.476089,-10.232884,4635732539053441000.000000,0.891902,0.062646,0.441335,-0.076218,-6.662176,4.775285,-6.755780,-0.290460,-0.914977,-1.240912,44.655119,2.864049,12.259850,4635728136175091700.000000,-0.681173,0.414721,-0.578028,-0.172899,-8.295171,5.129876,-0.710980,0.266769,0.019843,1.627289,44.251211,-7.825315,4.965647,4635729747324698600.000000,0.532814,0.719657,0.316526,-0.313073,0
-9.267403,-0.259423,0.774612,-0.107712,-0.576298,0.148901,45.602771,0.528791,-10.242817,4635732539053441000.000000,0.893013,0.062423,0.439227,-0.075570,-6.003703,5.521578,-5.971158,-0.322879,-0.707964,-1.032681,44.936299,3.271785,11.944632,4635728136175091700.000000,-0.683152,0.417531,-0.573918,-0.172015,-9.009706,5.232268,-1.146638,0.149747,0.041320,1.680084,44.111129,-8.392264,4.802221,4635729747324698600.000000,0.534391,0.722286,0.311468,-0.309382,0
-8.845270,-0.593093,1.909090,-0.038737,-0.455385,0.193337,45.456502,0.403445,-10.318315,4635732472835281900.000000,0.893893,0.062577,0.437534,-0.074852,-6.279668,6.348148,-5.628931,-0.417592,-0.498782,-0.844933,45.121754,3.755521,11.793011,4635728136175091700.000000,-0.684316,0.420302,-0.570647,-0.171522,-9.098430,4.675436,-1.364909,0.120529,0.087581,1.716545,44.032548,-9.001941,4.751000,4635729747324698600.000000,0.536016,0.724921,0.306425,-0.305418,0
-8.720765,-0.817086,2.541179,0.015206,-0.429128,0.217243,45.521616,0.154618,-10.614351,4635732431679258600.000000,0.894716,0.062983,0.435914,-0.074136,-7.065576,7.004801,-5.682415,-0.558446,-0.308971,-0.680420,44.966764,3.926273,11.692568,4635728136175091700.000000,-0.684653,0.423211,-0.568095,-0.171497,-8.625288,4.718207,-1.030856,0.145112,0.142851,1.762873,43.898268,-9.484441,5.055113,4635729747324698600.000000,0.537527,0.727703,0.301316,-0.301199,0
-8.603174,-0.696442,2.286871,0.061667,-0.365684,0.211565,45.529750,0.158894,-10.995601,4635732431679258600.000000,0.895406,0.063572,0.434516,-0.073510,-7.706195,7.244963,-5.647117,-0.727190,-0.132669,-0.536928,44.911037,3.820517,11.670278,4635728136175091700.000000,-0.684162,0.426381,-0.566170,-0.171966,-8.482026,5.234216,-0.402548,0.196778,0.138713,1.776878,43.764002,-10.061480,5.316020,4635729747324698600.000000,0.538875,0.730574,0.296074,-0.297011,0
-8.773836,-0.206764,2.528706,0.081356,-0.204923,0.168114,45.391614,0.167045,-11.318478,4635732431679258600.000000,0.895784,0.064205,0.433721,-0.073038,-8.176271,7.002434,-5.787752,-0.886446,0.054611,-0.402203,45.165374,3.916174,11.670278,4635728136175091700.000000,-0.682841,0.429816,-0.564895,-0.172859,-7.503461,6.023873,0.092784,0.293445,0.126041,1.760027,43.623317,-10.935661,5.243845,4635729747324698600.000000,0.539893,0.733586,0.290718,-0.293003,0
-9.495793,0.480816,3.420378,0.036703,0.029676,0.111511,45.280917,0.036408,-11.418601,4635732431679258600.000000,0.895732,0.064642,0.433831,-0.072634,-8.851146,6.526022,-6.249552,-0.992686,0.247435,-0.267053,45.231217,4.077639,11.745625,4635727970488508400.000000,-0.680768,0.433366,-0.564323,-0.174037,-6.823938,6.619688,-0.106752,0.348316,0.123712,1.754401,43.407316,-11.858875,5.180691,4635729747324698600.000000,0.540709,0.736671,0.285289,-0.289066,0
-10.679656,1.291477,3.748471,-0.054865,0.390654,0.015433,45.403440,0.020764,-11.240736,4635732497910303700.000000,0.895023,0.064671,0.435340,-0.072326,-9.511074,5.919084,-6.880905,-0.979881,0.439958,-0.117378,44.974109,4.179830,11.909226,4635727921426726900.000000,-0.678143,0.436659,-0.564566,-0.175258,-6.789862,6.915780,-0.346638,0.378983,0.097288,1.720629,43.095746,-12.469732,5.121863,4635729747324698600.000000,0.541393,0.739714,0.279852,-0.285308,0
-12.150362,2.000031,2.641943,-0.140361,0.811952,-0.090017,45.602397,0.154235,-10.907284,4635732539053441000.000000,0.893533,0.064318,0.438472,-0.072141,-10.061050,5.133645,-7.445877,-0.848733,0.613257,0.044667,44.898830,4.133417,12.101743,4635727921426726900.000000,-0.675219,0.439320,-0.565678,-0.176310,-6.348207,7.042201,-0.579166,0.461639,0.073884,1.656498,42.737564,-12.949471,5.332001,4635729747324698600.000000,0.541744,0.742802,0.274445,-0.281849,0
-13.708159,2.316767,1.111838,-0.231756,0.954229,-0.154367,45.720596,0.121865,-10.526022,4635732539053441000.000000,0.891776,0.063548,0.442171,-0.071988,-10.416400,4.265973,-7.568590,-0.605215,0.766929,0.223973,44.964748,4.047976,12.372375,4635727921426726900.000000,-0.672236,0.440978,-0.567719,-0.177007,-5.450319,7.747191,-1.265713,0.527608,0.052476,1.579626,42.598511,-13.353995,5.433359,4635729747324698600.000000,0.541798,0.745890,0.269136,-0.278691,0
-15.255536,2.097248,0.679132,-0.357842,0.644805,-0.175924,45.655491,0.068564,-10.022502,4635732539053441000.000000,0.890603,0.062176,0.444758,-0.071764,-10.636844,3.321058,-7.380234,-0.280813,0.895054,0.425012,44.861849,3.830669,12.740714,4635727921426726900.000000,-0.669386,0.441340,-0.570718,-0.177262,-5.422861,8.604660,-2.642001,0.483888,0.043192,1.489804,42.531089,-13.910770,5.454085,4635729747324698600.000000,0.541870,0.748734,0.264124,-0.275705,0
-16.620479,1.665328,1.015620,-0.505168,0.110244,-0.157964,45.549490,0.223782,-9.749857,4635732472848166900.000000,0.890459,0.060131,0.445397,-0.071337,-10.690895,2.526243,-7.145519,0.096160,1.011046,0.641039,44.637244,3.442492,13.197244,4635727921426726900.000000,-0.666780,0.440213,-0.574704,-0.177008,-5.845761,8.693780,-4.225966,0.373520,0.050204,1.375860,42.395773,-14.537987,5.555431,4635729747324698600.000000,0.542127,0.751183,0.259598,-0.272823,0
-17.238056,1.644522,0.928204,-0.619554,-0.324154,-0.127486,45.611730,0.467930,-10.025696,4635732431679258600.000000,0.891152,0.057589,0.444448,-0.070693,-10.769019,2.101778,-6.800584,0.500366,1.105560,0.853412,44.459020,3.156495,13.607403,4635727921426726900.000000,-0.664512,0.437511,-0.579622,-0.176197,-5.977420,8.484192,-5.583131,0.251119,0.075519,1.253799,42.249269,-15.067174,5.559131,4635729747324698600.000000,0.542583,0.753228,0.255642,-0.269996,0
-16.968542,1.936678,0.648636,-0.696267,-0.577852,-0.090084,45.765745,0.508852,-10.450931,4635732431679258600.000000,0.892336,0.054756,0.442564,-0.069828,-10.970261,1.838095,-5.960738,0.893811,1.160434,1.051477,44.488659,2.968847,13.998040,4635727921426726900.000000,-0.662652,0.433261,-0.585315,-0.174879,-6.215736,8.751133,-6.106298,0.046043,0.107793,1.127340,42.095337,-15.378180,5.482187,4635729747324698600.000000,0.543492,0.754694,0.252379,-0.267130,0
-16.853934,2.047997,1.552245,-0.747753,-0.554097,-0.042089,45.773902,0.370712,-10.648714,4635732431679258600.000000,0.893488,0.051827,0.440767,-0.068683,-11.070357,1.481019,-4.843110,1.245476,1.188813,1.229369,44.451706,2.732074,14.388605,4635727921426726900.000000,-0.661184,0.427598,-0.591625,-0.173134,-6.535708,8.888033,-5.638308,-0.131374,0.128875,0.985491,41.870873,-15.628641,5.518789,4635729747324698600.000000,0.544769,0.755617,0.249801,-0.264327,0
-17.333440,1.857991,2.981142,-0.785460,-0.251777,0.001279,45.643289,0.410562,-10.568574,4635732431679258600.000000,0.894095,0.048923,0.440090,-0.067241,-11.084322,1.184517,-3.683363,1.503848,1.210665,1.377701,44.256065,2.287411,14.854575,4635727838615097300.000000,-0.659956,0.420836,-0.598395,-0.171110,-7.013968,9.168296,-4.330917,-0.249763,0.121442,0.844621,41.724367,-15.946065,5.795867,4635729747324698600.000000,0.546263,0.756106,0.247777,-0.261739,0
-17.952072,1.414555,3.092488,-0.771978,0.044701,0.023265,45.627595,0.626591,-10.558568,4635732564058034200.000000,0.894153,0.046193,0.440504,-0.065681,-11.027831,0.944192,-2.533043,1.637271,1.229557,1.493162,44.080610,1.975198,15.192242,4635727814052544500.000000,-0.658763,0.413389,-0.605452,-0.169022,-7.490020,9.280831,-2.807255,-0.319836,0.078538,0.696814,41.584259,-16.255995,5.888752,4635729747324698600.000000,0.547854,0.756227,0.246193,-0.259548,0
-18.590641,0.967766,1.933925,-0.722263,0.088254,0.030405,45.753500,0.818048,-10.663742,4635732646427623400.000000,0.894114,0.043673,0.441060,-0.064176,-11.048734,0.674616,-1.244442,1.649438,1.232063,1.559025,43.912515,1.850664,15.485192,4635727814052544500.000000,-0.657463,0.405697,-0.612570,-0.167064,-7.736208,9.048360,-1.889527,-0.369486,0.012642,0.578726,41.509966,-16.475201,5.802251,4635729765957012500.000000,0.549537,0.756037,0.244882,-0.257781,0
-19.277148,0.524426,1.081284,-0.654366,-0.189479,0.023485,45.716562,0.976756,-10.713418,4635732646427623400.000000,0.894565,0.041319,0.440561,-0.062871,-11.069321,0.214993,0.001405,1.535640,1.229103,1.570422,43.760442,1.511043,15.853471,4635727814052544500.000000,-0.655895,0.398239,-0.619552,-0.165417,-8.279132,8.926844,-1.783232,-0.368140,-0.039834,0.465687,41.439341,-16.567007,5.697177,4635729962073063400.000000,0.551143,0.755672,0.243803,-0.256437,0
-19.920234,-0.049421,1.407431,-0.574176,-0.662569,-0.004224,45.505217,1.090295,-10.830954,4635732646427623400.000000,0.895854,0.039089,0.438277,-0.061898,-10.940338,-0.532986,1.240857,1.318397,1.215192,1.542175,43.726917,1.086617,16.394674,4635727814052544500.000000,-0.653953,0.391398,-0.626235,-0.164263,-9.028513,8.734590,-2.379213,-0.370910,-0.105824,0.356084,41.517380,-16.724643,5.521481,4635729962073063400.000000,0.552706,0.755117,0.242920,-0.255548,0
-20.139378,-0.496085,2.323044,-0.482721,-1.021533,-0.064234,45.456675,1.062901,-11.314949,4635732646427623400.000000,0.897753,0.036999,0.434632,-0.061373,-10.458887,-1.887220,2.278818,1.022340,1.192340,1.482805,43.670452,0.602942,16.905270,4635727814052544500.000000,-0.651570,0.385468,-0.632501,-0.163745,-10.043963,9.076931,-3.162687,-0.452251,-0.183455,0.262375,41.511033,-16.879577,5.416429,4635729962073063400.000000,0.554501,0.754193,0.242237,-0.255036,0
-19.934400,-0.652671,2.705359,-0.352598,-1.003062,-0.164025,45.477260,1.025422,-11.805844,4635732646427623400.000000,0.899554,0.035219,0.431028,-0.061453,-9.913338,-3.438684,3.057823,0.668175,1.163653,1.386928,43.474848,0.168290,17.243008,4635727979624255500.000000,-0.648712,0.380705,-0.638248,-0.163937,-12.034651,9.238491,-3.463069,-0.583760,-0.294763,0.175007,41.443076,-17.116322,5.233318,4635729962073063400.000000,0.556725,0.752754,0.241710,-0.254940,0
-19.692261,-0.739107,2.672433,-0.200688,-0.689050,-0.270159,45.374789,1.078077,-12.011225,4635732646427623400.000000,0.900729,0.033898,0.428572,-0.062158,-9.451495,-4.850678,3.683956,0.303438,1.113155,1.255068,43.177013,-0.115001,17.535992,4635728028800909300.000000,-0.645462,0.377224,-0.643364,-0.164815,-14.552523,8.739232,-3.834091,-0.741691,-0.441148,0.126049,41.431927,-17.267614,5.041748,4635729962073063400.000000,0.559535,0.750737,0.241163,-0.255255,0
-19.564649,-0.864005,2.731738,-0.071648,-0.551918,-0.342257,45.163460,1.208647,-12.108875,4635732646427623400.000000,0.901615,0.032968,0.426603,-0.063344,-8.776790,-6.349537,4.253830,-0.083824,1.035961,1.086332,42.972585,-0.302660,17.894821,4635728028800909300.000000,-0.641897,0.375167,-0.647712,-0.166393,-17.025430,7.702423,-4.113306,-0.795710,-0.570780,0.102316,41.424533,-17.334513,4.768403,4635729962073063400.000000,0.562611,0.748422,0.240441,-0.255972,0
-19.569450,-0.840345,2.835935,0.022243,-0.796622,-0.382913,45.069733,1.314696,-12.266703,4635732646427623400.000000,0.902904,0.032254,0.423692,-0.064883,-8.041570,-8.028790,4.975339,-0.468079,0.953471,0.891732,42.820508,-0.671186,18.292062,4635728028800909300.000000,-0.638066,0.374593,-0.651246,-0.168613,-18.645967,6.371919,-4.176820,-0.726207,-0.634695,0.089303,41.352811,-17.334513,4.565690,4635729962073063400.000000,0.565512,0.746177,0.239533,-0.256984,0
-19.231916,-0.853642,2.470173,0.122499,-1.158096,-0.393899,45.009571,1.440576,-12.574808,4635732646427623400.000000,0.904796,0.031800,0.419387,-0.066689,-7.403234,-9.891196,5.650298,-0.780238,0.855578,0.674696,42.730483,-1.154910,18.534923,4635728028800909300.000000,-0.634146,0.375359,-0.653940,-0.171250,-19.952269,5.967898,-3.481596,-0.719344,-0.675417,0.093546,41.432393,-17.347186,4.275418,4635729962073063400.000000,0.568428,0.743897,0.238504,-0.258115,0
-17.984142,-0.943784,1.635150,0.257689,-1.347982,-0.390446,44.821663,1.697043,-13.081097,4635732646427623400.000000,0.906976,0.031808,0.414316,-0.068741,-6.821150,-11.974159,6.146675,-0.999361,0.750576,0.431958,42.657247,-1.655367,18.805501,4635728028800909300.000000,-0.630325,0.377281,-0.655800,-0.174003,-20.934489,5.780736,-2.729184,-0.796600,-0.728358,0.063179,41.558824,-17.494715,3.878491,4635729943515835400.000000,0.571594,0.741333,0.237523,-0.259400,0
-16.376622,-0.826190,1.337251,0.401961,-1.293762,-0.378936,44.570002,1.969306,-13.667036,4635732646427623400.000000,0.909015,0.032397,0.409393,-0.070991,-6.369739,-14.402086,6.381921,-1.075111,0.638245,0.161680,42.640461,-1.901804,19.249019,4635728028800909300.000000,-0.626870,0.380049,-0.656865,-0.176424,-21.193575,5.243800,-2.690321,-0.981122,-0.775968,0.029775,41.478642,-17.646035,3.413502,4635729747324698600.000000,0.575328,0.738230,0.236726,-0.260722,0
-14.959851,-0.191035,1.657661,0.502814,-1.181399,-0.374100,44.516687,2.010414,-14.125132,4635732646427623400.000000,0.910820,0.033408,0.404853,-0.073378,-6.001767,-16.925987,6.505768,-0.995262,0.479510,-0.143757,42.584010,-2.006835,19.662005,4635728028800909300.000000,-0.624186,0.383319,-0.657075,-0.178076,-21.334317,4.126403,-2.814885,-1.179959,-0.818970,0.014688,41.469012,-17.705550,2.944815,4635729747324698600.000000,0.579682,0.734565,0.236081,-0.262009,0
-13.716736,0.537460,1.823592,0.533911,-1.176385,-0.366367,44.544815,1.924969,-14.503533,4635732646427623400.000000,0.912587,0.034551,0.400309,-0.075785,-5.572541,-19.255074,6.860197,-0.839585,0.312498,-0.503025,42.557808,-1.960582,19.676325,4635728028800909300.000000,-0.622463,0.387037,-0.656379,-0.178630,-21.298138,2.252484,-2.194544,-1.320626,-0.865812,-0.005981,41.601776,-17.621170,2.538459,4635729747324698600.000000,0.584468,0.730462,0.235531,-0.263339,0
-12.911407,1.315059,1.811385,0.500935,-1.157103,-0.363665,44.439562,1.884629,-14.934572,4635732646427623400.000000,0.914300,0.035579,0.395836,-0.078124,-5.327803,-21.403500,7.400375,-0.638948,0.132107,-0.907936,42.555008,-1.809271,19.578658,4635728028800909300.000000,-0.621847,0.391201,-0.654699,-0.177871,-21.558222,-0.098345,-1.601595,-1.422309,-0.924368,0.048408,41.574803,-17.554245,1.957271,4635729747324698600.000000,0.589655,0.726067,0.234774,-0.264602,0
-12.334917,2.136559,1.663886,0.353324,-1.058330,-0.375172,44.216068,1.977652,-15.413418,4635732646427623400.000000,0.915843,0.036057,0.391779,-0.080247,-5.502187,-23.289650,8.143481,-0.398059,-0.082322,-1.334737,42.611456,-1.450205,19.546852,4635728028800909300.000000,-0.622508,0.395734,-0.651928,-0.175693,-23.561936,-2.634666,-1.033983,-1.484125,-1.007826,0.100980,41.419099,-17.560565,1.297090,4635729747324698600.000000,0.595139,0.721442,0.233709,-0.265914,0
-11.493426,2.689511,1.176403,0.177838,-1.100977,-0.356338,44.064943,2.136345,-15.834060,4635732646427623400.000000,0.917467,0.035882,0.387607,-0.082017,-5.547767,-24.750677,9.453990,-0.062601,-0.320315,-1.789768,42.553017,-0.913010,19.384176,4635728028800909300.000000,-0.624675,0.400440,-0.648005,-0.171805,-25.585618,-5.054052,-0.122842,-1.297499,-1.138784,0.147078,41.554432,-17.640129,0.642541,4635729747324698600.000000,0.600209,0.717143,0.231963,-0.267673,0
-10.296940,3.798939,0.687230,0.081980,-1.394894,-0.311142,43.881772,2.340149,-16.280157,4635732514197471200.000000,0.919569,0.035312,0.382326,-0.083502,-5.316477,-25.306290,11.088020,0.113272,-0.568525,-2.230022,42.577610,-0.264082,19.176668,4635728028800909300.000000,-0.628075,0.405668,-0.642781,-0.166697,-24.508888,-7.823801,0.912814,-0.636559,-1.272418,0.264322,41.680919,-17.773979,0.168608,4635729747324698600.000000,0.603539,0.714429,0.228784,-0.270164,0
-8.858385,5.198849,0.988070,0.051925,-1.767067,-0.282808,43.532422,2.474368,-16.881153,4635732431679258600.000000,0.922237,0.034541,0.375608,-0.084883,-3.763253,-25.595498,12.406017,0.232338,-0.816848,-2.698292,42.883172,0.717740,19.044360,4635728028800909300.000000,-0.632595,0.411617,-0.636124,-0.160442,-19.689306,-9.699027,0.772374,0.158013,-1.334994,0.877432,41.575485,-17.802375,-0.275699,4635729747324698600.000000,0.605231,0.714200,0.222721,-0.272047,0
-6.856251,5.332614,1.960966,0.058835,-2.166387,-0.299666,43.162480,2.600215,-17.605135,4635732431679258600.000000,0.925459,0.033628,0.367330,-0.086392,-0.800187,-26.393460,12.598858,-0.342755,-0.974131,-3.069822,43.007676,1.735499,18.859270,4635728028800909300.000000,-0.636693,0.419893,-0.627930,-0.154973,-15.741917,-9.115779,-1.994430,0.809501,-1.100361,1.463550,41.264434,-18.150839,-0.641877,4635729747324698600.000000,0.605396,0.716384,0.214753,-0.272344,0
-4.038251,3.862839,2.738308,0.084635,-2.553427,-0.406085,42.873298,2.803985,-18.489681,4635732431679258600.000000,0.929140,0.032510,0.357529,-0.088399,6.872143,-33.627145,7.796650,-1.053034,-0.889689,-3.110805,43.065906,2.614233,18.576522,4635728028800909300.000000,-0.639233,0.430133,-0.619309,-0.151072,-16.812228,-9.051890,-4.231394,1.259426,-0.770164,1.772385,41.002481,-18.727384,-0.981837,4635729747324698600.000000,0.604225,0.720295,0.206169,-0.271258,0
-0.983966,2.352218,3.450037,0.196054,-2.518351,-0.607540,42.519305,2.983308,-19.506539,4635732431679258600.000000,0.932573,0.031533,0.347809,-0.091339,7.290405,-27.388365,16.996938,-0.708606,-1.912765,-3.158177,43.126939,3.578697,18.045707,4635728028800909300.000000,-0.644919,0.438836,-0.607959,-0.147951,-19.416951,-8.627611,-3.944834,1.477740,-0.480229,2.162993,40.558152,-19.601443,-1.027141,4635729747324698600.000000,0.602527,0.725343,0.196873,-0.268479,0
1.267692,0.968141,5.142134,0.292672,-1.890046,-0.761918,42.051686,3.032131,-20.376034,4635732431679258600.000000,0.934935,0.030944,0.340482,-0.094929,6.385834,-10.753048,24.209503,-0.517507,-2.151647,-3.259517,43.122158,4.645491,17.372345,4635728028800909300.000000,-0.651456,0.447019,-0.595741,-0.144469,-22.114044,-7.635988,-2.862531,1.487373,-0.272844,2.450889,40.191969,-20.533614,-0.889369,4635729747324698600.000000,0.600870,0.730786,0.187189,-0.264324,0
1.893086,-0.841372,6.975123,0.262764,-0.927645,-0.762740,41.806600,2.974850,-20.659621,4635732431679258600.000000,0.935889,0.030617,0.336900,-0.098352,3.084893,-5.421654,7.732718,-0.761056,-1.225627,-3.129087,43.031941,5.788254,16.667187,4635728028800909300.000000,-0.655008,0.455989,-0.585993,-0.140181,-23.808348,-8.196065,-3.796757,1.362929,-0.022338,2.902090,39.805840,-21.273763,-0.590466,4635729738110519300.000000,0.599798,0.736427,0.176864,-0.258140,0
0.698639,-1.739085,6.191032,0.329318,-0.205331,-0.592165,41.871394,3.099741,-20.662438,4635732431679258600.000000,0.935875,0.031085,0.336080,-0.101110,-8.826079,6.802655,-0.865110,-1.152502,-2.178447,-2.663124,43.110102,6.769401,16.118940,4635728028800909300.000000,-0.659730,0.464232,-0.574173,-0.139896,-24.630290,-4.580763,-6.163394,0.789919,0.262127,3.466739,39.201334,-22.260630,-0.365846,4635729639950516200.000000,0.600762,0.741213,0.166097,-0.249199,0
-1.338900,-1.097814,4.586316,0.523705,-0.245727,-0.355711,41.827272,3.446214,-20.915008,4635732431679258600.000000,0.935983,0.032624,0.334987,-0.103223,-5.329700,16.405332,4.470522,-1.221854,-2.089251,-2.292820,43.319561,7.433824,15.552717,4635728028800909300.000000,-0.663749,0.471733,-0.563152,-0.140588,-25.967954,1.498625,-6.398427,0.356742,0.123267,4.184748,38.509153,-23.621629,-0.236125,4635729639950516200.000000,0.603747,0.745073,0.153170,-0.238528,0
-2.648911,0.231769,5.320317,0.527188,-0.953337,-0.153835,41.663886,3.593673,-21.242726,4635732431679258600.000000,0.937152,0.034155,0.331101,-0.104648,-6.729889,20.243895,-1.103724,-0.913442,-1.587621,-2.252512,43.495108,7.888198,14.900938,4635728028800909300.000000,-0.667062,0.478499,-0.553682,-0.139654,-25.417223,4.223788,-6.419667,0.009925,0.045870,4.487719,37.573714,-25.037357,-0.282862,4635729639950516200.000000,0.607962,0.747934,0.139399,-0.227037,0
-2.037986,0.676135,6.014510,0.484690,-1.540851,-0.046928,41.400064,3.491348,-21.463396,4635732431679258600.000000,0.939153,0.035409,0.324914,-0.105679,-18.581152,0.206604,-6.698023,-1.149272,-1.582780,-2.820848,43.588003,8.500673,14.436324,4635728028800909300.000000,-0.670108,0.487149,-0.542858,-0.137646,-24.830252,2.248563,-7.372147,-0.151373,0.037277,4.351122,36.447050,-26.325547,-0.269576,4635729639950516200.000000,0.612349,0.750047,0.126136,-0.215751,0
-0.421093,-0.380860,5.328317,0.792776,-1.364317,-0.031384,40.972859,3.422771,-21.991928,4635732431679258600.000000,0.940835,0.037968,0.319266,-0.107037,-26.561345,-23.007791,-11.406250,-1.063944,-1.283346,-2.594478,43.642443,9.425803,14.033518,4635728028800909300.000000,-0.672397,0.495130,-0.533278,-0.135440,-25.812857,-5.711957,-2.638785,1.221853,0.204165,4.399256,35.544857,-27.687726,0.155884,4635729639950516200.000000,0.612189,0.755580,0.111868,-0.204470,0
0.111777,-1.744519,6.819669,1.214668,-0.730236,-0.051431,40.732363,3.365501,-22.571410,4635732431679258600.000000,0.941561,0.042435,0.315906,-0.108931,-28.392929,-13.194470,-8.931531,0.516192,-1.330967,-2.165337,43.446895,10.426783,13.696478,4635728028800909300.000000,-0.677714,0.497631,-0.525267,-0.131000,-30.794581,0.033931,-4.774199,0.867792,0.282139,4.095690,34.644411,-29.107151,0.651170,4635729639950516200.000000,0.612645,0.759884,0.099017,-0.193487,0
-1.382745,-2.840370,9.525053,1.290755,-0.371415,-0.075341,40.797110,3.174914,-22.807169,4635732431679258600.000000,0.941758,0.047330,0.313914,-0.110953,-24.456570,-5.423016,-3.717062,0.984349,-1.142811,-2.163485,43.309928,11.239738,13.172360,4635728028800909300.000000,-0.683509,0.498848,-0.517984,-0.125134,-31.640820,-7.791893,-2.229915,0.524459,0.120433,3.804722,33.643414,-30.277356,0.691644,4635729639950516200.000000,0.613849,0.762849,0.086921,-0.183565,0
-3.944954,-4.886814,8.394120,1.361912,-0.399855,-0.038395,40.858177,2.926097,-22.952678,4635732431679258600.000000,0.941963,0.052539,0.311760,-0.112926,-23.064341,-5.446232,2.822163,0.956790,-1.074311,-2.189949,43.268658,12.052961,12.501841,4635727946140957700.000000,-0.689029,0.500174,-0.510766,-0.119091,-29.891603,-16.989961,-1.551963,0.653084,0.069261,3.567945,32.636259,-31.174657,0.659509,4635729639950516200.000000,0.614332,0.765834,0.075325,-0.174415,0
-6.261655,-6.453648,5.801150,1.626594,-0.552749,0.080387,40.805624,2.629406,-23.188335,4635732431679258600.000000,0.942322,0.058866,0.308842,-0.114806,-18.941779,-0.007732,9.406414,0.948269,-1.064689,-2.273577,43.122073,12.883065,12.031563,4635728086746631200.000000,-0.694468,0.501643,-0.503336,-0.112790,-27.819899,-14.215134,-3.123743,0.063088,-0.094960,3.443610,31.580784,-32.125482,0.789309,4635729639950516200.000000,0.616527,0.766985,0.064116,-0.165886,0
-8.144387,-5.038196,6.088843,1.537295,-0.703929,0.119645,40.727685,2.202240,-23.449371,4635732431679258600.000000,0.942868,0.064818,0.305348,-0.116449,-13.618876,1.633864,11.145521,0.509463,-1.046117,-2.379229,42.929583,13.910418,11.694531,4635728136175091700.000000,-0.698914,0.504548,-0.495471,-0.107048,-25.484228,-11.183719,-3.125675,-0.064234,-0.250501,3.007471,30.738782,-32.916570,0.714403,4635729649124933600.000000,0.618757,0.767446,0.053976,-0.158912,0
-9.193765,-1.893747,6.294700,1.240167,-0.938105,-0.053281,40.496811,1.759004,-23.765766,4635732431679258600.000000,0.943665,0.069267,0.301111,-0.118453,-8.360041,-2.588207,7.366636,0.064917,-0.984722,-2.420596,42.800053,15.118882,11.151696,4635728136175091700.000000,-0.702233,0.508798,-0.487441,-0.101959,-22.793481,-8.623012,-4.901133,-0.103713,-0.343219,2.463671,30.031803,-33.552391,0.385422,4635729747324698600.000000,0.620692,0.767521,0.045354,-0.153608,0
-10.287350,1.236201,4.905409,1.127971,-1.040137,-0.279018,40.122172,1.494080,-24.127288,4635732431679258600.000000,0.944470,0.072938,0.296582,-0.121229,-3.075747,-4.737936,2.577381,-0.041994,-0.867441,-2.460293,42.624408,16.044659,10.776182,4635728136175091700.000000,-0.705021,0.513429,-0.479567,-0.096707,-20.971945,-6.149574,-7.107958,-0.273650,-0.415965,1.898934,29.348557,-34.185771,0.316059,4635729747324698600.000000,0.622771,0.766937,0.038454,-0.149953,0
-11.638559,4.351583,4.051135,1.030024,-0.861904,-0.461181,39.861961,1.525838,-24.448449,4635732431679258600.000000,0.944955,0.076086,0.292848,-0.124543,0.258613,-7.222531,-1.742979,0.055196,-0.704237,-2.478847,42.382103,16.752635,10.621327,4635728136175091700.000000,-0.707615,0.517815,-0.472118,-0.090843,-19.223641,-5.629459,-7.599596,-0.378560,-0.418845,1.245052,28.826306,-34.659482,0.156323,4635729747324698600.000000,0.624746,0.765937,0.033698,-0.147980,0
-10.772801,6.149226,3.274973,0.858395,-1.262444,-0.522656,39.646018,1.631997,-24.793975,4635732431679258600.000000,0.945914,0.078272,0.287635,-0.128012,1.464169,-11.239610,-3.743374,0.350125,-0.520544,-2.404864,41.928523,17.470889,10.502087,4635728136175091700.000000,-0.710379,0.521197,-0.465430,-0.084207,-17.186247,-4.577225,-6.845446,-0.504948,-0.399262,0.590640,28.614153,-34.949795,-0.007282,4635729747324698600.000000,0.626704,0.764511,0.031159,-0.147627,0
-8.531402,6.461513,3.081697,0.680835,-2.176513,-0.474874,39.146691,1.652701,-25.457603,4635732431679258600.000000,0.947985,0.079323,0.278878,-0.131372,0.311345,-12.384924,-4.081037,0.800076,-0.428969,-2.220054,41.603705,18.278438,10.239121,4635728136175091700.000000,-0.713803,0.522864,-0.459526,-0.077036,-15.134623,-4.335249,-6.363814,-0.588155,-0.419418,-0.049336,28.620402,-34.936256,-0.094825,4635729747324698600.000000,0.628531,0.762764,0.030657,-0.148997,0
-7.238571,6.350767,4.490782,0.559037,-2.243729,-0.454364,38.585160,1.640496,-26.307255,4635732431679258600.000000,0.950097,0.079873,0.269891,-0.134521,-0.742979,-11.196622,-2.934112,1.096060,-0.392250,-2.051546,41.335143,19.174295,9.849397,4635728136175091700.000000,-0.717676,0.523287,-0.454150,-0.069711,-12.821734,-4.570719,-5.741367,-0.660191,-0.413417,-0.689146,28.698837,-34.770300,-0.235878,4635729747324698600.000000,0.630180,0.760740,0.032248,-0.152011,0
-6.640340,6.126474,5.818447,0.463413,-1.352820,-0.463899,38.294757,1.583278,-26.869116,4635732431679258600.000000,0.951168,0.080527,0.264469,-0.137296,-1.804148,-9.465947,-0.192693,1.203244,-0.375738,-1.932582,41.000827,19.958345,9.594030,4635728136175091700.000000,-0.721650,0.523117,-0.449072,-0.062494,-10.624635,-3.987436,-5.699805,-0.751655,-0.390306,-1.321215,28.879844,-34.518908,-0.715030,4635729747324698600.000000,0.631696,0.758383,0.035961,-0.156595,0
-6.493317,5.898218,6.257559,0.331911,-0.529013,-0.479253,38.233585,1.550340,-27.074999,4635732431679258600.000000,0.951344,0.081114,0.262387,-0.139708,-3.331139,-7.940098,2.469319,1.099580,-0.323469,-1.814836,40.599847,20.515132,9.386504,4635728136175091700.000000,-0.725205,0.523005,-0.444343,-0.055704,-8.975057,-2.699663,-6.273817,-0.880788,-0.386465,-1.990064,29.563464,-34.175799,-1.218398,4635729747324698600.000000,0.633144,0.755539,0.041881,-0.162896,0
-7.843810,5.477840,6.586005,0.139535,-0.213156,-0.532369,38.226084,1.647866,-27.172659,4635732431679258600.000000,0.951201,0.081062,0.261685,-0.142012,-4.800667,-6.994651,3.267895,0.901137,-0.310339,-1.736053,40.363265,21.081387,9.254124,4635728136175091700.000000,-0.728232,0.523309,-0.439748,-0.049486,-7.580439,-2.017297,-6.836329,-1.070715,-0.416712,-2.703216,30.253379,-33.646905,-1.615039,4635729747324698600.000000,0.634637,0.751961,0.050090,-0.171119,0
-10.475237,4.826275,6.548140,-0.050797,-0.249997,-0.611979,38.168866,1.911590,-27.277821,4635732431679258600.000000,0.951108,0.080147,0.260975,-0.144436,-6.995916,-7.177980,2.074229,0.698722,-0.315761,-1.672305,40.180189,21.855054,8.918894,4635728136175091700.000000,-0.730767,0.524074,-0.435207,-0.043839,-6.281552,-1.463694,-5.860434,-1.033654,-0.387138,-3.373076,31.030815,-32.688957,-1.937306,4635729747324698600.000000,0.635413,0.748223,0.060443,-0.180995,0
-13.199663,4.688397,6.098508,-0.243530,-0.508403,-0.690699,37.933374,2.233688,-27.440201,4635732365693036500.000000,0.951304,0.078226,0.259381,-0.147047,-9.040230,-8.837407,0.823425,0.586077,-0.307379,-1.560799,39.865591,22.619448,8.506644,4635728053569653800.000000,-0.732980,0.524951,-0.430892,-0.038714,-4.951423,-0.678354,-5.191818,-0.674512,-0.292980,-3.993363,32.051529,-31.791592,-2.181454,4635729747324698600.000000,0.632666,0.745784,0.066003,-0.197947,0
-15.434742,5.230607,6.451190,-0.471553,-0.808970,-0.769152,37.558822,2.558534,-27.582989,4635732324305076200.000000,0.951833,0.075131,0.256756,-0.149819,-10.386655,-10.194153,0.016883,0.585839,-0.292097,-1.413402,39.586724,23.110504,8.260651,4635728028800909300.000000,-0.735107,0.525542,-0.426927,-0.034003,-3.956796,0.667333,-4.959079,-0.274236,-0.205601,-4.536876,33.283440,-30.773274,-2.410044,4635729747324698600.000000,0.629649,0.743568,0.079849,-0.210409,0
-17.043828,5.997687,7.534432,-0.731717,-0.896786,-0.802011,37.253503,2.888103,-27.805331,4635732324305076200.000000,0.952489,0.070912,0.253948,-0.152465,-11.925059,-10.574455,-0.400088,0.599151,-0.270319,-1.277645,39.461824,23.525620,8.131049,4635728028800909300.000000,-0.737177,0.525831,-0.423313,-0.029634,-3.739051,1.853363,-4.903140,0.165955,-0.087513,-5.026139,34.497947,-29.174120,-2.472118,4635729729081137200.000000,0.624549,0.742150,0.095106,-0.223848,0
-18.091388,6.831454,8.070840,-0.982685,-0.765004,-0.768470,37.099343,3.210204,-28.045815,4635732324305076200.000000,0.953069,0.065814,0.251805,-0.154669,-13.141161,-10.796121,0.181517,0.602189,-0.224622,-1.134160,39.244838,23.940734,8.096322,4635728028800909300.000000,-0.739130,0.525846,-0.420140,-0.025598,-4.068615,2.345672,-5.401072,0.579490,0.015853,-5.438696,35.664994,-27.575127,-2.537069,4635729532576333800.000000,0.617444,0.741382,0.111477,-0.238093,0
-18.893413,7.675682,7.922948,-1.214320,-0.451834,-0.667239,37.009182,3.632584,-28.200847,4635732324305076200.000000,0.953415,0.060102,0.251017,-0.156136,-13.955203,-10.842987,1.984924,0.626274,-0.155841,-0.952226,38.988476,24.290034,8.008956,4635728028800909300.000000,-0.740976,0.525460,-0.417571,-0.021928,-4.387853,2.211175,-5.613771,1.075564,0.142565,-5.755362,37.038190,-25.956315,-2.488838,4635729532576333800.000000,0.608089,0.741454,0.128599,-0.252856,0
