Accelerometer-X,Accelerometer-Y,Accelerometer-Z,Gyroscope-X,Gyroscope-Y,Gyroscope-Z,Magnetometer-X,Magnetometer-Y,Magnetometer-Z,Barometer-pressure,Orientation-S,Orientation-X,Orientation-Y,Orientation-Z,Accelerometer-X,Accelerometer-Y,Accelerometer-Z,Gyroscope-X,Gyroscope-Y,Gyroscope-Z,Magnetometer-X,Magnetometer-Y,Magnetometer-Z,Barometer-pressure,Orientation-S,Orientation-X,Orientation-Y,Orientation-Z,Accelerometer-X,Accelerometer-Y,Accelerometer-Z,Gyroscope-X,Gyroscope-Y,Gyroscope-Z,Magnetometer-X,Magnetometer-Y,Magnetometer-Z,Barometer-pressure,Orientation-S,Orientation-X,Orientation-Y,Orientation-Z,jump
-9.831243,0.160316,-1.731542,-0.839306,-0.02924,-0.203373,38.026062,-10.288178,22.261443,4.63583E+18,0.65686,-0.136894,0.734399,0.102238,-9.4473,2.511981,-0.760834,-0.019839,0.04203,-0.251603,36.31182,-28.335179,-1.298908,4.63583E+18,0.366606,-0.50838,0.588028,0.511246,-9.499305,-2.085521,-0.968275,-0.371443,-0.07789,-0.013792,36.145586,24.659927,9.929046,4.63583E+18,-0.473346,-0.389081,-0.640664,0.462718,0
-9.568126,0.095466,-1.661543,-0.851956,-0.003814,-0.189438,38.026062,-10.482916,22.396006,4.63583E+18,0.656557,-0.139726,0.733848,0.104293,-9.379541,2.42009,-0.806921,-0.01319,0.036449,-0.252083,36.358856,-28.363006,-1.418523,4.63583E+18,0.367145,-0.509121,0.587412,0.51083,-9.351326,-2.199799,-0.941918,-0.315348,-0.06618,0.00496,36.122682,24.591555,9.768327,4.63583E+18,-0.474147,-0.388326,-0.641079,0.461958,0
-9.366055,-0.056435,-1.574755,-0.85663,0.039642,-0.16796,37.980209,-10.513826,22.506649,4.63583E+18,0.656101,-0.142523,0.733416,0.106393,-9.363078,2.222328,-0.827358,-0.005126,0.025313,-0.247115,36.444298,-28.505224,-1.355312,4.63583E+18,0.367719,-0.509811,0.586808,0.510424,-9.260031,-2.389271,-0.93997,-0.260703,-0.052379,0.023118,36.200338,24.664342,9.832347,4.63583E+18,-0.474855,-0.387752,-0.641386,0.461286,0
-9.217946,-0.212951,-1.567702,-0.841439,0.068077,-0.161172,37.842681,-10.48643,22.380783,4.63583E+18,0.655555,-0.145268,0.733065,0.108448,-9.372541,2.068835,-0.811179,0.002591,0.018291,-0.234911,36.586522,-28.417902,-1.340069,4.63583E+18,0.368297,-0.510447,0.586231,0.510034,-9.286911,-2.281293,-0.996136,-0.22392,-0.045374,0.043243,36.285791,24.59253,9.929033,4.63583E+18,-0.475524,-0.387317,-0.641603,0.46066,0
-9.109975,-0.210502,-1.493905,-0.809417,0.080967,-0.174323,37.806604,-10.568359,22.217198,4.63583E+18,0.654987,-0.14797,0.732746,0.110359,-9.346899,2.019712,-0.852999,0.010896,0.017918,-0.216885,36.745218,-28.117274,-1.267118,4.63583E+18,0.368854,-0.511025,0.585708,0.509653,-9.379689,-1.98978,-1.045934,-0.211279,-0.040931,0.059604,36.29261,24.51832,9.936827,4.63583E+18,-0.476192,-0.38696,-0.641778,0.460027,0
-9.005001,-0.111764,-1.288025,-0.795675,0.127391,-0.189228,37.888523,-10.645123,22.184646,4.63583E+18,0.654286,-0.1507,0.732544,0.112158,-9.367047,1.985839,-0.895109,0.022752,0.008225,-0.19766,36.705218,-27.917414,-1.178928,4.63583E+18,0.369423,-0.511512,0.58524,0.50929,-9.432426,-1.942926,-0.993671,-0.208459,-0.041573,0.06973,36.22521,24.579865,10.026691,4.63583E+18,-0.476875,-0.386632,-0.641929,0.459383,0
-8.871256,-0.174698,-1.116029,-0.81229,0.220509,-0.192267,37.919453,-10.705893,22.282306,4.63583E+18,0.653283,-0.153527,0.732577,0.113939,-9.460431,1.939757,-0.912808,0.05047,-0.008732,-0.171812,36.749472,-27.938474,-1.225928,4.63583E+18,0.370038,-0.511856,0.58486,0.508935,-9.458784,-1.974669,-0.910186,-0.210254,-0.03871,0.077376,36.140753,24.653093,9.944642,4.63583E+18,-0.477566,-0.386329,-0.642076,0.458714,0
-8.897832,-0.254725,-1.1445,-0.81647,0.301927,-0.193501,37.821532,-10.730573,22.32355,4.63583E+18,0.652021,-0.156405,0.73282,0.115676,-9.560828,1.862553,-0.972312,0.099893,-0.040132,-0.145698,36.967349,-28.02117,-1.387048,4.63583E+18,0.370776,-0.511996,0.584587,0.508569,-9.449506,-1.977599,-0.970738,-0.221236,-0.046315,0.077975,36.201303,24.524176,9.858205,4.63583E+18,-0.478295,-0.385991,-0.642227,0.458028,0
-9.009321,-0.294869,-1.33138,-0.798147,0.310222,-0.200857,37.683996,-10.812493,22.285819,4.63583E+18,0.650741,-0.159258,0.73308,0.117331,-9.63956,1.796028,-0.998258,0.163465,-0.072066,-0.11841,36.94939,-27.917452,-1.210732,4.63583E+18,0.371672,-0.5119,0.584461,0.508157,-9.482221,-1.966369,-1.043975,-0.237897,-0.050929,0.071096,36.364385,24.299088,10.109674,4.63583E+18,-0.479051,-0.385589,-0.642412,0.457315,0
-9.112387,-0.37541,-1.517242,-0.769694,0.260331,-0.213035,37.602075,-10.889256,22.363962,4.63583E+18,0.64963,-0.162044,0.733202,0.118897,-9.608762,1.914705,-0.953713,0.20321,-0.092285,-0.093947,36.738218,-27.749286,-1.005613,4.63583E+18,0.372653,-0.511635,0.584442,0.507726,-9.586213,-1.898018,-1.139668,-0.257933,-0.056184,0.06362,36.389292,24.213152,10.221976,4.63583E+18,-0.479839,-0.385115,-0.642637,0.456571,0
-9.258851,-0.534079,-1.497752,-0.719457,0.227844,-0.218683,37.549973,-10.999345,22.367484,4.63583E+18,0.648648,-0.164694,0.73325,0.120314,-9.462591,2.255878,-0.883215,0.195527,-0.077924,-0.07293,36.617032,-27.587836,-1.191405,4.63583E+18,0.373536,-0.511364,0.584471,0.507318,-9.595019,-1.835997,-1.226107,-0.268404,-0.06349,0.05516,36.37904,24.274662,10.050122,4.63583E+18,-0.480644,-0.384586,-0.642879,0.455829,0
-9.433504,-0.717419,-1.442351,-0.661964,0.235773,-0.224167,37.525323,-11.120944,22.348,4.63583E+18,0.647678,-0.167208,0.733338,0.121535,-9.386283,2.457318,-0.876184,0.155613,-0.059393,-0.067534,36.730208,-27.675064,-1.399233,4.63583E+18,0.374275,-0.511181,0.584454,0.506977,-9.561332,-1.819882,-1.221719,-0.276051,-0.069002,0.046615,36.310688,24.134548,10.124317,4.63583E+18,-0.48146,-0.384007,-0.643138,0.455092,0
-9.667071,-0.933384,-1.543981,-0.609445,0.224624,-0.225831,37.418756,-11.120944,22.253869,4.63583E+18,0.646773,-0.169578,0.733415,0.122597,-9.450948,2.386276,-0.803271,0.116304,-0.046441,-0.068948,36.957854,-27.89996,-1.364812,4.63583E+18,0.374903,-0.511088,0.584372,0.506701,-9.547169,-1.852585,-1.209513,-0.279597,-0.074342,0.042983,36.394638,23.975872,10.480196,4.63583E+18,-0.482291,-0.383396,-0.643399,0.454357,0
-9.860516,-1.04819,-1.75832,-0.548561,0.16214,-0.219691,37.351587,-11.120944,22.274026,4.63583E+18,0.646095,-0.171732,0.733354,0.123533,-9.510776,2.356029,-0.639408,0.099607,-0.037174,-0.071085,36.9561,-28.087361,-1.267153,4.63583E+18,0.375478,-0.511045,0.584264,0.506443,-9.512503,-1.90044,-1.219762,-0.278872,-0.076735,0.035848,36.391249,24.109105,10.420745,4.63583E+18,-0.483111,-0.382764,-0.643665,0.453642,0
-9.99105,-1.084812,-1.890501,-0.487061,0.084821,-0.202128,37.559567,-11.191349,22.530153,4.63583E+18,0.645684,-0.173626,0.733126,0.124384,-9.474497,2.545137,-0.475242,0.06328,-0.01291,-0.080667,36.930147,-27.927293,-1.245155,4.63583E+18,0.375937,-0.511131,0.584099,0.506205,-9.45343,-1.938037,-1.209513,-0.27191,-0.078871,0.029354,36.322904,24.189194,10.334323,4.63583E+18,-0.483911,-0.382126,-0.643921,0.452964,0
-10.038006,-1.100313,-1.895441,-0.426812,0.032909,-0.177377,37.818763,-11.389734,22.616343,4.63583E+18,0.64546,-0.175255,0.732805,0.125153,-9.375634,2.694736,-0.47729,0.010383,0.027514,-0.096554,37.050321,-27.680383,-1.245155,4.63583E+18,0.37622,-0.511423,0.583852,0.505986,-9.437305,-1.952203,-1.230985,-0.254611,-0.079043,0.026875,36.238441,24.195074,10.327463,4.63583E+18,-0.484677,-0.381515,-0.644147,0.452337,0
-10.025574,-1.081291,-1.79404,-0.37587,0.025078,-0.14519,37.854935,-11.425905,22.40156,4.63583E+18,0.645278,-0.176644,0.732511,0.12586,-9.369784,2.627689,-0.526121,-0.038543,0.053934,-0.111162,36.96316,-27.55916,-1.254611,4.63583E+18,0.376364,-0.511884,0.58351,0.505807,-9.458774,-1.953184,-1.277851,-0.240382,-0.080025,0.026704,36.310154,24.127717,10.406045,4.63583E+18,-0.485424,-0.380929,-0.644344,0.451749,0
-9.966412,-1.063482,-1.651304,-0.335939,0.047218,-0.113746,37.769492,-11.340464,22.164913,4.63583E+18,0.64504,-0.17784,0.732319,0.126512,-9.422562,2.448895,-0.584401,-0.0723,0.071158,-0.122565,36.738293,-27.606087,-1.181722,4.63583E+18,0.376417,-0.512462,0.5831,0.505656,-9.471964,-1.953184,-1.259326,-0.223549,-0.077164,0.022775,36.474189,24.054473,10.592529,4.63583E+18,-0.486128,-0.38037,-0.644523,0.451208,0
-9.938482,-0.948454,-1.595653,-0.309709,0.078228,-0.080347,37.687564,-11.328883,22.151677,4.63583E+18,0.644708,-0.17888,0.732248,0.127151,-9.464687,2.263037,-0.721075,-0.07987,0.071461,-0.129937,36.872342,-27.55917,-1.084065,4.63583E+18,0.376473,-0.513065,0.582661,0.505508,-9.450496,-1.953184,-1.20124,-0.202532,-0.07396,0.020467,36.48793,23.970013,10.776602,4.63583E+18,-0.486788,-0.37985,-0.644672,0.450721,0
-9.915928,-0.83673,-1.593996,-0.285124,0.114961,-0.057047,37.610807,-11.471646,22.32237,4.63583E+18,0.644268,-0.179802,0.732305,0.127751,-9.454038,2.221747,-0.851395,-0.073494,0.071325,-0.133037,37.116468,-27.606077,-0.986415,4.63583E+18,0.376551,-0.513663,0.58223,0.50534,-9.437305,-1.953184,-1.162648,-0.177238,-0.074684,0.020295,36.48793,24.109067,10.701539,4.63583E+18,-0.487406,-0.379382,-0.644772,0.450304,0
-9.928135,-0.704314,-1.643024,-0.253372,0.127528,-0.04928,37.549973,-11.502691,22.397069,4.63583E+18,0.643808,-0.180622,0.732417,0.128264,-9.410721,2.259556,-0.916742,-0.069085,0.071566,-0.136827,37.171543,-27.625353,-0.888768,4.63583E+18,0.376645,-0.514262,0.581801,0.505153,-9.447547,-1.953184,-1.114805,-0.147676,-0.067895,0.022259,36.544051,24.121828,10.435521,4.63583E+18,-0.487961,-0.378994,-0.644825,0.449954,0
-9.943861,-0.62775,-1.742348,-0.21859,0.106435,-0.044844,37.525351,-11.425923,22.388378,4.63583E+18,0.643436,-0.181323,0.732495,0.1287,-9.380799,2.298929,-0.965565,-0.0634,0.068258,-0.140272,37.039234,-27.43634,-0.942331,4.63583E+18,0.376767,-0.514854,0.58137,0.504955,-9.44853,-1.953184,-1.099649,-0.121697,-0.059436,0.021449,36.627538,23.908565,10.412915,4.63583E+18,-0.48845,-0.378672,-0.644847,0.449662,0
-9.940139,-0.599819,-1.787454,-0.187923,0.070536,-0.038598,37.46452,-11.365092,22.360243,4.63583E+18,0.643192,-0.181903,0.732497,0.129086,-9.356383,2.307199,-1.052204,-0.057818,0.063158,-0.141823,37.000641,-27.381207,-1.039997,4.63583E+18,0.376916,-0.515431,0.580939,0.504753,-9.414857,-1.94196,-1.087442,-0.099008,-0.053837,0.021363,36.578295,23.676624,10.502711,4.63583E+18,-0.488888,-0.378405,-0.64484,0.449421,0
-9.852838,-0.570232,-1.748978,-0.161094,0.028934,-0.034164,37.513742,-11.389703,22.290718,4.63583E+18,0.643093,-0.182375,0.732405,0.129433,-9.369773,2.250495,-1.140406,-0.053304,0.057818,-0.142064,37.123499,-27.43791,-1.062044,4.63583E+18,0.377088,-0.515988,0.580508,0.50455,-9.411908,-1.9522,-1.041567,-0.076579,-0.044569,0.023327,36.416258,23.725286,10.432013,4.63583E+18,-0.489269,-0.378207,-0.644806,0.449222,0
-9.741311,-0.565056,-1.665186,-0.14402,0.007605,-0.026379,37.65652,-11.520862,22.266107,4.63583E+18,0.643067,-0.182765,0.732272,0.129766,-9.403637,2.215054,-1.131352,-0.044897,0.050823,-0.142064,37.159336,-27.454451,-1.21325,4.63583E+18,0.377294,-0.516518,0.580083,0.504343,-9.468016,-1.941963,-1.060073,-0.052187,-0.040848,0.025463,36.469805,23.877073,10.413901,4.63583E+18,-0.489604,-0.378073,-0.64473,0.449079,0
-9.631254,-0.58781,-1.548292,-0.132886,0.001846,-0.019064,37.687576,-11.719301,22.208782,4.63583E+18,0.643063,-0.183101,0.732134,0.130089,-9.393007,2.237891,-1.075829,-0.042726,0.049962,-0.138756,37.093183,-27.265443,-1.181759,4.63583E+18,0.377502,-0.517032,0.57967,0.504136,-9.461723,-1.952199,-1.062044,-0.036457,-0.033716,0.025636,36.408393,23.957217,10.412915,4.63583E+18,-0.489895,-0.377984,-0.64464,0.448966,0
-9.46388,-0.64015,-1.463224,-0.120199,0.016557,-0.014792,37.656511,-11.709856,22.185844,4.63583E+18,0.643021,-0.183397,0.732047,0.130373,-9.415841,2.27451,-1.005349,-0.055128,0.054337,-0.137791,37.196722,-27.144157,-0.942371,4.63583E+18,0.377672,-0.517569,0.579241,0.50395,-9.494406,-1.941962,-1.062044,-0.018555,-0.032131,0.025636,36.402477,23.963133,10.412915,4.63583E+18,-0.490153,-0.377934,-0.644519,0.4489,0
-9.322759,-0.683615,-1.517415,-0.101442,0.052112,-0.010827,37.687584,-11.535996,22.135719,4.63583E+18,0.642882,-0.183649,0.732068,0.130584,-9.452462,2.169398,-0.979351,-0.064536,0.057197,-0.133657,37.298722,-27.058708,-0.878933,4.63583E+18,0.377808,-0.518115,0.578806,0.503787,-9.508581,-1.940977,-1.073266,-0.00138,-0.026153,0.028581,36.548357,23.895803,10.592461,4.63583E+18,-0.490374,-0.377937,-0.644375,0.448863,0
-9.23916,-0.669563,-1.611553,-0.089563,0.089655,-0.007623,37.586244,-11.581665,22.20878,4.63583E+18,0.642636,-0.183881,0.732198,0.130739,-9.451289,2.070153,-0.919899,-0.070359,0.0552,-0.131624,37.374726,-26.973256,-0.954524,4.63583E+18,0.37793,-0.518662,0.57836,0.503645,-9.475903,-1.96342,-1.096694,0.009819,-0.021708,0.032768,36.639724,23.889889,10.686784,4.63583E+18,-0.490574,-0.377981,-0.644214,0.448839,0
-9.22546,-0.627759,-1.693492,-0.079758,0.128401,-0.005341,37.468032,-11.694693,22.245578,4.63583E+18,0.642277,-0.1841,0.73244,0.13084,-9.495769,2.050844,-0.80887,-0.074873,0.058609,-0.127249,37.391277,-26.897261,-1.052174,4.63583E+18,0.378024,-0.519214,0.577916,0.503515,-9.472945,-1.965392,-1.165995,0.018537,-0.018417,0.035076,36.568074,23.889889,10.615135,4.63583E+18,-0.490755,-0.378055,-0.644039,0.44883,0
-9.309243,-0.606857,-1.728094,-0.053184,0.163811,-0.006263,37.522396,-11.649024,22.311621,4.63583E+18,0.641831,-0.18427,0.73279,0.130831,-9.519014,1.984712,-0.781274,-0.077492,0.06147,-0.119428,37.457407,-27.003519,-1.064804,4.63583E+18,0.378087,-0.519757,0.577487,0.503399,-9.461727,-1.954174,-1.171911,0.027079,-0.012269,0.038193,36.49387,23.889889,10.518494,4.63583E+18,-0.49091,-0.378167,-0.643855,0.448828,0
-9.436668,-0.573575,-1.688134,-0.023,0.202263,-0.011004,37.58625,-11.511409,22.302925,4.63583E+18,0.641293,-0.184394,0.733255,0.130688,-9.493432,1.89926,-0.837958,-0.071362,0.060299,-0.110883,37.476727,-27.10553,-1.137624,4.63583E+18,0.37815,-0.520267,0.577087,0.503285,-9.471956,-1.953184,-1.171911,0.02679,-0.013713,0.041398,36.544021,23.968417,10.331079,4.63583E+18,-0.491074,-0.378288,-0.643663,0.448824,0
-9.61458,-0.498665,-1.717898,-0.008545,0.231495,-0.018012,37.418871,-11.425964,22.383689,4.63583E+18,0.640679,-0.184516,0.733801,0.13046,-9.485152,1.898833,-0.863965,-0.066123,0.054857,-0.103992,37.344479,-26.935924,-1.093579,4.63583E+18,0.378222,-0.52074,0.576705,0.50318,-9.495383,-1.953184,-1.183129,0.025722,-0.011923,0.045584,36.560184,23.97534,10.405005,4.63583E+18,-0.491242,-0.378419,-0.643471,0.448804,0
-9.81341,-0.446324,-1.815723,-0.018685,0.23053,-0.019988,37.309336,-11.361581,22.63988,4.63583E+18,0.640061,-0.184671,0.734338,0.130258,-9.46626,1.961031,-0.90451,-0.061024,0.049275,-0.09345,37.305824,-26.748459,-0.923116,4.63583E+18,0.3783,-0.521163,0.57635,0.50309,-9.474928,-1.953184,-1.172902,0.024654,-0.005861,0.051819,36.639685,23.829534,10.502642,4.63583E+18,-0.491409,-0.378575,-0.643284,0.448758,0
-9.99284,-0.3888,-1.991969,-0.054854,0.21069,-0.013697,37.388252,-11.377463,22.807103,4.63583E+18,0.639471,-0.184892,0.734806,0.130199,-9.451292,1.958707,-0.962785,-0.062296,0.045587,-0.081701,37.438067,-26.898719,-1.09619,4.63583E+18,0.37836,-0.521552,0.576011,0.503029,-9.428082,-1.953184,-1.115833,0.027512,-0.011229,0.056265,36.725133,23.670841,10.600299,4.63583E+18,-0.491594,-0.378736,-0.643076,0.448719,0
-10.064088,-0.371565,-2.222213,-0.070577,0.18165,0.003993,37.56218,-11.487477,22.848594,4.63583E+18,0.638948,-0.185085,0.735202,0.130258,-9.495754,1.858736,-1.023816,-0.058062,0.037424,-0.064994,37.599512,-26.953947,-1.235262,4.63583E+18,0.378412,-0.521878,0.575703,0.503005,-9.457762,-1.953184,-1.099658,0.028753,-0.009787,0.065444,36.720859,23.590654,10.350274,4.63583E+18,-0.491788,-0.37893,-0.642852,0.448663,0
-10.011593,-0.422072,-2.404858,-0.021695,0.121913,0.013272,37.51304,-11.609241,22.754445,4.63583E+18,0.638641,-0.185086,0.735472,0.130239,-9.537901,1.783888,-1.009296,-0.048348,0.027811,-0.047662,37.503201,-26.765057,-1.191251,4.63583E+18,0.378472,-0.522126,0.575439,0.503005,-9.483166,-1.953184,-1.143523,0.024915,-0.008632,0.065244,36.562869,23.730488,10.148035,4.63583E+18,-0.491982,-0.37912,-0.642636,0.448597,0
-9.910581,-0.432447,-2.338176,0.036985,0.041858,0.008372,37.345652,-11.560106,22.71813,4.63583E+18,0.638626,-0.184903,0.735558,0.130088,-9.583968,1.732295,-0.972674,-0.036014,0.018198,-0.028093,37.596745,-26.766466,-1.08691,4.63583E+18,0.378544,-0.522284,0.57523,0.503025,-9.58608,-1.94197,-1.136282,0.019661,-0.009526,0.062213,36.481679,23.87797,10.221858,4.63583E+18,-0.492182,-0.379289,-0.642434,0.448525,0
-9.861755,-0.401018,-2.134324,0.061044,-0.005219,-0.002763,37.211528,-11.462897,22.782523,4.63583E+18,0.638779,-0.184663,0.735523,0.129871,-9.632788,1.730686,-0.954943,-0.028982,0.011065,-0.006149,37.635426,-26.915235,-1.062044,4.63583E+18,0.378604,-0.522362,0.575073,0.503079,-9.628666,-1.929762,-1.090426,0.015301,-0.009613,0.058027,36.543014,23.968397,10.308313,4.63583E+18,-0.492381,-0.379438,-0.642247,0.44845,0
-9.816435,-0.376746,-2.045653,0.068386,-0.02706,-0.00992,37.180384,-11.572902,22.7386,4.63583E+18,0.639009,-0.184415,0.735429,0.129629,-9.587192,1.808993,-0.952177,-0.028598,0.011266,0.01463,37.512668,-26.953947,-1.062044,4.63583E+18,0.378619,-0.52239,0.574962,0.503165,-9.597999,-1.939984,-1.041602,0.010048,-0.009613,0.053755,36.627467,23.829555,10.236756,4.63583E+18,-0.492579,-0.379564,-0.642076,0.448369,0
-9.790338,-0.399338,-2.059545,0.08518,-0.056192,-0.008534,37.278166,-11.645599,22.604604,4.63583E+18,0.639339,-0.184101,0.735267,0.129362,-9.532832,1.906655,-0.914405,-0.032145,0.01175,0.032447,37.476727,-26.953947,-1.062044,4.63583E+18,0.37859,-0.522381,0.574883,0.503286,-9.56138,-1.929764,-1.037629,0.009613,-0.005689,0.050464,36.634418,23.749366,10.229804,4.63583E+18,-0.492761,-0.379688,-0.64192,0.448288,0
-9.758787,-0.394143,-2.026304,0.107768,-0.070942,-0.003204,37.415816,-11.453676,22.673027,4.63583E+18,0.639729,-0.183702,0.735083,0.129051,-9.521774,1.919328,-0.875022,-0.037243,0.01175,0.045405,37.599474,-27.02004,-1.137579,4.63583E+18,0.378522,-0.522348,0.574823,0.50344,-9.558396,-1.917557,-1.071267,0.005689,-0.003379,0.044316,36.567141,23.732186,10.319506,4.63583E+18,-0.492933,-0.37979,-0.641787,0.448203,0
-9.645414,-0.402844,-1.954875,0.128495,-0.060408,-0.002284,37.406614,-11.300674,22.896016,4.63583E+18,0.640101,-0.183251,0.734938,0.128672,-9.512333,1.897679,-0.904492,-0.037627,0.009271,0.05798,37.569334,-26.907216,-1.084171,4.63583E+18,0.378433,-0.522281,0.574785,0.503621,-9.535974,-1.849294,-1.096674,0.000436,-0.005166,0.038889,36.493906,23.87694,10.495634,4.63583E+18,-0.493108,-0.379861,-0.641671,0.448117,0
-9.523349,-0.395835,-1.925265,0.130293,-0.045751,0.00092,37.21155,-11.401952,22.9498,4.63583E+18,0.640427,-0.182792,0.734836,0.128285,-9.500126,1.958239,-0.896672,-0.047299,0.011024,0.071624,37.493322,-26.868494,-0.995953,4.63583E+18,0.378291,-0.522197,0.57476,0.503842,-9.522769,-1.832105,-1.076241,-0.002943,-0.00436,0.027661,36.48793,23.822614,10.510574,4.63583E+18,-0.493265,-0.379897,-0.64158,0.448043,0
-9.41881,-0.350408,-1.91306,0.116568,-0.02285,0.00443,37.204871,-11.453735,22.857357,4.63583E+18,0.64067,-0.182372,0.73479,0.127932,-9.5068,2.034242,-0.910021,-0.085723,0.025792,0.083857,37.410645,-26.934578,-1.042675,4.63583E+18,0.378005,-0.522176,0.574705,0.504142,-9.5442,-1.898387,-1.051826,-0.000261,-0.00231,0.022779,36.633695,23.603603,10.420873,4.63583E+18,-0.493403,-0.379928,-0.641497,0.447984,0
-9.350764,-0.263255,-1.911361,0.106499,0.015633,0.005944,37.318031,-11.27964,22.803536,4.63583E+18,0.640786,-0.181993,0.734843,0.127585,-9.481247,2.183005,-1.009956,-0.16304,0.057166,0.09891,37.457356,-26.953947,-1.213086,4.63583E+18,0.377441,-0.522308,0.574567,0.504585,-9.512559,-1.937985,-1.061047,0.003924,-0.002136,0.018508,36.859616,23.450184,10.323235,4.63583E+18,-0.493525,-0.379958,-0.641413,0.447944,0
-9.289834,-0.212727,-1.93928,0.100406,0.070109,-0.000009,37.272489,-11.349706,22.924022,4.63583E+18,0.640733,-0.181678,0.735033,0.127199,-9.425745,2.278388,-0.980989,-0.22891,0.090763,0.115758,37.420088,-27.020027,-1.332883,4.63583E+18,0.376618,-0.522573,0.574379,0.505138,-9.487145,-1.952188,-1.095677,0.009177,0.000807,0.017178,36.945831,23.651225,10.225567,4.63583E+18,-0.493626,-0.380003,-0.641326,0.447919,0
-9.321349,-0.195318,-1.993405,0.101019,0.114466,-0.007485,37.180345,-11.523788,23.043979,4.63583E+18,0.640549,-0.181408,0.735337,0.126759,-9.449664,2.134529,-0.860556,-0.227603,0.090836,0.120458,37.403484,-27.171544,-1.355022,4.63583E+18,0.37579,-0.522821,0.574207,0.505693,-9.496363,-1.941975,-1.098666,0.01746,0.001068,0.020033,36.660354,23.804674,10.396955,4.63583E+18,-0.49372,-0.380071,-0.641221,0.447908,0
-9.441733,-0.212832,-2.073559,0.106833,0.120822,-0.014044,37.162526,-11.453735,22.946312,4.63583E+18,0.640352,-0.181145,0.735656,0.126278,-9.536246,1.908132,-0.764033,-0.175342,0.064706,0.116571,37.337413,-27.210302,-1.355022,4.63583E+18,0.375146,-0.522942,0.574094,0.506175,-9.519779,-1.952187,-1.109876,0.024044,0.005972,0.016371,36.432642,23.738175,10.513803,4.63583E+18,-0.493784,-0.380151,-0.641122,0.447913,0
-9.595221,-0.259858,-2.099673,0.122706,0.086607,-0.017703,36.942904,-11.27964,22.904692,4.63583E+18,0.640273,-0.180832,0.735889,0.125765,-9.605584,1.949901,-0.754089,-0.128259,0.045293,0.119489,37.318031,-27.144239,-1.355022,4.63583E+18,0.374643,-0.522943,0.574055,0.506592,-9.532985,-1.930765,-1.144503,0.024567,0.006409,0.016022,36.549201,23.731192,10.343425,4.63583E+18,-0.493844,-0.380233,-0.641021,0.44792,0
-9.727597,-0.272064,-2.113678,0.137799,0.026473,-0.020146,37.109833,-11.419689,23.002343,4.63583E+18,0.640391,-0.180455,0.735968,0.125245,-9.62887,2.081396,-0.85122,-0.088015,0.035878,0.12648,37.12931,-27.124849,-1.279533,4.63583E+18,0.374238,-0.52284,0.574103,0.506942,-9.533982,-1.939979,-1.113867,0.025548,0.008371,0.01308,36.841419,23.742401,10.058429,4.63583E+18,-0.493889,-0.380316,-0.640926,0.447936,0
-9.743212,-0.28077,-2.152004,0.148953,-0.044787,-0.02335,38.110935,-11.907986,23.047484,4.63583E+18,0.638749,-0.191281,0.733014,0.134545,-9.650513,2.055267,-0.954419,-0.060879,0.018494,0.13148,37.139934,-27.1909,-1.181877,4.63583E+18,0.373925,-0.522643,0.574195,0.507271,-9.556396,-1.907356,-1.077252,0.023674,0.008545,0.009876,36.799116,23.676156,10.202592,4.63583E+18,-0.493932,-0.380385,-0.640842,0.447951,0
-9.70309,-0.287772,-2.167712,0.168021,-0.104561,-0.026861,38.843868,-12.259734,22.958534,4.63583E+18,0.639041,-0.192189,0.73239,0.135259,-9.637185,2.066943,-0.938849,-0.043985,0.006455,0.139055,37.348051,-27.266916,-1.159703,4.63583E+18,0.37366,-0.522378,0.574319,0.5076,-9.569604,-1.915562,-1.074252,0.021538,0.009526,0.00373,36.658632,23.591707,10.396906,4.63583E+18,-0.493965,-0.380433,-0.640775,0.44797,0
-9.647265,-0.298186,-2.185125,0.181286,-0.128178,-0.030214,38.712926,-12.264941,22.920379,4.63583E+18,0.639422,-0.193023,0.731717,0.135914,-9.54673,2.122431,-0.88059,-0.03316,0.001796,0.1476,37.214792,-27.415631,-1.23518,4.63583E+18,0.373411,-0.522066,0.574475,0.507927,-9.570604,-1.927769,-1.074252,0.019402,0.010594,-0.000718,36.725071,23.651944,10.50257,4.63583E+18,-0.493991,-0.380465,-0.640722,0.44799,0
-9.602019,-0.277271,-2.153627,0.185551,-0.126647,-0.028526,38.542272,-12.329728,23.002247,4.63583E+18,0.639806,-0.193802,0.73106,0.13653,-9.455743,2.174028,-0.857293,-0.024373,-0.000583,0.147065,36.980106,-27.520482,-1.332828,4.63583E+18,0.373187,-0.521736,0.574646,0.508237,-9.559397,-1.906356,-1.096665,0.014324,0.012643,-0.004991,36.86656,23.736395,10.331265,4.63583E+18,-0.494009,-0.380481,-0.640688,0.448004,0
-9.633431,-0.272062,-2.050763,0.184483,-0.128348,-0.017838,38.592971,-12.442602,22.923472,4.63583E+18,0.640188,-0.194545,0.730406,0.137179,-9.445757,2.288898,-0.779047,-0.015827,-0.002719,0.140558,37.116074,-27.473865,-1.421059,4.63583E+18,0.373001,-0.521404,0.574817,0.508522,-9.558396,-1.893149,-1.076255,0.004081,0.012818,-0.011224,36.800127,23.743399,10.225612,4.63583E+18,-0.49403,-0.380462,-0.640683,0.448004,0
-9.67526,-0.298262,-1.979312,0.18464,-0.151247,-0.003348,38.721956,-12.219464,22.702272,4.63583E+18,0.640641,-0.195172,0.729718,0.137837,-9.467397,2.498636,-0.690827,-0.022965,0.003399,0.133907,37.10551,-27.388418,-1.374442,4.63583E+18,0.3728,-0.52111,0.574968,0.5088,-9.569604,-1.925768,-1.040631,-0.000718,0.017721,-0.017633,36.714666,23.81064,10.13915,4.63583E+18,-0.494033,-0.380426,-0.640707,0.447998,0
-9.692678,-0.345306,-1.953184,0.18815,-0.17472,0.007027,38.782921,-12.097537,22.749536,4.63583E+18,0.641172,-0.195678,0.728994,0.138477,-9.463512,2.570213,-0.718571,-0.04627,0.016896,0.12007,36.897434,-27.378432,-1.279559,4.63583E+18,0.372546,-0.520911,0.575062,0.509082,-9.570604,-1.984791,-1.071242,0.007755,0.029923,-0.019139,36.718864,23.895073,10.300207,4.63583E+18,-0.493987,-0.380424,-0.640744,0.447997,0
-9.678687,-0.357513,-1.946189,0.193341,-0.170735,0.015416,38.761933,-12.097537,22.916864,4.63583E+18,0.6417,-0.196089,0.728306,0.139073,-9.517328,2.434287,-0.779603,-0.065544,0.020295,0.109001,36.907964,-27.437796,-1.408269,4.63583E+18,0.372267,-0.520776,0.575098,0.509385,-9.559399,-1.978602,-1.074252,0.016389,0.031957,-0.016285,36.798306,23.82366,10.572977,4.63583E+18,-0.49393,-0.380448,-0.640767,0.448007,0
-9.626364,-0.359228,-1.925273,0.201735,-0.149062,0.018309,38.730656,-12.052078,22.955069,4.63583E+18,0.642175,-0.196429,0.727696,0.139593,-9.486826,2.45867,-0.774619,-0.079333,0.010392,0.096087,37.116022,-27.454451,-1.44325,4.63583E+18,0.372008,-0.520671,0.57506,0.509723,-9.592009,-1.921579,-0.984619,0.034737,0.035966,-0.016022,36.88375,23.603767,10.775291,4.63583E+18,-0.493835,-0.380515,-0.640765,0.448057,0
-9.586308,-0.352297,-1.913066,0.214864,-0.123433,0.016634,38.803899,-11.963316,22.824228,4.63583E+18,0.642588,-0.196725,0.727168,0.140023,-9.378643,2.619556,-0.797357,-0.09875,0.011603,0.083027,37.039521,-27.454451,-1.299021,4.63583E+18,0.371732,-0.520629,0.574955,0.510085,-9.538986,-1.938976,-0.898146,0.052006,0.039259,-0.015042,36.958011,23.584703,10.612039,4.63583E+18,-0.493705,-0.380627,-0.640736,0.448147,0
-9.598515,-0.374934,-1.904355,0.230113,-0.108034,0.019994,38.856163,-11.999825,22.690068,4.63583E+18,0.642964,-0.196975,0.726694,0.140405,-9.313147,2.566904,-0.852844,-0.119289,0.018594,0.071034,36.934623,-27.454451,-1.181915,4.63583E+18,0.371423,-0.520661,0.574792,0.510462,-9.522774,-1.974602,-0.947181,0.054388,0.040502,-0.012012,36.964016,23.66316,10.427903,4.63583E+18,-0.493571,-0.380758,-0.640699,0.448237,0
-9.635189,-0.369717,-1.90785,0.233313,-0.106052,0.027932,38.835191,-11.914373,22.709318,4.63583E+18,0.64334,-0.197146,0.726246,0.140757,-9.368053,2.463698,-0.791284,-0.122255,0.023595,0.060935,36.9812,-27.520461,-1.301156,4.63583E+18,0.371116,-0.520731,0.574609,0.510819,-9.521774,-1.977599,-0.997011,0.062321,0.044513,-0.003904,36.594143,23.804655,10.334457,4.63583E+18,-0.493427,-0.380935,-0.640642,0.448326,0
-9.725858,-0.388916,-1.920058,0.234541,-0.120272,0.039375,38.782921,-11.877856,22.806978,4.63583E+18,0.643761,-0.197228,0.725783,0.141112,-9.406353,2.526349,-0.759637,-0.134146,0.020442,0.045546,37.01007,-27.60591,-1.493692,4.63583E+18,0.370823,-0.520851,0.574362,0.511188,-9.476947,-2.056048,-1.079456,0.083614,0.050746,0.000718,36.561172,23.738195,10.405912,4.63583E+18,-0.493242,-0.381178,-0.640551,0.448452,0
-9.78512,-0.418547,-1.911295,0.244154,-0.166351,0.049445,38.80389,-11.914376,22.820755,4.63583E+18,0.644325,-0.197207,0.725214,0.141489,-9.383619,2.617356,-0.860588,-0.152643,0.020877,0.028456,37.078855,-27.691363,-1.538133,4.63583E+18,0.370524,-0.52104,0.574038,0.511576,-9.517772,-2.007017,-1.198527,0.107025,0.055193,0.013816,36.78531,23.742398,10.581018,4.63583E+18,-0.493033,-0.381511,-0.640407,0.448605,0
-9.788569,-0.416777,-1.850263,0.252849,-0.202805,0.054015,38.831706,-11.783511,22.597501,4.63583E+18,0.645007,-0.197096,0.724565,0.141857,-9.346999,2.636799,-1.051429,-0.158668,0.019713,0.018792,37.088869,-27.710806,-1.462703,4.63583E+18,0.370236,-0.521259,0.573678,0.511964,-9.488154,-1.94598,-1.141292,0.118757,0.052602,0.020838,36.726872,23.810641,10.427924,4.63583E+18,-0.492824,-0.381884,-0.640222,0.448781,0
-9.725764,-0.397625,-1.775251,0.261092,-0.213014,0.04898,38.79517,-11.658155,22.360427,4.63583E+18,0.645734,-0.196943,0.723898,0.142174,-9.348092,2.504801,-1.19295,-0.155854,0.015927,0.008016,36.897522,-27.51281,-1.449902,4.63583E+18,0.369987,-0.52149,0.573296,0.512337,-9.563591,-1.940977,-1.157699,0.107867,0.046456,0.029207,36.574197,23.738205,10.244833,4.63583E+18,-0.492663,-0.382247,-0.640032,0.448921,0
-9.621122,-0.411558,-1.661894,0.275132,-0.196065,0.044708,38.856163,-11.850013,22.32216,4.63583E+18,0.646418,-0.196793,0.723275,0.142442,-9.369726,2.343341,-1.154749,-0.13096,0.014954,0.002866,36.775953,-27.454451,-1.59409,4.63583E+18,0.369806,-0.521691,0.572955,0.512645,-9.548193,-1.952182,-1.148498,0.101912,0.043969,0.03481,36.774075,23.742397,10.308242,4.63583E+18,-0.492528,-0.382607,-0.639839,0.449037,0
-9.492073,-0.395859,-1.564278,0.291916,-0.153791,0.038907,38.835209,-11.975398,22.452972,4.63583E+18,0.646992,-0.196629,0.722774,0.142603,-9.384713,2.288345,-1.078727,-0.090086,0.005881,-0.000338,36.888469,-27.586427,-1.635792,4.63583E+18,0.369744,-0.521816,0.572681,0.512869,-9.523778,-1.953184,-1.192317,0.100494,0.045755,0.040151,36.793114,23.810632,10.404899,4.63583E+18,-0.492401,-0.382981,-0.639644,0.449135,0
-9.359557,-0.371445,-1.534641,0.307021,-0.092143,0.03235,38.782921,-11.783548,22.60814,4.63583E+18,0.647409,-0.196414,0.722461,0.142592,-9.406347,2.292211,-1.062044,-0.053716,-0.005869,-0.005192,36.993384,-27.691342,-1.560377,4.63583E+18,0.369799,-0.521869,0.572457,0.513025,-9.510571,-1.953184,-1.308366,0.092563,0.04397,0.049413,36.647462,23.816645,10.412915,4.63583E+18,-0.492308,-0.38336,-0.639446,0.449196,0
-9.282853,-0.347034,-1.518944,0.314034,-0.03234,0.033418,38.849241,-11.609241,22.669147,4.63583E+18,0.647659,-0.196164,0.722328,0.142474,-9.411908,2.23843,-1.071471,-0.010462,-0.016794,-0.008883,36.946858,-27.51284,-1.613548,4.63583E+18,0.369982,-0.521843,0.572299,0.513096,-9.487159,-1.930777,-1.340807,0.077156,0.037912,0.054124,36.645622,23.670993,10.334488,4.63583E+18,-0.492264,-0.383708,-0.639257,0.449216,0
-9.272398,-0.315642,-1.515469,0.305336,0.008397,0.034181,39.039288,-11.560388,22.693574,4.63583E+18,0.647782,-0.195941,0.722306,0.142335,-9.411908,2.202896,-1.12138,0.026392,-0.033248,-0.015387,36.983951,-27.388469,-1.560386,4.63583E+18,0.370298,-0.521739,0.572181,0.513105,-9.496357,-1.92877,-1.264387,0.063094,0.030523,0.061338,36.781072,23.590724,10.237832,4.63583E+18,-0.492274,-0.384034,-0.639067,0.449196,0
-9.331703,-0.266814,-1.574764,0.296335,0.03235,0.033875,39.079377,-11.438337,22.782513,4.63583E+18,0.647833,-0.195717,0.722354,0.142166,-9.402482,2.263311,-1.116438,0.058098,-0.043983,-0.022863,37.066617,-27.434977,-1.613537,4.63583E+18,0.370725,-0.52158,0.572098,0.51305,-9.474955,-1.951175,-1.20135,0.057051,0.027948,0.065873,36.725897,23.730336,10.229804,4.63583E+18,-0.492309,-0.384356,-0.638876,0.449155,0
-9.474692,-0.211012,-1.649744,0.291757,0.032502,0.033723,39.002652,-11.462753,22.852259,4.63583E+18,0.647882,-0.195493,0.722404,0.142001,-9.343148,2.339337,-1.082597,0.078353,-0.048405,-0.027866,37.029539,-27.586406,-1.711196,4.63583E+18,0.371218,-0.521391,0.572041,0.51295,-9.461744,-1.953184,-1.185124,0.064453,0.031692,0.078966,36.708667,23.95622,10.308212,4.63583E+18,-0.492327,-0.384761,-0.638641,0.449123,0
-9.601997,-0.15172,-1.702062,0.28016,0.027619,0.036775,38.941616,-11.548205,22.799938,4.63583E+18,0.647932,-0.195299,0.722433,0.141892,-9.298183,2.365453,-1.036554,0.08802,-0.049135,-0.037911,36.946877,-27.493413,-1.808846,4.63583E+18,0.371754,-0.52121,0.571982,0.512812,-9.404726,-1.941982,-1.206523,0.066137,0.036945,0.094814,36.853294,24.053756,10.48329,4.63583E+18,-0.492357,-0.385222,-0.638388,0.449054,0
-9.704887,-0.130793,-1.752635,0.26841,0.012817,0.042726,38.917199,-11.584824,22.613339,4.63583E+18,0.64801,-0.195122,0.722417,0.141857,-9.299258,2.33054,-0.968878,0.095497,-0.049959,-0.046362,37.049906,-27.331938,-1.755718,4.63583E+18,0.372327,-0.521033,0.571919,0.512646,-9.366101,-1.940977,-1.186133,0.070145,0.043265,0.104953,36.944756,23.915195,10.498366,4.63583E+18,-0.492383,-0.385729,-0.638125,0.448964,0
-9.755461,-0.142997,-1.759612,0.264748,-0.007171,0.049897,38.831753,-11.502865,22.473829,4.63583E+18,0.648143,-0.194909,0.722355,0.141859,-9.368009,2.309983,-0.933329,0.1005,-0.051852,-0.056313,37.208604,-27.418266,-1.582667,4.63583E+18,0.372938,-0.520867,0.571844,0.512455,-9.407882,-1.963379,-1.195319,0.079318,0.038894,0.114567,36.817399,23.543669,10.330354,4.63583E+18,-0.49248,-0.386191,-0.637869,0.448824,0
-9.715358,-0.205775,-1.72648,0.268562,-0.014346,0.054171,38.795112,-11.450544,22.501714,4.63583E+18,0.648301,-0.194646,0.722286,0.141846,-9.425185,2.288354,-0.890071,0.106421,-0.052339,-0.063695,37.12229,-27.58637,-1.46275,4.63583E+18,0.373581,-0.520705,0.571766,0.512238,-9.456706,-1.942993,-1.151527,0.094811,0.039433,0.12124,36.805321,23.433061,10.326455,4.63583E+18,-0.492526,-0.386756,-0.637543,0.448751,0
-9.670011,-0.2424,-1.70555,0.272683,-0.005342,0.053102,38.901489,-11.447058,22.595895,4.63583E+18,0.64844,-0.194364,0.722248,0.141796,-9.38921,2.292207,-0.916623,0.098814,-0.05069,-0.06763,36.963598,-27.625353,-1.440474,4.63583E+18,0.374212,-0.520565,0.571667,0.51203,-9.483136,-1.940977,-1.125097,0.105933,0.046381,0.131568,36.872519,23.571601,10.40586,4.63583E+18,-0.492555,-0.387384,-0.637193,0.448674,0
-9.643848,-0.282506,-1.703801,0.272836,-0.000915,0.052949,39.018348,-11.438337,22.712712,4.63583E+18,0.648568,-0.194066,0.722228,0.141725,-9.375286,2.342104,-0.946608,0.083766,-0.033714,-0.065064,37.049887,-27.493438,-1.374516,4.63583E+18,0.374765,-0.520478,0.571569,0.511823,-9.485152,-1.929778,-1.179079,0.111715,0.052878,0.14029,36.878567,23.584703,10.233723,4.63583E+18,-0.492571,-0.38806,-0.636831,0.448586,0
-9.654301,-0.317392,-1.731696,0.264298,-0.008082,0.053561,39.00268,-11.413949,22.880131,4.63583E+18,0.648714,-0.193756,0.722191,0.141662,-9.384706,2.299507,-0.923917,0.08176,-0.02884,-0.066562,37.08609,-27.331986,-1.430384,4.63583E+18,0.375305,-0.520407,0.571469,0.51161,-9.485152,-1.951169,-1.206517,0.118035,0.056347,0.145895,36.800169,23.517507,10.049604,4.63583E+18,-0.492576,-0.388772,-0.636454,0.448498,0
-9.683956,-0.306937,-1.785747,0.236679,-0.021515,0.053406,38.941616,-11.331974,22.918553,4.63583E+18,0.648884,-0.193486,0.72211,0.141668,-9.406333,2.14149,-0.953234,0.092138,-0.035434,-0.07059,37.020155,-27.295753,-1.593975,4.63583E+18,0.37589,-0.520317,0.571372,0.511381,-9.49635,-1.930791,-1.21973,0.124443,0.059551,0.148296,36.860296,23.57864,10.034486,4.63583E+18,-0.492549,-0.389534,-0.636052,0.448437,0
-9.68571,-0.284255,-1.876431,0.214237,-0.020299,0.063626,38.941616,-11.30403,22.815662,4.63583E+18,0.649027,-0.193239,0.722029,0.141762,-9.393069,2.109093,-0.983224,0.104132,-0.036561,-0.070742,37.000641,-27.352271,-1.635792,4.63583E+18,0.376505,-0.520205,0.571298,0.511125,-9.486162,-1.839186,-1.198344,0.125953,0.062756,0.154351,37.02313,23.595901,10.202455,4.63583E+18,-0.492522,-0.390321,-0.635644,0.448361,0
-9.65085,-0.28253,-1.935735,0.2336,-0.006871,0.076143,38.917238,-11.340714,22.778979,4.63583E+18,0.649137,-0.19291,0.722007,0.141821,-9.378075,2.149555,-0.941707,0.105991,-0.036317,-0.067201,37.12308,-27.312487,-1.494515,4.63583E+18,0.377117,-0.520079,0.571238,0.51087,-9.462756,-1.819912,-1.173929,0.123102,0.060081,0.16076,36.891688,23.518525,10.217597,4.63583E+18,-0.492517,-0.391114,-0.635225,0.448269,0
-9.614194,-0.211068,-1.949701,0.267339,0.004572,0.075383,38.856163,-11.230869,22.840052,4.63583E+18,0.649245,-0.192467,0.722044,0.14174,-9.384704,2.16071,-0.880672,0.104098,-0.038789,-0.067873,37.093408,-27.229827,-1.452681,4.63583E+18,0.377731,-0.519953,0.571168,0.510622,-9.516721,-1.89728,-1.194304,0.119898,0.059816,0.160311,36.744203,23.433081,10.318367,4.63583E+18,-0.492517,-0.391898,-0.634813,0.44817,0
-9.673435,-0.062831,-1.940977,0.267656,0.007794,0.06669,38.880543,-11.08784,22.812189,4.63583E+18,0.649352,-0.192025,0.722091,0.141609,-9.434584,2.236056,-0.866726,0.095369,-0.033753,-0.069186,37.139811,-27.266811,-1.593953,4.63583E+18,0.378315,-0.519855,0.571082,0.510385,-9.532971,-1.915552,-1.185129,0.119633,0.056877,0.164141,36.799256,23.358827,10.327463,4.63583E+18,-0.492532,-0.392685,-0.634388,0.448066,0
-9.799017,0.027896,-1.940977,0.2498,-0.032921,0.05082,38.941616,-11.035493,22.742392,4.63583E+18,0.649578,-0.191646,0.722007,0.141514,-9.420279,2.305455,-0.847892,0.087161,-0.023805,-0.070254,37.225256,-27.415385,-1.711128,4.63583E+18,0.378859,-0.519795,0.570992,0.510145,-9.500393,-1.882973,-1.172922,0.118653,0.059551,0.164495,37.163611,23.218404,10.226694,4.63583E+18,-0.492617,-0.393369,-0.634036,0.447871,0
-9.872268,0.036622,-1.951424,0.239878,-0.105253,0.038001,38.96251,-11.056386,22.742392,4.63583E+18,0.650022,-0.191285,0.721712,0.141468,-9.421323,2.366484,-0.804649,0.091219,-0.027954,-0.072145,37.11297,-27.266139,-1.592218,4.63583E+18,0.379426,-0.519722,0.5709,0.5099,-9.508555,-1.835159,-1.160715,0.117585,0.056878,0.164495,37.207152,23.139103,10.217597,4.63583E+18,-0.492653,-0.394125,-0.63363,0.44774,0
-9.90721,0.01225,-1.967154,0.237889,-0.174236,0.026098,38.993971,-11.087847,22.766764,4.63583E+18,0.650678,-0.190916,0.721223,0.141445,-9.49003,2.361611,-0.7464,0.098696,-0.029908,-0.073458,37.073883,-27.210302,-1.399679,4.63583E+18,0.380018,-0.519631,0.570822,0.509639,-9.543152,-1.78633,-1.170898,0.113578,0.055632,0.163515,37.062629,23.2002,10.307158,4.63583E+18,-0.492677,-0.394895,-0.633215,0.447623,0
-9.835736,-0.059272,-1.927054,0.240338,-0.209052,0.017704,38.941616,-11.035493,22.827845,4.63583E+18,0.651449,-0.19052,0.72064,0.1414,-9.528399,2.214796,-0.788938,0.107821,-0.033204,-0.072878,37.328104,-27.332704,-1.345606,4.63583E+18,0.380635,-0.519518,0.570758,0.509365,-9.56858,-1.759891,-1.171911,0.107346,0.051625,0.158529,37.195005,23.273444,10.315256,4.63583E+18,-0.492713,-0.395631,-0.63281,0.447506,0
-9.738077,-0.095894,-1.867783,0.228292,-0.201284,0.01419,38.962501,-11.011128,22.799999,4.63583E+18,0.652191,-0.190158,0.720071,0.141365,-9.571643,2.097596,-0.871595,0.114962,-0.039948,-0.068515,37.346992,-27.368998,-1.276908,4.63583E+18,0.381271,-0.519372,0.570705,0.509099,-9.592989,-1.690711,-1.194296,0.09898,0.051271,0.151231,37.342473,23.145209,10.136176,4.63583E+18,-0.492789,-0.396273,-0.632468,0.447338,0
-9.619545,-0.122074,-1.813655,0.20723,-0.178545,0.015563,39.0601,-10.904802,22.674507,4.63583E+18,0.652848,-0.189848,0.719557,0.141367,-9.582811,2.094089,-0.85348,0.107366,-0.039186,-0.060703,37.066614,-27.114787,-1.257362,4.63583E+18,0.38187,-0.51922,0.570652,0.508863,-9.583828,-1.673431,-1.274662,0.100228,0.048333,0.143754,37.287509,22.987548,10.131128,4.63583E+18,-0.492834,-0.396923,-0.63211,0.447218,0
-9.455622,-0.122074,-1.841545,0.198061,-0.156128,0.018916,39.14921,-10.815692,22.507041,4.63583E+18,0.653429,-0.189556,0.719104,0.141381,-9.563983,2.13733,-0.776412,0.090675,-0.03104,-0.050511,37.05433,-26.9735,-1.407988,4.63583E+18,0.382391,-0.519088,0.5706,0.508666,-9.549235,-1.784335,-1.34893,0.106282,0.048067,0.128442,37.135914,23.041485,10.042608,4.63583E+18,-0.492823,-0.39757,-0.631749,0.447166,0
-9.319558,-0.108157,-1.871212,0.204011,-0.121186,0.024413,39.067229,-10.897672,22.465042,4.63583E+18,0.653905,-0.189258,0.718752,0.141372,-9.511328,2.110848,-0.747445,0.083225,-0.028016,-0.043948,37.13978,-27.151636,-1.302061,4.63583E+18,0.382876,-0.518954,0.570553,0.508489,-9.467853,-1.839252,-1.388594,0.108773,0.0559,0.121234,37.268195,23.193059,10.112821,4.63583E+18,-0.492773,-0.398216,-0.631412,0.447121,0
-9.251439,-0.066288,-1.876462,0.208748,-0.084407,0.029139,38.993991,-10.97439,22.566172,4.63583E+18,0.654271,-0.188949,0.718508,0.141329,-9.49736,2.080846,-0.735238,0.0806,-0.026124,-0.035313,37.102852,-27.398577,-1.106743,4.63583E+18,0.383334,-0.518805,0.570525,0.508328,-9.539073,-1.888081,-1.514742,0.107972,0.032132,0.096221,37.426889,23.071984,10.119937,4.63583E+18,-0.492778,-0.398697,-0.631103,0.447123,0
-9.308917,-0.05926,-1.867733,0.201745,-0.061804,0.040116,38.986813,-10.986818,22.66907,4.63583E+18,0.654559,-0.188626,0.718334,0.141308,-9.469122,2.094084,-0.779507,0.058697,-0.0174,-0.029818,37.142567,-27.266198,-1.438549,4.63583E+18,0.383712,-0.518697,0.570475,0.508209,-9.624525,-1.92572,-1.44759,0.118654,0.02795,0.080288,37.294627,22.981449,10.041602,4.63583E+18,-0.492709,-0.399203,-0.630758,0.447235,0
-9.418793,-0.085452,-1.878166,0.180691,-0.063617,0.055991,39.100311,-10.819378,22.698884,4.63583E+18,0.654833,-0.188279,0.718165,0.141365,-9.441913,2.156147,-0.83113,0.03175,-0.010013,-0.026369,37.281695,-27.07853,-1.691524,4.63583E+18,0.384004,-0.518642,0.570385,0.508146,-9.631641,-1.794497,-1.250254,0.110821,0.021897,0.075127,37.057622,22.974333,9.95616,4.63583E+18,-0.492658,-0.399669,-0.630424,0.447346,0
-9.525179,-0.081974,-1.918264,0.157794,-0.086184,0.066374,39.051629,-10.705893,22.620317,4.63583E+18,0.655152,-0.187931,0.717934,0.14152,-9.408086,2.219979,-0.832899,0.014929,-0.006074,-0.027283,37.252144,-27.105284,-1.366372,4.63583E+18,0.384252,-0.518623,0.570265,0.508112,-9.609263,-1.558496,-1.19938,0.112956,0.025279,0.078687,37.19391,22.974333,10.027359,4.63583E+18,-0.4926,-0.400154,-0.630087,0.447451,0
-9.595019,-0.080196,-1.95666,0.144511,-0.123409,0.068213,38.932885,-10.751079,22.651601,4.63583E+18,0.655572,-0.187581,0.717598,0.141741,-9.380878,2.252777,-0.858337,-0.00472,-0.0004,-0.028595,37.298457,-27.124849,-1.106784,4.63583E+18,0.38445,-0.518648,0.570112,0.508109,-9.439387,-1.694783,-1.229893,0.139658,0.037384,0.083938,37.353627,22.907198,10.202325,4.63583E+18,-0.492476,-0.40073,-0.629716,0.447594,0
-9.584596,-0.09071,-1.961917,0.14388,-0.160189,0.062421,39.011105,-10.88891,22.75798,4.63583E+18,0.656104,-0.187229,0.717158,0.141978,-9.375286,2.277191,-0.857315,-0.03514,0.014243,-0.02637,37.506248,-27.058974,-1.287904,4.63583E+18,0.384542,-0.518746,0.569923,0.508151,-9.435302,-1.764969,-1.165828,0.157725,0.031602,0.10396,37.366863,22.901089,10.217597,4.63583E+18,-0.492373,-0.401385,-0.629266,0.447753,0
-9.534083,-0.073244,-1.946238,0.158676,-0.185232,0.052504,39.206605,-10.880573,22.796584,4.63583E+18,0.656729,-0.186838,0.716653,0.142152,-9.384697,2.207498,-0.750999,-0.059195,0.023923,-0.030576,37.628056,-27.227615,-1.496184,4.63583E+18,0.384567,-0.518915,0.569687,0.508224,-9.581763,-1.781261,-1.059014,0.181669,0.029018,0.114557,37.288548,22.968214,10.049782,4.63583E+18,-0.492256,-0.402111,-0.628749,0.447958,0
-9.459052,-0.066298,-1.925296,0.173335,-0.190148,0.041519,39.283323,-10.705893,22.717978,4.63583E+18,0.65739,-0.186411,0.716141,0.142235,-9.396903,2.138077,-0.748466,-0.083026,0.029752,-0.032868,37.459439,-27.283546,-1.538133,4.63583E+18,0.38453,-0.519141,0.569405,0.508338,-9.617394,-1.950098,-1.329532,0.289446,0.03765,0.130044,37.28141,22.907206,9.85548,4.63583E+18,-0.491964,-0.403114,-0.628021,0.448398,0
-9.413695,-0.06967,-1.913089,0.177625,-0.170939,0.029162,39.3653,-10.751047,22.717978,4.63583E+18,0.658004,-0.186019,0.715675,0.142256,-9.456157,2.161726,-0.775678,-0.110063,0.044149,-0.028996,37.271752,-27.161224,-1.472267,4.63583E+18,0.384393,-0.51943,0.569097,0.508491,-9.529942,-1.943019,-1.343835,0.256992,0.023771,0.153895,37.28141,22.822784,9.928659,4.63583E+18,-0.491806,-0.404086,-0.627284,0.448726,0
-9.390966,-0.146385,-1.907828,0.169393,-0.14012,0.013453,39.396867,-10.843751,22.66241,4.63583E+18,0.658525,-0.185723,0.715275,0.142243,-9.510582,2.125871,-0.818911,-0.114781,0.040657,-0.026949,37.298445,-27.058984,-1.377406,4.63583E+18,0.384252,-0.519711,0.568781,0.508665,-9.409911,-1.471151,-0.996038,0.244342,0.001876,0.195102,37.426832,22.893941,10.026317,4.63583E+18,-0.491803,-0.405099,-0.626457,0.448973,0
-9.424004,-0.235301,-1.895731,0.153539,-0.111871,-0.00684,39.295853,-10.721906,22.494884,4.63583E+18,0.658964,-0.185535,0.714931,0.14219,-9.540591,2.102472,-0.943002,-0.141458,0.041746,-0.022588,37.318031,-27.105255,-1.430288,4.63583E+18,0.384041,-0.520026,0.568419,0.508906,-9.321396,-1.842161,-0.874894,0.271923,0.029364,0.226082,37.585527,22.901089,9.933808,4.63583E+18,-0.491738,-0.406299,-0.62558,0.449182,0
-9.505981,-0.308657,-1.836375,0.128521,-0.101013,-0.023793,39.197858,-10.568025,22.452772,4.63583E+18,0.659364,-0.185449,0.714594,0.142136,-9.517969,2.250181,-0.995406,-0.193988,0.055895,-0.015601,37.195744,-27.059003,-1.527935,4.63583E+18,0.383667,-0.520438,0.567983,0.509253,-9.325434,-2.0589,-0.810801,0.245153,0.046725,0.259902,37.744208,22.621464,9.756844,4.63583E+18,-0.491851,-0.407402,-0.624837,0.449094,0
-9.575749,-0.313922,-1.846667,0.105454,-0.10315,-0.027175,39.283303,-10.669027,22.522659,4.63583E+18,0.659753,-0.185442,0.714234,0.142149,-9.509567,2.238546,-0.925747,-0.20969,0.057347,-0.00977,37.149929,-26.973546,-1.47508,4.63583E+18,0.383247,-0.520861,0.567531,0.509641,-9.538968,-1.952225,-0.727395,0.227789,0.063725,0.295061,37.7575,22.38339,9.663214,4.63583E+18,-0.491914,-0.408731,-0.62401,0.448967,0
-9.640256,-0.312126,-1.923503,0.100856,-0.101642,-0.016347,39.340989,-10.767051,22.494895,4.63583E+18,0.660125,-0.185425,0.713882,0.142215,-9.575415,2.033612,-0.978602,-0.197256,0.043442,-0.00443,37.278823,-26.953947,-1.377427,4.63583E+18,0.382876,-0.521219,0.567097,0.510038,-9.625506,-1.952162,-0.999859,0.210789,0.07788,0.324438,37.612094,22.431073,9.566577,4.63583E+18,-0.492005,-0.41015,-0.623177,0.44873,0
-9.699619,-0.3296,-1.940977,0.105286,-0.089443,-0.00732,39.401653,-10.636492,22.366009,4.63583E+18,0.660461,-0.185362,0.713577,0.14227,-9.566799,2.062257,-1.236168,-0.24848,0.037052,-0.002381,37.383877,-27.085636,-1.430273,4.63583E+18,0.382402,-0.521641,0.566545,0.510573,-9.631641,-1.930817,-1.237909,0.170215,0.081,0.351317,37.453416,22.649694,9.737333,4.63583E+18,-0.492207,-0.41156,-0.622379,0.448325,0
-9.696279,-0.353883,-1.954853,0.109243,-0.074636,-0.01022,39.621497,-10.416647,22.214005,4.63583E+18,0.660761,-0.185283,0.713318,0.142275,-9.40784,2.510908,-1.663765,-0.443569,0.064311,-0.007076,37.337615,-27.058981,-1.527959,4.63583E+18,0.38145,-0.522442,0.565612,0.511502,-9.598091,-1.839302,-1.290913,0.113789,0.06748,0.366278,37.507207,22.669147,9.831999,4.63583E+18,-0.492567,-0.412866,-0.621631,0.447765,0
-9.623035,-0.435866,-2.01409,0.119002,-0.068957,-0.011143,39.714283,-10.323862,22.236488,4.63583E+18,0.661055,-0.185167,0.713086,0.142228,-9.240752,3.163742,-2.099413,-0.78239,0.074281,-0.045596,37.252163,-26.973531,-1.55034,4.63583E+18,0.37982,-0.523885,0.563888,0.51314,-9.650936,-1.484425,-1.349902,0.124608,0.066225,0.382121,37.73702,22.389562,9.7497,4.63583E+18,-0.492939,-0.414232,-0.620833,0.447202,0
-9.570604,-0.495233,-2.085664,0.137283,-0.085551,-0.009613,39.589014,-10.400573,22.263105,4.63583E+18,0.66141,-0.184989,0.712818,0.142148,-9.157335,3.028724,-1.491631,-0.85828,0.000672,-0.106011,37.176124,-26.953947,-1.70089,4.63583E+18,0.378321,-0.525428,0.561745,0.515016,-9.633695,-1.273789,-1.388564,0.099627,0.06329,0.3864,37.914029,22.15153,9.830953,4.63583E+18,-0.493368,-0.415551,-0.620065,0.446569,0
-9.577539,-0.530049,-2.094543,0.172055,-0.125493,-0.009613,39.405499,-10.461744,22.076542,4.63583E+18,0.661906,-0.184705,0.712459,0.142009,-9.162164,1.530581,-0.604304,-0.591301,-0.051826,-0.123994,37.281657,-26.888081,-1.962074,4.63583E+18,0.377563,-0.526477,0.560045,0.51635,-9.542187,-1.324453,-1.380462,0.037518,0.061064,0.377864,38.073765,22.064931,9.839167,4.63583E+18,-0.493893,-0.416715,-0.619423,0.445796,0
-9.598487,-0.587618,-2.026571,0.212803,-0.178452,-0.00931,39.454044,-10.461744,21.960977,4.63583E+18,0.66259,-0.184279,0.711977,0.141793,-9.402937,1.101467,-0.750907,-0.350556,-0.097102,-0.128266,37.506173,-26.736796,-2.252199,4.63583E+18,0.377446,-0.527057,0.55878,0.517214,-9.5228,-1.420062,-1.278799,0.002692,0.054035,0.370207,38.087097,22.058777,9.839167,4.63583E+18,-0.494481,-0.417773,-0.618842,0.44496,0
-9.600291,-0.626045,-1.954989,0.243671,-0.219091,-0.008242,39.576401,-10.437472,22.049896,4.63583E+18,0.663418,-0.183728,0.711404,0.141511,-9.623466,1.982976,-0.76985,-0.224909,-0.135047,-0.148179,37.56218,-26.697592,-2.394667,4.63583E+18,0.377737,-0.527401,0.557682,0.517835,-9.532954,-1.361191,-1.11306,0.008804,0.058298,0.365666,38.23243,21.991702,9.749733,4.63583E+18,-0.495037,-0.418838,-0.618265,0.44414,0
-9.562009,-0.669456,-1.897566,0.247532,-0.220721,-0.008994,39.552132,-10.331221,22.092077,4.63583E+18,0.664256,-0.183149,0.710833,0.1412,-9.3014,2.66006,-0.772872,-0.195295,-0.11597,-0.182621,37.505741,-26.829285,-2.482913,4.63583E+18,0.378122,-0.527819,0.556602,0.51829,-9.623414,-1.120263,-1.121024,0.025264,0.066573,0.35259,38.245796,21.985533,9.741508,4.63583E+18,-0.495518,-0.419918,-0.617697,0.443375,0
-9.488773,-0.815775,-1.8293,0.240609,-0.178001,-0.006146,39.556798,-10.193337,21.990965,4.63583E+18,0.664962,-0.182591,0.710381,0.140873,-9.060485,3.131326,-0.837712,-0.21638,-0.079076,-0.223298,37.479528,-26.670959,-2.436673,4.63583E+18,0.378463,-0.528443,0.555444,0.518649,-9.676357,-0.930981,-1.223692,0.075612,0.076097,0.343595,38.245796,21.840207,9.741508,4.63583E+18,-0.495867,-0.421095,-0.61707,0.44274,0
-9.425928,-0.97478,-1.890175,0.257237,-0.144676,0.01432,39.726354,-10.132145,21.967729,4.63583E+18,0.66557,-0.181938,0.710049,0.140521,-9.18118,3.122085,-0.882738,-0.239704,-0.057329,-0.269071,37.533166,-26.489856,-2.341814,4.63583E+18,0.378802,-0.529252,0.55417,0.518939,-9.658113,-0.74787,-1.288843,0.068373,0.072016,0.329181,38.256975,21.46911,9.83094,4.63583E+18,-0.496212,-0.422212,-0.616472,0.442122,0
-9.403166,-1.001007,-1.987996,0.280552,-0.135365,0.023802,39.710837,-10.132145,22.163057,4.63583E+18,0.666163,-0.181185,0.709766,0.140109,-9.275829,2.712216,-0.815889,-0.233083,-0.032831,-0.310308,37.615818,-26.509882,-2.394658,4.63583E+18,0.37919,-0.530195,0.552859,0.519091,-9.667234,-0.643023,-1.260452,0.025237,0.058851,0.315207,38.336245,21.223825,9.839167,4.63583E+18,-0.49664,-0.423178,-0.61595,0.441445,0
-9.429229,-1.021792,-2.045399,0.320805,-0.13258,0.022446,39.673895,-10.11136,22.244034,4.63583E+18,0.666779,-0.180319,0.709516,0.139565,-9.308645,2.618987,-0.802887,-0.217307,-0.019297,-0.353941,37.757694,-26.46085,-2.567551,4.63583E+18,0.379674,-0.531242,0.551504,0.519108,-9.634727,-1.059583,-1.190289,0.013538,0.066483,0.302298,38.410527,21.427838,9.928599,4.63583E+18,-0.497044,-0.4241,-0.615487,0.440751,0
-9.511044,-1.081179,-2.137942,0.368581,-0.150997,0.015272,39.755878,-10.034655,22.0954,4.63583E+18,0.667488,-0.17933,0.709235,0.138875,-9.276629,2.90674,-0.721044,-0.232557,0.004306,-0.407854,37.916384,-26.253137,-2.753459,4.63583E+18,0.380183,-0.532488,0.55003,0.519023,-9.586936,-1.467485,-1.172942,0.03531,0.088808,0.293394,38.416698,21.515466,10.01506,4.63583E+18,-0.497335,-0.425084,-0.615046,0.440091,0
-9.638404,-1.098666,-2.152133,0.412666,-0.191097,0.009166,39.763308,-9.973449,22.150827,4.63583E+18,0.66835,-0.178205,0.708865,0.138061,-9.256014,3.037839,-0.592367,-0.277698,0.033724,-0.471049,38.018652,-26.197088,-2.795495,4.63583E+18,0.38066,-0.534011,0.548363,0.518872,-9.560459,-1.467982,-1.160735,0.069656,0.11524,0.290717,38.506108,21.164018,10.033454,4.63583E+18,-0.497491,-0.42618,-0.6146,0.439477,0
-9.734409,-1.084814,-2.065042,0.45741,-0.247371,0.004129,39.649647,-9.949207,22.263013,4.63583E+18,0.669414,-0.17693,0.708361,0.137136,-9.234404,3.333966,-0.570944,-0.356118,0.062806,-0.551834,37.972441,-26.13126,-2.870726,4.63583E+18,0.381069,-0.535901,0.54639,0.518705,-9.603101,-1.286071,-1.204408,0.103927,0.132165,0.290536,38.514359,20.91867,9.945077,4.63583E+18,-0.497542,-0.427377,-0.614125,0.43892,0
-9.781593,-1.035984,-1.922189,0.482932,-0.303597,0.003492,39.739688,-9.842976,22.078776,4.63583E+18,0.670659,-0.175551,0.707711,0.136176,-9.134762,3.540318,-0.658379,-0.440167,0.100696,-0.637284,37.886994,-25.857741,-2.902558,4.63583E+18,0.381386,-0.538195,0.5441,0.518503,-9.64075,-1.168997,-1.186183,0.134193,0.138407,0.286625,38.581405,21.044345,9.847428,4.63583E+18,-0.497514,-0.428637,-0.613615,0.438437,0
-9.748785,-0.983693,-1.699176,0.493166,-0.323664,0.014764,39.991277,-9.774316,21.765976,4.63583E+18,0.671958,-0.174109,0.707014,0.135241,-9.078512,3.426313,-0.758843,-0.488102,0.146223,-0.730141,38.168278,-25.584563,-2.905362,4.63583E+18,0.381689,-0.540868,0.541565,0.518154,-9.576809,-1.070317,-1.217638,0.155298,0.147658,0.278442,38.654642,21.124811,9.839167,4.63583E+18,-0.497409,-0.429935,-0.613098,0.438008,0
-9.588468,-0.908819,-1.416617,0.501997,-0.303468,0.034738,40.004033,-9.867229,21.704763,4.63583E+18,0.673185,-0.172607,0.706387,0.134336,-9.22052,3.155821,-0.659058,-0.476124,0.209665,-0.830124,38.577644,-25.394063,-2.905362,4.63583E+18,0.382087,-0.543875,0.538922,0.517468,-9.525906,-0.972648,-1.276613,0.187329,0.157272,0.266963,38.672021,20.851653,9.928563,4.63583E+18,-0.497199,-0.431287,-0.612563,0.437666,0
-9.420845,-0.798958,-1.194881,0.514831,-0.24447,0.059607,39.9508,-9.697091,21.642472,4.63583E+18,0.674233,-0.171013,0.705951,0.133407,-9.425229,3.126075,-0.434566,-0.4231,0.278022,-0.941463,38.78586,-25.157365,-2.980567,4.63583E+18,0.382685,-0.547184,0.536242,0.51632,-9.499428,-0.975558,-1.181218,0.214572,0.176661,0.259125,38.538975,20.602365,10.026213,4.63583E+18,-0.496875,-0.43271,-0.61203,0.437374,0
-9.361254,-0.716776,-1.122892,0.519582,-0.173172,0.087059,40.146501,-9.354709,21.536942,4.63583E+18,0.675061,-0.169335,0.705742,0.132463,-9.623354,3.344115,-0.472435,-0.322733,0.327465,-1.059045,38.998153,-24.778801,-3.078226,4.63583E+18,0.383647,-0.550689,0.533578,0.514637,-9.396801,-0.965419,-1.093699,0.271582,0.195001,0.258492,38.526566,20.659894,10.034486,4.63583E+18,-0.496399,-0.434281,-0.611432,0.437195,0
-9.418622,-0.704571,-1.23254,0.511394,-0.119116,0.120914,40.181685,-9.30672,21.782279,4.63583E+18,0.675705,-0.167592,0.705706,0.131584,-9.743468,3.697283,-0.491103,-0.185901,0.361389,-1.181722,39.230094,-24.297946,-3.034876,4.63583E+18,0.385102,-0.554307,0.530967,0.512362,-9.331627,-1.020251,-1.119978,0.353885,0.22098,0.252626,38.738856,20.745346,10.112697,4.63583E+18,-0.495695,-0.436053,-0.610746,0.437189,0
-9.528489,-0.702739,-1.334269,0.497276,-0.078082,0.161486,40.08952,-9.452193,21.987976,4.63583E+18,0.676191,-0.165798,0.705803,0.130837,-9.822326,3.840698,-0.38489,-0.040056,0.392365,-1.308095,39.396231,-23.675235,-2.799016,4.63583E+18,0.387085,-0.558018,0.528411,0.509474,-9.203581,-1.047763,-1.190104,0.433363,0.253543,0.255015,38.914892,20.685562,10.209301,4.63583E+18,-0.494765,-0.438052,-0.609976,0.437319,0
-9.648726,-0.747903,-1.267944,0.53019,-0.042904,0.203784,39.963579,-9.375492,21.722674,4.63583E+18,0.676569,-0.163809,0.706044,0.130092,-9.933172,3.716531,-0.213006,0.107925,0.432389,-1.433559,39.674329,-23.26045,-2.59345,4.63583E+18,0.389577,-0.56183,0.525923,0.505945,-9.203346,-1.061008,-1.106953,0.51339,0.290568,0.243557,38.99644,20.67934,10.038851,4.63583E+18,-0.493571,-0.440252,-0.609153,0.437606,0
-9.840147,-0.817896,-1.236405,0.625673,-0.06671,0.233566,39.95483,-9.293505,21.582689,4.63583E+18,0.677061,-0.161448,0.706286,0.129164,-10.102232,3.589834,0.129878,0.276123,0.466064,-1.560988,40.048088,-22.993871,-2.551347,4.63583E+18,0.392641,-0.565695,0.523525,0.501741,-9.383107,-1.028533,-0.931111,0.59838,0.325995,0.225854,38.913291,20.67934,9.76536,4.63583E+18,-0.492095,-0.442642,-0.608276,0.438076,0
-10.110759,-0.776409,-1.234783,0.714318,-0.208654,0.249181,39.979031,-9.261748,21.610347,4.63583E+18,0.678015,-0.158709,0.706183,0.128111,-10.285322,3.62095,0.60505,0.431297,0.507727,-1.678461,40.316505,-22.486608,-2.335194,4.63583E+18,0.396207,-0.569617,0.521217,0.49688,-9.477892,-0.813188,-0.937896,0.680899,0.367108,0.21356,38.837972,20.601149,9.830869,4.63583E+18,-0.490335,-0.445241,-0.60735,0.438701,0
-10.200529,-0.616097,-1.167051,0.763895,-0.432012,0.252971,40.064482,-9.293508,21.649236,4.63583E+18,0.679649,-0.155697,0.705471,0.127069,-10.994695,3.111539,0.504091,0.548764,0.53532,-1.77877,40.416871,-21.844284,-1.988648,4.63583E+18,0.400175,-0.573583,0.51893,0.491501,-9.630348,-0.782312,-1.118672,0.784638,0.396057,0.195948,38.764738,20.593889,9.928518,4.63583E+18,-0.48827,-0.448055,-0.606318,0.439565,0
-9.960762,-0.413892,-1.006758,0.824553,-0.648655,0.26093,40.191388,-9.216816,21.487553,4.63583E+18,0.681943,-0.152368,0.704173,0.126007,-11.91772,2.785055,-0.16191,0.679658,0.502662,-1.834607,40.656435,-21.175748,-1.688235,4.63583E+18,0.404614,-0.577346,0.516688,0.485791,-9.375799,-1.004649,-1.313989,0.846406,0.422851,0.180721,38.691493,20.593889,10.026177,4.63583E+18,-0.485987,-0.450998,-0.605247,0.44056,0
-9.467424,-0.280539,-0.839088,0.909335,-0.811307,0.256255,40.402586,-9.110641,21.19459,4.63583E+18,0.684755,-0.148718,0.702441,0.124781,-12.181134,4.22827,-2.02352,0.754134,0.518476,-1.834827,41.156069,-20.701717,-1.473264,4.63583E+18,0.409169,-0.580972,0.514585,0.479848,-8.982302,-0.366465,-1.308269,0.807337,0.431964,0.152085,38.897468,20.526877,9.945136,4.63583E+18,-0.483694,-0.4538,-0.604311,0.44149,0
-8.961369,-0.376361,-0.7587,1.014725,-0.916917,0.215258,40.585481,-8.976124,20.953428,4.63583E+18,0.687942,-0.144821,0.70042,0.123186,-12.12003,6.64856,-5.016828,0.662519,0.644984,-1.809676,41.586105,-20.155097,-1.136995,4.63583E+18,0.413151,-0.58491,0.512541,0.473801,-9.19374,0.521303,-1.127492,0.735816,0.410123,0.115336,38.917202,20.520645,9.847476,4.63583E+18,-0.481517,-0.456318,-0.603524,0.44235,0
-8.613597,-0.418975,-0.684083,1.146901,-0.957101,0.094348,40.829608,-8.923612,20.847025,4.63583E+18,0.691363,-0.140874,0.698254,0.120885,-14.145656,7.013509,-6.062536,0.563866,0.700962,-1.93292,41.901555,-19.315513,-0.692825,4.63583E+18,0.416987,-0.589345,0.510062,0.46758,-9.406435,0.050959,-1.367724,0.656259,0.373832,0.075024,38.772027,20.732827,9.928507,4.63583E+18,-0.479502,-0.458504,-0.602881,0.443155,0
-8.546553,-0.284461,-0.406114,1.305466,-0.90981,-0.087554,41.046116,-8.854533,20.690652,4.63583E+18,0.694799,-0.13703,0.696169,0.117581,-17.229558,5.179808,-5.786138,0.61356,0.589563,-1.993996,42.203921,-18.65364,-0.29472,4.63583E+18,0.421269,-0.593556,0.507298,0.461381,-9.558123,-0.859881,-1.883005,0.582988,0.325699,0.02564,38.680335,20.886593,10.026165,4.63583E+18,-0.477653,-0.460325,-0.602367,0.443963,0
-8.673917,-0.345886,0.015416,1.44293,-0.767886,-0.228596,41.126987,-8.562066,20.385493,4.63583E+18,0.69794,-0.133264,0.694451,0.113391,-16.550698,3.786708,-5.046997,0.855608,0.459835,-1.986666,42.509105,-18.07708,0.074315,4.63583E+18,0.426375,-0.597025,0.50475,0.454964,-10.117801,-1.129814,-2.17445,0.547486,0.289267,0.00182,38.751226,20.832071,9.945148,4.63583E+18,-0.475915,-0.461946,-0.601887,0.444795,0
-8.742351,-0.64169,-0.018122,1.527785,-0.605264,-0.268062,41.110586,-8.126313,20.132105,4.63583E+18,0.700646,-0.129428,0.693196,0.108738,-15.412154,4.617464,-4.698875,1.006461,0.383865,-2.05727,42.682739,-17.362552,0.290191,4.63583E+18,0.432111,-0.600177,0.502133,0.448253,-10.503786,-0.991154,-2.309005,0.50567,0.258904,0.014657,38.814342,20.82583,9.668811,4.63583E+18,-0.474355,-0.463457,-0.601396,0.445554,0
-8.72299,-0.586711,-0.377421,1.541514,-0.437924,-0.287244,41.2244,-7.707079,20.068719,4.63583E+18,0.702853,-0.125668,0.692396,0.103887,-14.118034,5.347893,-4.669806,1.051556,0.410673,-2.024618,42.882776,-16.549306,0.39535,4.63583E+18,0.4378,-0.603173,0.499681,0.441398,-10.467993,-0.976592,-2.285909,0.432661,0.214344,0.016022,38.674386,20.82583,9.655015,4.63583E+18,-0.473048,-0.464742,-0.600947,0.44621,0
-8.819907,-0.364867,-0.777939,1.468402,-0.153947,-0.306278,41.179518,-7.483633,20.209415,4.63583E+18,0.704182,-0.122301,0.692358,0.099046,-13.127446,5.534669,-4.778761,0.991714,0.466548,-1.947297,43.356132,-15.71918,0.706242,4.63583E+18,0.44304,-0.606165,0.49737,0.434629,-10.539905,-1.110582,-2.249287,0.329467,0.171345,0.008206,38.605016,20.892825,9.91287,4.63583E+18,-0.472031,-0.465722,-0.600619,0.446706,0
-9.14207,-0.278917,-1.354836,1.362503,0.201178,-0.282634,41.110572,-7.312744,20.407327,4.63583E+18,0.704397,-0.119331,0.693305,0.094408,-12.072958,4.474275,-4.659443,0.92024,0.514114,-1.824705,43.651828,-15.076995,1.075245,4.63583E+18,0.447745,-0.609067,0.495292,0.428075,-10.279217,-1.368729,-2.290825,0.2501,0.144251,0.011385,38.666804,20.977235,10.014987,4.63583E+18,-0.471242,-0.466503,-0.600378,0.447049,0
-9.576232,-0.229254,-2.015634,1.27369,0.498547,-0.215245,41.245109,-7.052104,20.419279,4.63583E+18,0.703659,-0.11655,0.695101,0.090081,-10.595836,3.878156,-4.163593,0.839801,0.561441,-1.675084,43.815204,-14.500448,1.525983,4.63583E+18,0.451851,-0.611846,0.493507,0.421812,-10.042119,-1.536765,-2.149871,0.191769,0.120575,0.013703,38.673054,21.051504,9.944136,4.63583E+18,-0.470628,-0.46713,-0.600195,0.447287,0
-10.107239,0.073797,-2.742464,1.223027,0.660189,-0.125919,41.163072,-6.56039,20.630542,4.63583E+18,0.702376,-0.113694,0.697378,0.086057,-9.037048,3.805894,-3.342843,0.866357,0.511715,-1.408687,44.074396,-13.851566,1.992679,4.63583E+18,0.455633,-0.613902,0.492327,0.416097,-9.865979,-1.427534,-1.935339,0.146874,0.104888,0.017793,38.594903,21.05777,9.936827,4.63583E+18,-0.470148,-0.46765,-0.600056,0.447435,0
-10.925805,0.564398,-3.437676,1.166958,0.706745,-0.026779,40.890534,-6.246196,21.14372,4.63583E+18,0.700876,-0.110707,0.6998,0.082438,-6.791943,6.024903,-1.418814,0.937672,0.480337,-0.972166,44.198314,-13.443159,2.099673,4.63583E+18,0.458882,-0.614847,0.492306,0.411128,-9.628087,-1.282086,-1.760261,0.111872,0.090911,0.018159,38.520617,21.05777,9.936827,4.63583E+18,-0.469771,-0.468075,-0.599954,0.447522,0
-11.977323,1.243564,-3.790664,1.097475,0.652406,0.041774,41.110553,-6.311758,21.448142,4.63583E+18,0.699456,-0.107724,0.70205,0.079265,-5.070906,6.154474,-0.170992,0.965604,0.533903,-0.596634,44.02743,-13.245047,2.090284,4.63583E+18,0.461433,-0.615041,0.493378,0.406672,-9.428618,-1.236081,-1.522398,0.09723,0.078003,0.015228,38.514359,20.979629,9.847522,4.63583E+18,-0.46945,-0.46844,-0.59986,0.447603,0
-12.967158,1.638974,-4.017022,1.034202,0.482951,0.104467,40.741465,-5.69932,21.571537,4.63583E+18,0.69847,-0.104636,0.703804,0.076485,-4.658535,6.613573,-0.307989,0.94827,0.50351,-0.167794,44.083745,-13.011221,2.378555,4.63583E+18,0.463262,-0.614322,0.49545,0.403146,-9.490049,-1.110156,-1.646628,0.088319,0.057372,-0.003604,38.514359,20.972319,9.839167,4.63583E+18,-0.469161,-0.468703,-0.599779,0.447739,0
-13.501388,1.640075,-4.322171,0.961251,0.137841,0.168132,39.029187,-4.107447,21.749866,4.63583E+18,0.698449,-0.101291,0.704571,0.074083,-3.98157,10.827484,0.448753,0.726859,0.54672,0.240133,44.361674,-12.88633,2.841463,4.63583E+18,0.463743,-0.613247,0.498271,0.400746,-9.921499,-0.428973,-2.106669,0.056336,0.034058,-0.024873,38.659458,20.90535,9.92846,4.63583E+18,-0.468954,-0.468805,-0.599754,0.447882,0
-13.287647,1.316649,-4.485995,0.904355,-0.351133,0.21989,38.025098,-3.388231,21.695551,4.63583E+18,0.69981,-0.097807,0.703908,0.072202,-3.953274,10.590791,1.449659,0.458538,0.598482,0.498697,44.37862,-13.129459,3.104395,4.63583E+18,0.462993,-0.612229,0.5014,0.399263,-10.039362,0.013221,-2.103863,0.007512,0.008608,-0.037445,38.818134,20.910234,9.925666,4.63583E+18,-0.468882,-0.468734,-0.599795,0.447978,0
-12.40317,0.826184,-4.163088,0.879901,-0.805217,0.257212,38.884413,-3.950081,21.32055,4.63583E+18,0.702465,-0.094146,0.701913,0.070685,-4.041582,8.400909,1.972847,0.267555,0.63924,0.769188,44.183323,-13.527619,3.224618,4.63583E+18,0.461212,-0.611074,0.504971,0.398593,-9.890454,-0.576129,-1.887634,-0.015349,-0.006286,-0.043336,38.831749,20.911282,9.846499,4.63583E+18,-0.46888,-0.468574,-0.599862,0.448058,0
-11.239553,0.440609,-3.429976,0.869309,-1.083695,0.277179,39.621212,-4.240273,20.999171,4.63583E+18,0.705903,-0.090373,0.699087,0.069365,-4.259388,7.751735,1.894072,0.171084,0.612223,1.084184,44.129765,-13.75489,3.472475,4.63583E+18,0.458706,-0.609385,0.509118,0.398795,-9.74187,-1.148143,-1.823093,-0.018067,-0.007477,-0.040865,38.753632,20.978241,9.928447,4.63583E+18,-0.468891,-0.468414,-0.599926,0.448128,0
-10.268997,0.105696,-2.505374,0.886689,-1.175691,0.30989,39.824719,-4.065065,20.712364,4.63583E+18,0.709577,-0.086423,0.695982,0.068121,-4.293259,8.053025,1.880867,0.04621,0.566869,1.386467,43.951404,-14.113537,3.765444,4.63583E+18,0.455392,-0.607288,0.513616,0.400023,-9.573079,-1.263277,-1.807744,-0.016206,-0.007477,-0.033755,38.679347,21.051477,10.104205,4.63583E+18,-0.468911,-0.468274,-0.599974,0.448189,0
-9.55855,-0.125521,-1.716371,0.919286,-1.087969,0.356359,40.121422,-4.020259,20.275783,4.63583E+18,0.712967,-0.082264,0.693135,0.066885,-4.312961,7.628852,2.004796,-0.132323,0.532685,1.649488,43.663137,-14.660012,3.99271,4.63583E+18,0.451311,-0.604792,0.518503,0.402119,-9.53608,-1.436947,-1.795537,-0.002353,-0.006501,-0.021396,38.606101,21.124722,10.209206,4.63583E+18,-0.468924,-0.468195,-0.599973,0.448259,0
-9.04874,-0.120499,-1.186877,0.879999,-0.835828,0.379167,40.293193,-3.813339,20.025753,4.63583E+18,0.715585,-0.078222,0.691012,0.065741,-4.556077,6.663713,2.076181,-0.342146,0.501711,1.872228,43.414297,-15.311617,4.11574,4.63583E+18,0.44637,-0.60212,0.523513,0.405142,-9.422397,-1.597742,-1.794488,0.005766,-0.011291,-0.005649,38.599808,21.064063,10.217597,4.63583E+18,-0.468963,-0.468161,-0.599918,0.448328,0
-8.711657,-0.088897,-1.059286,0.801154,-0.524299,0.386342,40.446372,-3.786948,19.92967,4.63583E+18,0.71726,-0.074479,0.689783,0.064742,-5.114673,5.979956,2.002993,-0.544766,0.449383,2.08503,43.25745,-16.039321,4.222783,4.63583E+18,0.440641,-0.599229,0.528576,0.409106,-9.311493,-1.67832,-1.861431,-0.002377,-0.017607,-0.000368,38.599808,21.05777,10.128339,4.63583E+18,-0.469043,-0.468113,-0.599855,0.448378,0
-8.534847,-0.070098,-1.428047,0.759617,-0.320791,0.390641,41.16135,-4.66938,19.841073,4.63583E+18,0.718322,-0.070901,0.68914,0.063811,-5.880787,5.762883,1.771134,-0.714682,0.379144,2.28936,42.991795,-16.915291,4.33264,4.63583E+18,0.434252,-0.596027,0.533681,0.413959,-9.357826,-1.305282,-1.912361,-0.024682,-0.028897,0.013667,38.666751,20.990828,9.863325,4.63583E+18,-0.469221,-0.468035,-0.599784,0.448368,0
-8.515448,0.086102,-1.87244,0.757317,-0.292977,0.388066,41.997868,-5.554368,19.699611,4.63583E+18,0.719283,-0.067468,0.688558,0.062998,-6.536189,5.821919,1.51201,-0.843101,0.288217,2.473137,42.630382,-17.896328,4.226692,4.63583E+18,0.427382,-0.592425,0.538797,0.419612,-9.374234,-1.224947,-1.994652,-0.025728,-0.043574,0.026668,38.661898,20.906436,9.671832,4.63583E+18,-0.469461,-0.46796,-0.599662,0.448358,0
-8.532975,0.343061,-1.977599,0.752195,-0.332687,0.385875,41.957775,-5.371876,19.626061,4.63583E+18,0.720341,-0.064091,0.687842,0.062252,-7.353,5.772285,1.227497,-0.956744,0.191259,2.617043,42.251939,-18.766014,4.196522,4.63583E+18,0.420144,-0.58846,0.543828,0.425964,-9.341819,-1.644652,-2.280903,-0.001233,-0.049743,0.049246,38.52698,20.832141,9.834545,4.63583E+18,-0.469711,-0.467977,-0.599438,0.448378,0
-8.529534,0.463555,-1.984482,0.724404,-0.353284,0.391709,41.270192,-4.835112,19.613855,4.63583E+18,0.721453,-0.060604,0.687066,0.061429,-8.213192,5.402517,0.80315,-1.036883,0.092413,2.731682,41.873499,-19.661822,4.058602,4.63583E+18,0.412669,-0.584118,0.548747,0.432883,-9.271738,-1.818472,-2.318353,0.019612,-0.057035,0.074695,38.514359,20.892756,10.018688,4.63583E+18,-0.469986,-0.468085,-0.599112,0.448414,0
-8.520767,0.528359,-2.039867,0.669355,-0.337814,0.389135,40.995824,-4.836843,19.560354,4.63583E+18,0.722497,-0.057293,0.686312,0.060751,-9.039486,4.650665,0.217347,-1.083568,0.00704,2.82913,41.438812,-20.708638,3.809835,4.63583E+18,0.405037,-0.579391,0.553587,0.440219,-9.343507,-1.585691,-2.085142,0.020387,-0.06256,0.102285,38.514359,20.899075,9.945242,4.63583E+18,-0.470324,-0.468253,-0.598719,0.448408,0
-8.53453,0.533685,-2.160381,0.618544,-0.318852,0.388447,41.346474,-5.358391,19.418868,4.63583E+18,0.723466,-0.054142,0.685595,0.060211,-9.782307,3.977245,-0.348924,-1.126371,-0.061823,2.896035,40.921481,-21.860738,3.682002,4.63583E+18,0.397273,-0.57436,0.558304,0.447862,-9.428942,-1.294878,-1.906911,0.022247,-0.061069,0.1281,38.369368,20.821005,9.858756,4.63583E+18,-0.470703,-0.468491,-0.598275,0.448354,0
-8.593672,0.524918,-2.20799,0.59431,-0.341358,0.403234,41.140117,-5.343553,19.32122,4.63583E+18,0.72448,-0.051015,0.6848,0.059788,-10.5869,3.457909,-1.010771,-1.160312,-0.110559,2.9359,40.440686,-22.957497,3.680982,4.63583E+18,0.389401,-0.569105,0.562878,0.455692,-9.402861,-1.414572,-1.836378,0.020479,-0.062836,0.153737,38.500664,20.746698,9.762143,4.63583E+18,-0.471137,-0.468786,-0.597781,0.448249,0
-8.706623,0.552424,-2.196985,0.552536,-0.386095,0.420925,40.682794,-4.96876,19.16512,4.63583E+18,0.7256,-0.047952,0.683856,0.059546,-11.398221,2.857066,-1.622153,-1.210165,-0.137116,2.956127,39.986199,-23.919159,3.470894,4.63583E+18,0.381348,-0.563755,0.567242,0.463671,-9.388548,-1.461725,-1.697277,0.010536,-0.062045,0.178395,38.793176,20.818448,9.742562,4.63583E+18,-0.471634,-0.469124,-0.597259,0.448068,0
-8.882862,0.636332,-2.251492,0.473551,-0.442995,0.438046,41.061057,-5.003658,18.866801,4.63583E+18,0.726853,-0.045065,0.682717,0.059591,-12.072589,2.362982,-2.104928,-1.258322,-0.147809,2.95163,39.337544,-24.83754,2.974383,4.63583E+18,0.373238,-0.558264,0.57149,0.471629,-9.409796,-1.409132,-1.561957,0.029128,-0.050244,0.19808,38.819542,20.903889,9.563087,4.63583E+18,-0.472101,-0.469569,-0.596687,0.447872,0
-8.993417,0.681725,-2.251151,0.39285,-0.465577,0.447088,41.513068,-5.176958,18.716708,4.63583E+18,0.728145,-0.04239,0.681484,0.059897,-12.660474,1.892547,-2.490942,-1.254186,-0.18155,2.919609,38.573234,-25.818756,2.553543,4.63583E+18,0.36514,-0.55277,0.575425,0.479587,-9.478823,-1.481919,-1.751086,0.057324,-0.04328,0.234874,38.67456,20.688231,9.390055,4.63583E+18,-0.472564,-0.470173,-0.596004,0.44766,0
-8.94339,0.721782,-2.301868,0.34751,-0.454987,0.448923,41.229574,-4.96876,18.875736,4.63583E+18,0.72939,-0.039849,0.680266,0.060334,-13.04659,1.322713,-2.782099,-1.199673,-0.229769,2.859822,37.848305,-26.754018,2.325212,4.63583E+18,0.357341,-0.547145,0.579161,0.487352,-9.340168,-1.835035,-1.803531,0.102754,-0.017354,0.274304,38.671999,20.52215,9.542575,4.63583E+18,-0.472947,-0.471013,-0.595209,0.447432,0
-8.831283,0.770612,-2.291901,0.346861,-0.426478,0.450894,40.931423,-4.979579,18.870249,4.63583E+18,0.730546,-0.037312,0.679129,0.060772,-13.273016,0.658917,-2.966247,-1.12385,-0.256173,2.787034,37.271597,-27.735199,2.067077,4.63583E+18,0.349871,-0.541438,0.582753,0.494807,-9.337606,-2.001532,-1.650596,0.151693,0.010412,0.316743,38.450054,21.010185,9.904046,4.63583E+18,-0.473242,-0.472104,-0.594293,0.447186,0
-8.830933,0.805689,-2.225185,0.382979,-0.412918,0.459377,40.952048,-5.163732,18.567329,4.63583E+18,0.73166,-0.034644,0.678038,0.061132,-13.337032,-0.071522,-3.218703,-1.016095,-0.257346,2.69668,36.856428,-28.482922,1.64567,4.63583E+18,0.342775,-0.535715,0.586268,0.501801,-9.327512,-1.858107,-1.635792,0.16278,0.021599,0.360449,37.8379,21.827193,9.947977,4.63583E+18,-0.473568,-0.473346,-0.593291,0.446859,0
-8.905704,0.805689,-2.199598,0.416245,-0.457046,0.475294,41.028718,-5.095017,18.228283,4.63583E+18,0.732892,-0.031818,0.676817,0.061451,-13.230166,-0.544216,-3.621368,-0.902953,-0.235023,2.583567,36.412368,-29.15431,1.247442,4.63583E+18,0.336063,-0.530085,0.589714,0.508241,-9.527177,-1.308061,-1.658094,0.155621,0.053654,0.412049,37.335866,21.955838,9.692557,4.63583E+18,-0.473923,-0.474758,-0.592263,0.446347,0
-9.008706,0.757574,-2.067203,0.418745,-0.49588,0.477359,41.110739,-4.991755,18.082601,4.63583E+18,0.734223,-0.028968,0.675471,0.061773,-13.149318,-0.94423,-3.938932,-0.81295,-0.203148,2.448592,35.817207,-29.94762,1.094063,4.63583E+18,0.329702,-0.524679,0.593008,0.51415,-8.888349,-1.736806,-1.615607,0.130491,0.06149,0.450724,37.304767,21.537424,9.679413,4.63583E+18,-0.474379,-0.47623,-0.591218,0.445681,0
-9.107901,0.590112,-1.960057,0.41638,-0.458519,0.465609,41.166801,-5.268721,18.070754,4.63583E+18,0.735444,-0.026168,0.67423,0.06206,-13.182052,-1.684651,-3.863371,-0.70584,-0.166754,2.272563,35.191799,-30.85274,1.008612,4.63583E+18,0.323824,-0.519585,0.596133,0.519418,-9.963223,-1.704233,-1.655976,0.042325,0.014148,0.495914,37.461919,21.352291,9.847716,4.63583E+18,-0.475208,-0.477548,-0.590152,0.4448,0
-9.218123,0.434865,-2.011952,0.433974,-0.402053,0.447548,41.10343,-5.481492,17.93568,4.63583E+18,0.736504,-0.023379,0.673159,0.062236,-13.636875,-2.620644,-3.811541,-0.567768,-0.165469,2.07663,34.625536,-31.574145,0.838784,4.63583E+18,0.318637,-0.514748,0.59908,0.524031,-9.736616,-1.730278,-1.637907,-0.028258,0.001809,0.561356,37.688572,21.628433,9.852432,4.63583E+18,-0.476326,-0.478862,-0.589058,0.443638,0
-9.211988,0.226541,-2.137462,0.470425,-0.378623,0.413067,40.943264,-5.351381,17.694231,4.63583E+18,0.737503,-0.020581,0.672159,0.062199,-13.68557,-3.622505,-3.724329,-0.423324,-0.188208,1.90011,34.076217,-32.05519,0.577841,4.63583E+18,0.314441,-0.509772,0.602144,0.527903,-9.649144,-2.101348,-1.914501,-0.021499,0.006921,0.651078,38.288383,21.176554,9.673001,4.63583E+18,-0.477581,-0.480416,-0.58778,0.442302,0
-9.034599,-0.098443,-2.216783,0.505436,-0.357291,0.381126,41.049317,-5.175939,17.642758,4.63583E+18,0.738445,-0.01777,0.671225,0.061964,-13.106921,-3.923169,-3.661341,-0.343113,-0.152564,1.696639,33.517509,-32.41682,0.3627,4.63583E+18,0.310511,-0.505529,0.604724,0.53135,-9.365142,-2.16974,-1.974422,0.037258,0.049422,0.743913,39.313352,19.871264,9.56687,4.63583E+18,-0.478781,-0.482388,-0.586288,0.440836,0
-8.781712,-0.297549,-2.159187,0.528332,-0.287704,0.360334,41.187394,-5.220565,17.712942,4.63583E+18,0.739193,-0.014965,0.670504,0.061594,-12.302456,-3.408707,-3.753121,-0.337191,-0.099739,1.453523,32.956071,-32.880419,0.317392,4.63583E+18,0.306986,-0.501982,0.606847,0.534332,-9.762297,-2.195214,-1.542818,-0.048968,0.042677,0.827087,39.639612,19.049239,9.736769,4.63583E+18,-0.480319,-0.484374,-0.584767,0.439003,0
-8.609653,-0.365072,-2.141257,0.550898,-0.152637,0.345846,41.26942,-5.358672,17.661435,4.63583E+18,0.739562,-0.012165,0.670199,0.061108,-11.734835,-3.172187,-3.831159,-0.360994,-0.058884,1.167829,32.647624,-33.315284,0.176802,4.63583E+18,0.303933,-0.499264,0.608351,0.536907,-9.847133,-2.754678,-1.490364,-0.081088,0.092376,0.899572,39.673,18.837603,9.842891,4.63583E+18,-0.481926,-0.486556,-0.583251,0.43684,0
-8.755747,-0.220501,-2.298415,0.573228,0.036011,0.337635,41.301462,-5.444118,17.529831,4.63583E+18,0.7394,-0.009368,0.670475,0.060523,-11.508962,-3.51509,-3.826584,-0.391229,-0.013293,0.871925,32.537524,-33.59914,-0.071943,4.63583E+18,0.301354,-0.497429,0.609215,0.53908,-10.319539,-1.91596,-1.678799,-0.029672,0.173278,1.018929,39.963879,18.612027,9.7622,4.63583E+18,-0.483441,-0.489271,-0.581552,0.434391,0
-9.343484,-0.025602,-2.811005,0.579906,0.176648,0.350583,41.248817,-5.550146,17.588163,4.63583E+18,0.738835,-0.006549,0.671182,0.059952,-11.4281,-4.141056,-3.952124,-0.389399,0.038046,0.597416,32.333084,-33.599578,-0.143653,4.63583E+18,0.299262,-0.496397,0.609571,0.540791,-10.509063,-1.585763,-0.748898,-0.114342,0.169783,1.1263,40.359475,18.313071,9.83178,4.63583E+18,-0.485322,-0.492059,-0.579769,0.43152,0
-10.161841,0.223911,-3.559934,0.564852,0.065785,0.352191,41.272843,-5.664235,17.733924,4.63583E+18,0.738573,-0.003745,0.671538,0.059431,-11.198357,-4.737508,-4.198013,-0.331724,0.101048,0.350623,32.098299,-33.835621,-0.137116,4.63583E+18,0.297685,-0.496058,0.609622,0.541915,-10.07673,-1.919389,-0.436174,-0.17943,0.180476,1.201791,40.550416,18.085967,10.006436,4.63583E+18,-0.487434,-0.494904,-0.577955,0.428306,0
-10.801987,0.469572,-4.009372,0.538651,-0.306607,0.306133,41.354859,-5.643643,17.642783,4.63583E+18,0.739357,-0.001058,0.670737,0.058846,-10.814518,-5.37682,-4.3541,-0.226542,0.154149,0.121786,31.988204,-34.10897,-0.209254,4.63583E+18,0.296707,-0.496287,0.609503,0.542376,-9.432322,-1.997789,-1.072971,-0.165275,0.188415,1.288085,40.576352,17.632061,10.122639,4.63583E+18,-0.489638,-0.497986,-0.575939,0.424923,0
-11.0477,0.777765,-3.830568,0.487829,-0.718237,0.241443,41.407513,-5.615007,17.435604,4.63583E+18,0.741297,0.001392,0.668647,0.058205,-10.568178,-5.914129,-4.270016,-0.116935,0.192619,-0.090448,32.093002,-34.10293,-0.372493,4.63583E+18,0.296337,-0.497005,0.609239,0.542216,-9.576007,-2.258491,-1.793208,-0.237582,0.171499,1.365916,40.666618,17.100216,10.221354,4.63583E+18,-0.492154,-0.501062,-0.573836,0.421229,0
-10.992812,1.125308,-3.243118,0.384195,-0.956206,0.218697,41.428095,-5.676443,17.362048,4.63583E+18,0.743894,0.003516,0.665786,0.057779,-10.382234,-6.114785,-3.936135,-0.050868,0.21229,-0.292173,32.129887,-33.886303,-0.424422,4.63583E+18,0.296508,-0.498199,0.608729,0.541599,-9.717667,-1.992889,-2.134271,-0.29924,0.176665,1.460375,40.697367,16.552,10.330152,4.63583E+18,-0.494935,-0.504227,-0.571634,0.417168,0
-10.749498,1.43843,-2.699471,0.249365,-0.99137,0.249132,41.477326,-5.655866,16.962782,4.63583E+18,0.746568,0.005315,0.662771,0.057819,-10.142905,-5.653094,-3.582978,-0.077806,0.238722,-0.503394,32.120517,-33.826714,-0.127425,4.63583E+18,0.297032,-0.500019,0.607752,0.540731,-9.785049,-1.118014,-1.837369,-0.318081,0.18902,1.578946,40.933626,15.935774,10.518066,4.63583E+18,-0.49791,-0.507636,-0.569217,0.412774,0
-10.390135,1.869118,-2.374811,0.0733,-0.863368,0.295759,41.513131,-5.695793,16.401117,4.63583E+18,0.748868,0.006665,0.6601,0.058492,-9.895941,-5.290059,-3.391101,-0.167602,0.308795,-0.718072,32.305053,-33.63934,0.01959,4.63583E+18,0.297675,-0.502645,0.606209,0.539674,-9.667706,-1.795719,-1.672915,-0.35742,0.197934,1.662565,41.189953,15.246374,10.445802,4.63583E+18,-0.501068,-0.511153,-0.566683,0.408074,0
-10.027751,2.222849,-2.111188,-0.118846,-0.612218,0.353271,41.654682,-6.025393,16.23009,4.63583E+18,0.750459,0.007511,0.658157,0.059878,-9.811065,-5.814903,-3.244629,-0.262506,0.392672,-0.931105,32.605374,-33.385854,0.036622,4.63583E+18,0.298384,-0.506106,0.604102,0.538409,-9.879021,-2.079549,-1.96121,-0.411758,0.236719,1.751455,41.36827,14.617449,10.448478,4.63583E+18,-0.504373,-0.514804,-0.564102,0.402956,0
-9.557869,2.346835,-1.953184,-0.29023,-0.286659,0.405283,41.700904,-6.286398,16.31252,4.63583E+18,0.751143,0.007884,0.657183,0.061907,-9.568373,-6.724451,-3.107511,-0.338221,0.452466,-1.132186,32.866556,-33.260644,0.111557,4.63583E+18,0.299227,-0.510289,0.601463,0.536945,-10.468764,-1.341593,-2.391144,-0.49364,0.214971,1.845081,41.617212,14.072909,10.705947,4.63583E+18,-0.508032,-0.518435,-0.561378,0.397472,0
-8.974999,2.437627,-1.960038,-0.460075,0.043258,0.431326,41.663442,-6.3924,16.348714,4.63583E+18,0.750918,0.007711,0.657193,0.064492,-9.441165,-7.601615,-3.123094,-0.322664,0.466283,-1.297814,33.22307,-33.04408,0.059355,4.63583E+18,0.300429,-0.514885,0.598504,0.53519,-11.972054,-0.177042,-1.693489,-0.572171,0.165739,2.019067,42.029641,13.468894,10.997865,4.63583E+18,-0.512227,-0.522189,-0.558265,0.391514,0
-8.530822,2.524582,-2.001589,-0.580478,0.361178,0.437209,41.748894,-6.578516,16.422384,4.63583E+18,0.749818,0.007092,0.65816,0.067435,-8.562394,-8.175192,-2.931239,-0.277726,0.494646,-1.412796,33.744865,-32.534811,0.036622,4.63583E+18,0.301902,-0.519757,0.595412,0.533098,-12.210067,-0.106685,-1.768494,-0.573084,0.221762,2.124554,42.367679,12.490742,10.945257,4.63583E+18,-0.516425,-0.526235,-0.554998,0.385175,0
-8.337656,2.656905,-2.206886,-0.70458,0.648234,0.434697,41.741863,-6.831394,16.410617,4.63583E+18,0.747924,0.005998,0.65998,0.070718,-8.984734,-7.455275,-3.24337,-0.051508,0.509654,-1.478454,34.109688,-32.080013,0.252034,4.63583E+18,0.303964,-0.524515,0.592677,0.530306,-12.4314,-1.882205,-1.904895,-0.480845,0.285061,2.153573,42.496634,11.700475,10.937834,4.63583E+18,-0.520276,-0.530603,-0.551609,0.378815,8
-8.43694,2.812163,-2.633963,-0.806672,0.848248,0.437081,41.477195,-7.075521,16.388732,4.63583E+18,0.745463,0.004533,0.662378,0.074292,-9.220268,-0.066785,-3.066743,0.144986,0.342852,-1.274,34.302464,-31.786747,0.542135,4.63583E+18,0.306407,-0.528128,0.590594,0.527631,-13.688844,-0.111304,-1.02482,-0.55405,0.244695,2.265736,42.595351,11.06517,11.127329,4.63583E+18,-0.524512,-0.534958,-0.54795,0.372099,8
-9.061462,2.934689,-2.769592,-0.745998,0.890119,0.444076,41.228273,-7.319677,16.577354,4.63583E+18,0.742864,0.003263,0.664907,0.07772,-4.921384,10.986053,-1.836206,0.354394,0.226057,-0.749242,34.517339,-31.539762,0.535459,4.63583E+18,0.308436,-0.529916,0.589962,0.525358,-15.522765,2.235201,-0.405053,-0.662282,0.299815,2.299626,42.860153,10.152982,11.579979,4.63583E+18,-0.528864,-0.539187,-0.544451,0.364902,8
-10.650478,3.132715,-2.758431,-0.481069,0.640838,0.490724,41.151599,-7.515893,16.889245,4.63583E+18,0.740921,0.003024,0.666737,0.080553,-4.231411,17.982548,1.216876,0.227279,0.145521,-0.533713,34.824193,-31.351797,0.437799,4.63583E+18,0.309812,-0.531263,0.589324,0.523902,-15.073528,-2.016595,-1.368227,-0.731352,0.32792,2.392552,43.129803,9.30209,11.888933,4.63583E+18,-0.533392,-0.54346,-0.540852,0.357243,8
-13.087126,3.661459,-2.693238,-0.217636,0.062959,0.464052,41.090118,-7.592555,16.940902,4.63583E+18,0.740581,0.003717,0.666865,0.082564,-9.400697,13.013857,3.461955,-0.084234,0.036982,-0.882557,35.078882,-31.115346,0.415052,4.63583E+18,0.311616,-0.533522,0.58718,0.522942,-16.029209,-0.379844,-1.698912,-0.799428,0.371987,2.470428,43.32033,8.448719,12.103873,4.63583E+18,-0.53803,-0.547761,-0.537215,0.349116,8
-15.823383,3.736989,-2.179939,-0.010506,-0.744573,0.260078,41.114084,-7.725937,16.79189,4.63583E+18,0.742546,0.004761,0.664571,0.083357,-15.042916,6.117756,3.950345,-0.157442,0.033374,-1.197073,35.254638,-30.802808,0.555511,4.63583E+18,0.313948,-0.536625,0.584165,0.521749,-17.173502,-1.520373,-2.245005,-0.849262,0.370138,2.514088,43.291707,7.438195,12.222246,4.63583E+18,-0.542784,-0.551978,-0.533481,0.340741,8
-17.683746,2.760881,-1.553056,0.153118,-1.482332,-0.030861,41.264573,-7.954899,16.538513,4.63583E+18,0.746633,0.005762,0.660041,0.082778,-17.879389,0.519513,1.542145,0.003003,0.209375,-1.323006,35.591249,-30.40766,0.738622,4.63583E+18,0.316477,-0.540189,0.581432,0.519591,-17.897531,-2.584083,-2.150122,-0.91293,0.344227,2.585881,43.320883,6.357054,12.332112,4.63583E+18,-0.547773,-0.556102,-0.529545,0.332079,8
-17.387178,1.569346,-1.043811,0.239989,-1.919631,-0.333203,41.605893,-8.048561,16.269865,4.63583E+18,0.751984,0.006351,0.654154,0.081005,-18.397385,-5.027133,-2.040608,0.317526,0.21475,-1.378709,35.981849,-29.917744,0.856176,4.63583E+18,0.319811,-0.543465,0.579245,0.516567,-18.291406,-3.152607,-2.515187,-1.000514,0.278427,2.664551,43.491233,5.270595,12.363972,4.63583E+18,-0.553144,-0.560033,-0.525326,0.323151,8
-15.456164,0.10558,-0.491976,0.376859,-2.196267,-0.481176,41.97794,-7.862387,15.613886,4.63583E+18,0.758077,0.007059,0.6474,0.078381,-16.208582,-4.200998,-3.757347,0.543421,0.137732,-1.238105,36.194587,-29.611022,0.953833,4.63583E+18,0.323532,-0.545915,0.577742,0.513341,-19.203571,-3.889176,-2.629345,-1.012231,0.195355,2.728961,43.897173,4.184255,12.288102,4.63583E+18,-0.558731,-0.563885,-0.520705,0.314195,8
-12.988504,-0.58679,0.414026,0.522599,-2.476646,-0.468569,42.229846,-7.454748,14.530885,4.63583E+18,0.764839,0.008352,0.639741,0.075387,-11.926109,-0.200588,-3.847711,0.580108,0.171813,-1.029029,36.343923,-29.301336,1.04213,4.63583E+18,0.326797,-0.547867,0.576824,0.510215,-20.27937,-5.882832,-2.425094,-1.043803,0.177269,2.816355,44.034726,3.030953,12.29179,4.63583E+18,-0.564461,-0.567744,-0.515799,0.304963,8
-10.975609,0.012401,2.048345,0.543242,-2.39859,-0.469527,42.424211,-7.243351,13.566187,4.63583E+18,0.771307,0.009682,0.632267,0.072328,-8.534435,2.147208,-3.075678,0.42715,0.287926,-0.877921,36.743154,-28.831347,1.202464,4.63583E+18,0.329106,-0.549899,0.576073,0.507386,-20.864362,-7.637968,-2.493987,-1.009741,0.16942,2.93629,43.999745,1.993929,12.571382,4.63583E+18,-0.570187,-0.571838,-0.510464,0.295491,8
-9.755081,0.934766,3.898799,0.392253,-1.633418,-0.539733,42.741594,-7.064139,12.933899,4.63583E+18,0.775722,0.01011,0.627158,0.069465,-8.136705,1.315694,-1.995319,0.279762,0.314213,-0.787248,37.088176,-28.393538,1.469819,4.63583E+18,0.330815,-0.551964,0.575244,0.504968,-20.855577,-9.938521,-3.304664,-0.965252,0.075184,3.014283,44.028905,0.912813,12.787436,4.63583E+18,-0.576006,-0.575989,-0.504578,0.286102,8
-9.504716,1.662659,4.988943,0.048086,-0.454663,-0.639825,42.946128,-6.804876,12.542856,4.63583E+18,0.777076,0.008822,0.625744,0.067226,-9.950009,-1.166005,-1.621133,0.248878,0.263009,-0.75023,37.159336,-28.296761,1.613012,4.63583E+18,0.332405,-0.553969,0.574259,0.502845,-20.170648,-10.512002,-3.236619,-0.747845,0.06525,3.164997,44.132373,-0.240492,12.827848,4.63583E+18,-0.5814,-0.580865,-0.497958,0.276781,8
-10.088201,1.794488,4.916159,-0.353644,0.632561,-0.705277,42.840173,-6.543656,12.597066,4.63583E+18,0.775617,0.005758,0.627732,0.065861,-11.335031,-2.040684,-2.232771,0.299654,0.167552,-0.696999,37.159336,-28.240604,1.701309,4.63583E+18,0.334225,-0.555568,0.573365,0.500889,-19.136332,-9.667063,-3.055641,-0.440808,0.13437,3.434214,44.108546,-1.478181,12.94139,4.63583E+18,-0.586105,-0.587008,-0.490401,0.267224,8
-10.571611,1.657721,3.4506,-0.681537,1.271375,-0.7151,42.72591,-6.434262,13.073196,4.63583E+18,0.772473,0.001432,0.631676,0.065335,-10.829551,-0.614353,-3.309071,0.228294,0.202097,-0.614573,37.402683,-28.026966,1.721244,4.63583E+18,0.335623,-0.557138,0.572555,0.499134,-18.664849,-9.905821,-3.262408,-0.273031,0.090316,3.655531,44.005102,-2.867861,13.063438,4.63583E+18,-0.590606,-0.593835,-0.481902,0.257518,8
-10.523754,1.145529,1.493657,-0.800555,1.402388,-0.671308,42.773768,-6.215513,13.518487,4.63583E+18,0.768936,-0.003197,0.635978,0.065262,-9.669542,0.926881,-4.447102,0.191235,0.24788,-0.535751,37.720047,-27.770634,1.796111,4.63583E+18,0.336658,-0.558663,0.57191,0.49747,-18.405711,-8.21023,-2.615432,-0.178661,0.064009,3.78067,44.0289,-4.483484,13.018432,4.63583E+18,-0.594919,-0.600973,-0.47281,0.247697,8
-10.274291,0.667528,0.062104,-0.750789,1.21041,-0.605306,42.852399,-5.945504,13.915408,4.63583E+18,0.765853,-0.00744,0.639651,0.065269,-9.892708,2.389419,-3.710983,0.364819,0.072981,-0.450105,37.850257,-27.645314,2.043443,4.63583E+18,0.338336,-0.559372,0.571576,0.495916,-17.459886,-5.338116,-3.687435,-0.101708,0.156487,3.856154,43.920723,-5.773832,13.124473,4.63583E+18,-0.598783,-0.608394,-0.46356,0.237546,8
-9.743971,0.449238,-0.575693,-0.654736,0.953693,-0.523225,42.693687,-5.883968,14.340273,4.63583E+18,0.763409,-0.011088,0.642511,0.065288,-9.775361,2.05145,-2.648007,0.53251,-0.037761,-0.386006,37.745733,-27.569215,2.252225,4.63583E+18,0.340536,-0.559457,0.57158,0.494307,-16.792028,0.256178,-5.021534,0.044282,0.265932,4.027106,43.731842,-6.886267,13.15744,4.63583E+18,-0.602073,-0.616452,-0.453879,0.226909,8
-9.018386,0.392573,-0.704137,-0.535875,0.650907,-0.422907,42.579422,-5.860047,14.602484,4.63583E+18,0.761737,-0.014008,0.644433,0.065321,-9.355881,0.823569,-2.669664,0.738275,-0.110141,-0.340039,37.699313,-27.486621,2.369836,4.63583E+18,0.343289,-0.558985,0.572008,0.492437,-16.691799,1.192305,-4.626975,0.0684,0.372064,4.009804,43.536506,-8.341454,13.192995,4.63583E+18,-0.604915,-0.624465,-0.444359,0.216024,8
-8.351431,0.637193,-0.386829,-0.421433,0.342322,-0.334345,42.579422,-5.798517,14.710425,4.63583E+18,0.760868,-0.016242,0.645404,0.065346,-9.459025,1.36403,-2.166646,0.900119,-0.169676,-0.272757,37.696461,-27.34504,2.532978,4.63583E+18,0.346419,-0.55799,0.572833,0.490411,-13.614173,-1.072063,-3.653545,0.193171,0.558659,3.713346,43.408041,-9.674553,13.307557,4.63583E+18,-0.60666,-0.632247,-0.435851,0.205576,8
-7.844564,0.864692,0.136608,-0.285774,0.142,-0.270076,42.490627,-5.77461,14.700112,4.63583E+18,0.760525,-0.017819,0.645779,0.065222,-9.605971,2.315866,-1.147843,0.93438,-0.148273,-0.228274,37.687106,-27.176989,2.650603,4.63583E+18,0.349567,-0.556772,0.573952,0.488248,-9.599166,-2.16252,-2.696027,0.521738,0.60009,3.413275,43.074402,-10.870439,13.607789,4.63583E+18,-0.607069,-0.640205,-0.427857,0.196326,8
-7.509065,1.121121,0.587356,-0.205305,0.087794,-0.262417,42.193715,-5.596926,14.883233,4.63583E+18,0.760329,-0.019106,0.646004,0.064911,-9.59422,2.845008,-0.722748,0.84786,-0.055115,-0.243777,37.871357,-27.071571,2.748263,4.63583E+18,0.352317,-0.555898,0.574987,0.486046,-6.802718,-5.597414,0.471658,0.999391,0.588797,2.935067,42.575688,-11.909688,13.84721,4.63583E+18,-0.605715,-0.648386,-0.420636,0.189131,8
-7.307368,1.010904,0.869629,-0.158959,0.125735,-0.291044,41.993979,-5.229717,15.011691,4.63583E+18,0.760042,-0.020334,0.646358,0.06438,-9.610873,3.203897,-0.727531,0.759201,0.028204,-0.283754,38.115483,-27.117084,2.845913,4.63583E+18,0.354736,-0.555412,0.575863,0.4838,-4.051088,-6.789115,0.112105,1.789805,0.623531,2.443295,42.274491,-12.723648,14.223928,4.63583E+18,-0.601675,-0.657617,-0.414138,0.184436,8
-7.283894,0.481631,0.892163,-0.079968,0.134041,-0.300366,41.93243,-5.074354,14.97558,4.63583E+18,0.759739,-0.021339,0.646758,0.063607,-9.684909,3.442804,-1.202982,0.683754,0.065573,-0.323205,38.294147,-27.071582,3.093228,4.63583E+18,0.356965,-0.5552,0.576546,0.481584,-5.200426,-7.02864,-1.287218,2.176449,0.627003,1.841911,42.194154,-13.149638,14.703596,4.63583E+18,-0.596013,-0.66668,-0.408933,0.181878,8
-7.36055,-0.074602,0.663221,0.005415,0.118041,-0.298648,42.000718,-5.12711,14.905239,4.63583E+18,0.759484,-0.022065,0.64713,0.06261,-10.022911,2.836559,-2.006926,0.649337,0.054379,-0.364932,38.265772,-26.864531,3.227193,4.63583E+18,0.359222,-0.555111,0.577042,0.47941,-5.479372,-7.065939,-2.128609,2.154187,0.706886,1.300985,42.066316,-13.406667,15.102818,4.63583E+18,-0.589788,-0.674737,-0.405392,0.18038,8
-7.449404,-0.41151,0.284836,0.051628,0.150173,-0.332849,42.244837,-5.082742,14.92913,4.63583E+18,0.759154,-0.022746,0.647611,0.061377,-10.213463,2.374927,-2.499469,0.703014,0.003307,-0.390469,38.30191,-26.611053,3.312637,4.63583E+18,0.361772,-0.554895,0.577504,0.477182,-4.736247,-7.023552,-1.674054,1.858805,0.476889,0.904271,41.776166,-13.428144,15.482322,4.63583E+18,-0.584426,-0.681159,-0.402583,0.179987,8
-7.656251,-0.649876,-0.107222,0.138451,0.128838,-0.404319,42.465086,-4.944527,14.959981,4.63583E+18,0.758906,-0.02334,0.648039,0.059686,-9.989501,2.20147,-2.709548,0.806105,-0.073692,-0.394396,38.440616,-26.616568,3.631892,4.63583E+18,0.364749,-0.554371,0.578039,0.474871,-4.474002,-8.9783,1.148016,1.757759,0.282547,0.453687,41.548963,-13.227787,15.949716,4.63583E+18,-0.579299,-0.686387,-0.400627,0.181061,8
-8.14116,-0.682695,-0.438942,0.253599,-0.029428,-0.496127,42.62379,-4.790813,14.904715,4.63583E+18,0.759115,-0.023779,0.647984,0.057409,-9.809537,1.939112,-2.952415,0.909009,-0.216495,-0.415423,38.664778,-26.505623,3.723258,4.63583E+18,0.368341,-0.553449,0.578503,0.472602,-4.567009,-9.535072,2.328774,1.791599,0.220194,0.128011,41.529587,-12.996928,16.16979,4.63583E+18,-0.5739,-0.691067,-0.399403,0.183147,8
-8.548955,-0.510912,-0.445927,0.289939,-0.255416,-0.605374,42.782462,-4.41692,14.959454,4.63583E+18,0.759958,-0.024345,0.647208,0.054709,-9.684619,2.503607,-3.510837,0.933311,-0.425227,-0.489831,38.77799,-26.213171,3.57364,4.63583E+18,0.372546,-0.55235,0.578413,0.470699,-3.76514,-9.403624,0.212929,1.624124,0.044333,-0.214212,41.674302,-12.965337,16.175884,4.63583E+18,-0.568985,-0.694606,-0.398851,0.186269,8
-8.678583,-0.232159,-0.17563,0.291085,-0.44206,-0.670797,42.849085,-3.996879,14.883903,4.63583E+18,0.761311,-0.025041,0.645828,0.051818,-8.954833,3.492555,-3.867913,0.874658,-0.53391,-0.537572,38.851227,-26.070603,3.602737,4.63583E+18,0.376963,-0.551229,0.577917,0.469102,-4.053952,-7.261511,0.077916,1.516986,-0.10858,-0.491014,41.610365,-12.752777,16.352903,4.63583E+18,-0.564394,-0.697281,-0.398802,0.190304,8
-8.462455,0.137832,0.243946,0.27474,-0.466415,-0.669007,42.72591,-3.797047,14.652496,4.63583E+18,0.762717,-0.025779,0.64436,0.048978,-8.27298,4.118832,-3.463263,0.704477,-0.552801,-0.606367,38.924475,-25.919693,3.840658,4.63583E+18,0.381163,-0.550487,0.576892,0.467839,-3.833475,-5.820375,-0.704826,1.482902,-0.236693,-0.747617,41.74753,-12.454055,16.525957,4.63583E+18,-0.559885,-0.699315,-0.399206,0.19525,8
-8.055687,0.541963,0.542287,0.190537,-0.260022,-0.639332,42.746364,-3.667287,14.437949,4.63583E+18,0.763545,-0.026748,0.643527,0.046435,-8.130131,4.067696,-3.385853,0.460024,-0.491951,-0.686216,38.997708,-25.505755,3.831581,4.63583E+18,0.384888,-0.55033,0.575392,0.466821,-4.209366,-4.688088,-0.770144,1.490191,-0.37538,-1.00872,42.173311,-11.981964,16.518773,4.63583E+18,-0.555343,-0.700781,-0.400019,0.20121,8
-7.73917,0.599591,0.751469,0.088506,0.089001,-0.539466,42.778702,-3.467455,14.507556,4.63583E+18,0.763402,-0.027842,0.643792,0.044445,-8.410599,3.305716,-3.116048,0.244061,-0.448649,-0.749151,39.192493,-25.195072,3.799361,4.63583E+18,0.38813,-0.550746,0.573388,0.466113,-4.782378,-3.610614,-0.880358,1.407387,-0.538677,-1.284046,42.268847,-11.304476,16.594521,4.63583E+18,-0.551048,-0.701415,-0.401302,0.208134,8
-7.536487,0.689321,0.728164,-0.065482,0.472273,-0.434903,42.6816,-3.358146,14.791725,4.63583E+18,0.762187,-0.029216,0.645256,0.043155,-8.71136,2.546279,-2.831124,0.103291,-0.442781,-0.822369,39.499202,-25.069606,3.871288,4.63583E+18,0.39109,-0.551664,0.570849,0.465668,-5.46842,-2.38069,-0.657455,1.225957,-0.701301,-1.574298,42.329876,-10.45294,16.579813,4.63583E+18,-0.547264,-0.700954,-0.403188,0.215882,8
-7.445953,0.836918,0.533983,-0.233559,0.78448,-0.386965,42.58766,-3.166813,14.996083,4.63583E+18,0.760096,-0.031051,0.64768,0.042431,-8.61821,2.361748,-2.38782,-0.01602,-0.342675,-0.87335,39.688574,-24.731766,3.669814,4.63583E+18,0.393713,-0.552982,0.568213,0.465118,-5.963988,-1.903318,-0.657043,1.031913,-0.861728,-1.862036,42.658017,-9.586129,16.121362,4.63583E+18,-0.544011,-0.699364,-0.405688,0.224409,8
-7.558665,0.851111,0.09733,-0.358235,0.92002,-0.330176,42.640461,-2.990814,15.033004,4.63583E+18,0.7576,-0.033152,0.650509,0.042206,-8.522858,2.561681,-2.158403,-0.122316,-0.22029,-0.913622,39.778977,-24.372801,3.376836,4.63583E+18,0.395874,-0.554799,0.56547,0.464463,-6.317623,-2.134801,-0.725967,0.870635,-1.012198,-2.117208,42.945229,-8.797384,15.709931,4.63583E+18,-0.541188,-0.696765,-0.408701,0.233659,8
-7.779248,0.934301,-0.742695,-0.500917,0.803587,-0.258093,42.575727,-3.035106,15.286235,4.63583E+18,0.755373,-0.035488,0.652945,0.04261,-8.966604,2.400244,-2.264306,-0.188051,-0.139101,-0.967048,39.917656,-24.105776,3.158641,4.63583E+18,0.397786,-0.556999,0.5626,0.463681,-6.570404,-2.26086,-0.854849,0.807971,-1.131553,-2.31963,43.092463,-7.938224,15.574156,4.63583E+18,-0.53849,-0.693482,-0.412045,0.243578,8
-8.062553,1.188941,-1.668978,-0.629812,0.501653,-0.254662,42.40852,-3.101826,15.627737,4.63583E+18,0.753937,-0.038165,0.654398,0.043421,-9.545965,1.780225,-2.213743,-0.180368,-0.105664,-1.022264,40.141742,-23.786908,2.963359,4.63583E+18,0.399737,-0.559371,0.55966,0.462704,-6.736658,-2.048022,-0.922364,0.856799,-1.225586,-2.483159,43.493812,-6.926838,15.275118,4.63583E+18,-0.535572,-0.689837,-0.415544,0.254185,8
-8.189753,1.164836,-2.093126,-0.53817,0.158835,-0.327244,42.38468,-2.954767,15.756352,4.63583E+18,0.753456,-0.040691,0.654774,0.043807,-9.745893,1.536609,-1.858014,-0.10705,-0.119215,-1.065293,40.31113,-23.454435,2.992337,4.63583E+18,0.401967,-0.561681,0.556732,0.461504,-6.973222,-1.514615,-1.072406,0.918462,-1.307701,-2.619998,43.987783,-5.823643,14.690727,4.63583E+18,-0.532391,-0.685898,-0.419124,0.265402,8
-8.117096,0.883259,-2.366732,-0.331542,-0.190201,-0.393594,42.323067,-2.872727,15.669246,4.63583E+18,0.75397,-0.042685,0.654077,0.043481,-9.401415,1.990382,-1.95414,-0.129046,-0.084901,-1.086824,40.466971,-23.115479,3.155424,4.63583E+18,0.404103,-0.56413,0.55376,0.460226,-7.317465,-0.663893,-1.242208,0.965805,-1.396658,-2.753595,44.198977,-4.724028,14.01368,4.63583E+18,-0.528991,-0.681614,-0.422763,0.277206,8
-8.023668,0.494616,-2.645357,-0.273459,-0.600859,-0.426336,42.387753,-2.751819,15.381666,4.63583E+18,0.755613,-0.044511,0.652091,0.042966,-9.065441,2.239143,-2.322763,-0.274596,-0.001459,-1.103668,40.560262,-22.782928,3.048744,4.63583E+18,0.405725,-0.567012,0.550596,0.459052,-7.805029,-0.074153,-1.290741,0.972799,-1.493206,-2.900756,44.393234,-3.625253,13.585899,4.63583E+18,-0.525469,-0.676843,-0.426518,0.289568,8
-8.018853,0.11361,-2.284044,-0.318657,-0.88773,-0.45192,42.646931,-2.575762,15.107123,4.63583E+18,0.75802,-0.046498,0.649179,0.042547,-9.146469,1.662778,-1.893423,-0.347013,0.064477,-1.135488,40.755073,-22.387844,2.778603,4.63583E+18,0.407074,-0.570206,0.547314,0.457824,-8.594731,0.164709,-1.416359,0.926358,-1.589425,-3.048241,44.588531,-2.459946,13.082971,4.63583E+18,-0.521959,-0.671448,-0.430444,0.30238,8
-7.922375,-0.039796,-1.632517,-0.303612,-1.006256,-0.484979,42.905031,-2.599588,14.911817,4.63583E+18,0.760741,-0.048504,0.645876,0.042004,-9.285694,1.542559,-1.518358,-0.399312,0.098432,-1.184082,41.174073,-21.963402,2.925137,4.63583E+18,0.408307,-0.573646,0.543865,0.456538,-9.078874,0.327734,-1.717511,0.82739,-1.694318,-3.171308,44.828347,-0.998802,12.314394,4.63583E+18,-0.518641,-0.665332,-0.434512,0.315506,8
-7.712878,0.038424,-1.139693,-0.295404,-1.088932,-0.516878,42.978264,-2.593174,14.658691,4.63583E+18,0.763673,-0.050555,0.642291,0.041354,-9.155299,1.749547,-1.87343,-0.474482,0.177491,-1.21187,41.463089,-21.61101,3.140413,4.63583E+18,0.409225,-0.577408,0.540328,0.455171,-9.296906,0.5754,-2.13498,0.791922,-1.742628,-3.259877,45.094714,0.201128,11.621111,4.63583E+18,-0.515265,-0.658753,-0.438662,0.328818,8
-7.526348,-0.21455,-0.713587,-0.360321,-1.221163,-0.516648,43.051515,-2.304764,14.204766,4.63583E+18,0.766922,-0.052789,0.638256,0.040905,-8.770148,1.703854,-2.544273,-0.506573,0.284822,-1.218256,41.508031,-21.215983,3.027194,4.63583E+18,0.409742,-0.581521,0.536778,0.453666,-9.414359,1.165453,-2.595605,0.794228,-1.756155,-3.320995,45.285413,1.306286,11.182217,4.63583E+18,-0.511694,-0.651883,-0.442837,0.342218,8
-7.34125,-0.339603,-0.1779,-0.420256,-1.245913,-0.483083,43.145168,-1.993808,13.673286,4.63583E+18,0.770193,-0.055118,0.634118,0.040727,-9.031922,1.457355,-2.766146,-0.48603,0.329649,-1.241665,41.626727,-20.866346,2.903803,4.63583E+18,0.410319,-0.585626,0.533369,0.451882,-9.446359,1.732353,-3.148412,0.880341,-1.741532,-3.375844,45.323917,2.61615,10.611502,4.63583E+18,-0.507651,-0.644945,-0.446954,0.355766,8
-7.199578,-0.197324,0.261324,-0.474936,-1.051113,-0.466712,43.298439,-1.940977,13.337113,4.63583E+18,0.772911,-0.057612,0.630581,0.0407,-9.395755,1.774933,-2.615015,-0.473622,0.355848,-1.288747,41.897579,-20.462009,3.030523,4.63583E+18,0.410947,-0.58984,0.5299,0.449907,-9.593132,2.026992,-3.543159,1.016199,-1.688429,-3.440058,45.203733,3.935765,9.936504,4.63583E+18,-0.502911,-0.638079,-0.451034,0.369464,8
-7.149533,-0.09947,0.44007,-0.522934,-0.736789,-0.447223,43.465954,-1.896756,13.165589,4.63583E+18,0.774771,-0.060261,0.62804,0.040786,-10.875287,2.219361,-1.974571,-0.475393,0.323655,-1.317365,42.212125,-19.978641,3.141708,4.63583E+18,0.411683,-0.594037,0.526287,0.447949,-9.874122,2.48455,-3.721338,1.143447,-1.632802,-3.479902,45.06948,5.120443,8.997256,4.63583E+18,-0.497529,-0.631314,-0.455015,0.383234,8
-7.222773,0.143265,0.344422,-0.608555,-0.411111,-0.420499,43.621238,-1.738071,13.001316,4.63583E+18,0.775742,-0.063171,0.626534,0.0411,-11.388199,1.122697,-1.962775,-0.383135,0.287357,-1.310914,42.398637,-19.609014,3.086923,4.63583E+18,0.4127,-0.597975,0.522781,0.445874,-10.467413,3.227602,-3.746587,1.30356,-1.573361,-3.472525,44.990794,6.648352,8.110639,4.63583E+18,-0.491484,-0.624813,-0.458716,0.397029,8
-7.343594,0.258987,0.161181,-0.679665,-0.132188,-0.429584,43.750711,-1.647378,12.702972,4.63583E+18,0.775958,-0.066382,0.625908,0.041497,-10.666069,1.252312,-2.350756,-0.282644,0.310119,-1.330316,42.545111,-19.14857,3.05471,4.63583E+18,0.41394,-0.601806,0.519434,0.443476,-11.045385,4.007628,-3.892222,1.468899,-1.492152,-3.41505,45.073234,8.143859,7.48763,4.63583E+18,-0.484811,-0.618718,-0.462032,0.410699,8
-7.631965,0.126702,-0.309861,-0.721273,0.046705,-0.44888,43.81237,-1.709036,12.527582,4.63583E+18,0.77569,-0.069808,0.625841,0.04189,-10.418637,1.80576,-2.05178,-0.237729,0.365175,-1.377395,42.75701,-18.5827,3.192051,4.63583E+18,0.415246,-0.605742,0.516131,0.440745,-11.71919,5.233643,-4.139867,1.655862,-1.408839,-3.307373,44.89292,9.410752,6.900599,4.63583E+18,-0.477545,-0.613179,-0.46479,0.424184,8
-8.031383,-0.028585,-1.057707,-0.756965,0.116333,-0.490333,43.81237,-1.617255,12.618436,4.63583E+18,0.775227,-0.073469,0.625973,0.042223,-10.992459,1.872685,-1.59226,-0.210272,0.409455,-1.468179,42.923533,-18.127572,3.300394,4.63583E+18,0.416679,-0.609882,0.512708,0.437668,-12.235966,6.669839,-4.41843,1.825448,-1.330396,-3.152427,44.607591,10.511242,6.314708,4.63583E+18,-0.469841,-0.608252,-0.466884,0.437376,8
-8.476328,-0.158065,-1.672775,-0.768724,0.122266,-0.559202,43.788587,-1.287701,12.695068,4.63583E+18,0.774746,-0.077348,0.626092,0.042361,-11.422135,1.565777,-1.648197,-0.144314,0.426074,-1.581347,43.135439,-17.712546,3.24564,4.63583E+18,0.418433,-0.614152,0.509126,0.434191,-12.914344,8.355971,-4.777019,1.955207,-1.30398,-2.94269,44.325735,11.742217,5.650936,4.63583E+18,-0.46202,-0.603881,-0.468143,0.450231,8
-9.035144,-0.209537,-2.243666,-0.772951,0.063294,-0.60638,43.658944,-1.026046,12.756737,4.63583E+18,0.774413,-0.081353,0.625996,0.042377,-11.480681,1.23409,-1.752907,-0.002553,0.429963,-1.716581,43.42345,-17.101233,3.36295,4.63583E+18,0.420765,-0.618439,0.505436,0.430145,-13.354464,9.842658,-5.254416,2.087085,-1.26997,-2.684217,44.23396,13.065194,4.701592,4.63583E+18,-0.454175,-0.600187,-0.468457,0.462653,8
-9.438461,-0.237477,-2.653408,-0.719602,0.002126,-0.65451,43.482769,-0.964385,12.729554,4.63583E+18,0.774253,-0.085299,0.625685,0.04212,-11.409535,1.935451,-1.499029,0.157102,0.455816,-1.861666,43.784716,-16.373748,3.770374,4.63583E+18,0.423688,-0.622761,0.501675,0.425416,-13.536049,10.974022,-6.120707,2.194243,-1.229858,-2.391296,43.97172,14.028924,4.002937,4.63583E+18,-0.446449,-0.597213,-0.467806,0.474529,8
-9.652102,-0.500676,-3.093244,-0.65403,-0.14654,-0.705764,43.526915,-0.92024,12.655682,4.63583E+18,0.774501,-0.08914,0.624879,0.041578,-11.426884,3.247491,-1.66835,0.214026,0.525715,-2.022692,43.985538,-15.629233,4.087525,4.63583E+18,0.426869,-0.6274,0.497685,0.420073,-13.783685,12.439565,-7.146347,2.262928,-1.184404,-2.057481,43.546424,14.81216,3.342647,4.63583E+18,-0.439036,-0.594988,-0.466178,0.48571,8
-10.019786,-0.811105,-3.099949,-0.579925,-0.412223,-0.720567,43.685612,-0.714003,12.616308,4.63583E+18,0.775458,-0.092733,0.623213,0.040895,-11.606539,3.716938,-1.661558,0.224944,0.655956,-2.200526,44.122687,-14.884555,4.141172,4.63583E+18,0.430082,-0.632564,0.49344,0.414015,-13.639831,13.963144,-8.39507,2.2775,-1.106381,-1.691776,43.318211,15.658955,2.583474,4.63583E+18,-0.432098,-0.593554,-0.463676,0.495973,8
-10.564331,-0.691621,-2.823068,-0.553788,-0.805939,-0.691332,43.840907,-0.384415,12.45212,4.63583E+18,0.777425,-0.096097,0.620277,0.04039,-12.144005,3.834639,-1.747931,0.307398,0.658952,-2.405011,44.322387,-13.943639,4.194379,4.63583E+18,0.433816,-0.637943,0.488755,0.407371,-13.089893,15.622445,-9.686858,2.244317,-1.010613,-1.29798,43.266313,16.313377,1.903344,4.63583E+18,-0.425808,-0.592931,-0.460372,0.505152,8
-11.034256,-0.501942,-2.070875,-0.555647,-1.117375,-0.688292,43.96702,-0.085384,12.041716,4.63583E+18,0.780174,-0.099405,0.616316,0.040023,-12.984212,3.773456,-1.875707,0.489151,0.633084,-2.633632,44.598136,-13.073614,4.641316,4.63583E+18,0.438423,-0.643335,0.483671,0.39996,-12.626214,17.305976,-11.225395,2.173861,-0.899794,-0.868627,43.096297,16.648028,1.231937,4.63583E+18,-0.420331,-0.593166,-0.456295,0.5131,8
-11.357007,-0.865589,-1.16084,-0.471323,-1.126629,-0.636758,44.040269,0.097012,11.41239,4.63583E+18,0.782946,-0.102301,0.61234,0.03961,-13.308306,4.68187,-2.250008,0.618203,0.722892,-2.851195,44.95649,-12.178163,5.137431,4.63583E+18,0.443497,-0.648985,0.478317,0.39159,-12.030099,18.645858,-12.776658,2.04376,-0.739024,-0.403008,42.913207,16.886492,0.571718,4.63583E+18,-0.415824,-0.594344,-0.451582,0.519537,8
-11.483115,-1.441947,-0.815265,-0.454589,-0.860317,-0.533869,44.09314,0.134939,11.008999,4.63583E+18,0.785008,-0.104922,0.609264,0.039376,-13.940649,5.145932,-3.234279,0.726412,0.837816,-3.066229,45.260209,-10.879457,5.370644,4.63583E+18,0.448908,-0.65494,0.472691,0.382228,-10.886236,19.396309,-14.204721,1.862398,-0.532617,0.050343,42.952387,17.051743,0.079243,4.63583E+18,-0.412329,-0.596463,-0.446462,0.524298,8
-11.552959,-1.828412,-1.123108,-0.572892,-0.527976,-0.430038,44.113495,0.117346,10.846265,4.63583E+18,0.786145,-0.107719,0.607291,0.039637,-14.871261,5.088259,-3.204607,0.953045,0.962214,-3.28523,45.484889,-9.594395,5.688115,4.63583E+18,0.454949,-0.660971,0.466964,0.371596,-10.001118,20.692317,-15.554092,1.580261,-0.287181,0.508978,43.091225,16.854773,-0.207898,4.63583E+18,-0.410057,-0.599452,-0.441214,0.527105,8
-11.641121,-1.974215,-1.451345,-0.613116,-0.210894,-0.361745,44.190125,0.27942,10.790669,4.63583E+18,0.78644,-0.110526,0.606374,0.04008,-16.156161,6.016052,-2.907372,1.266497,1.070779,-3.545329,45.627031,-8.414587,6.343941,4.63583E+18,0.461935,-0.66692,0.461105,0.359468,-8.535466,21.469302,-16.430005,1.167137,-0.01402,0.93128,43.182133,16.622857,-0.487545,4.63583E+18,-0.409225,-0.603085,-0.436266,0.527727,8
-11.864253,-2.212263,-1.946409,-0.551516,-0.047884,-0.316644,44.228099,0.470671,10.84899,4.63583E+18,0.786338,-0.113045,0.606018,0.04044,-17.928,7.516341,-2.900377,1.579148,1.177411,-3.86349,45.730426,-6.881172,7.004536,4.63583E+18,0.469925,-0.672837,0.454905,0.34572,-6.987501,21.389407,-16.671086,0.684701,0.284864,1.337304,43.189793,16.390946,-0.601605,4.63583E+18,-0.409938,-0.607266,-0.431851,0.526007,8
-12.404109,-2.519482,-2.212946,-0.448739,0.020292,-0.220983,44.186733,0.66734,10.785912,4.63583E+18,0.786092,-0.114996,0.605944,0.040823,-19.959896,9.399018,-3.337857,1.961085,1.23052,-4.237301,45.837404,-5.158758,7.499108,4.63583E+18,0.47925,-0.678546,0.448148,0.33024,-4.559084,20.675047,-16.709746,0.198454,0.627924,1.674105,43.28981,15.592221,-0.42145,4.63583E+18,-0.411984,-0.611945,-0.428215,0.521944,8
-13.236914,-2.562857,-2.53914,-0.358535,-0.119463,-0.110315,44.287107,0.676149,10.621116,4.63583E+18,0.78622,-0.116348,0.60548,0.041407,-23.230434,11.600643,-3.224088,2.530958,1.182667,-4.617412,45.816519,-3.226417,8.006791,4.63583E+18,0.490578,-0.683452,0.440802,0.312922,-2.400183,20.261632,-16.067454,-0.195139,0.926424,1.906902,43.466334,14.815569,-0.225056,4.63583E+18,-0.414978,-0.616972,-0.425324,0.515982,8
-13.765204,-2.111203,-2.400111,-0.141826,-0.373199,-0.060172,44.410534,0.537804,10.559403,4.63583E+18,0.787083,-0.11682,0.604245,0.041731,-28.204217,14.721383,-1.907269,3.342031,0.954495,-4.746305,45.811517,-1.236427,8.400995,4.63583E+18,0.503961,-0.687093,0.43212,0.295295,-0.442792,18.272022,-14.537172,-0.516471,1.129741,2.014443,43.782784,14.324301,-0.118633,4.63583E+18,-0.418634,-0.622017,-0.423163,0.508698,8
-13.814782,-2.037951,-2.079315,0.11772,-0.688974,0.008009,44.386804,0.496428,10.505165,4.63583E+18,0.78885,-0.116214,0.60205,0.041779,-32.615665,18.52253,-2.123574,4.091255,0.627479,-4.598447,45.83306,0.612996,8.670911,4.63583E+18,0.519666,-0.687991,0.423874,0.277391,1.37576,16.857032,-11.903824,-0.685717,1.253155,2.11251,44.279002,13.649375,0.390096,4.63583E+18,-0.422674,-0.627136,-0.421277,0.500572,8
-12.534592,-2.191189,-2.056325,0.28897,-1.102831,-0.002301,44.321691,0.593396,10.228506,4.63583E+18,0.791728,-0.114997,0.59851,0.041563,-32.826222,24.983573,-2.045747,4.299557,0.532185,-4.608885,45.726748,2.625017,8.915045,4.63583E+18,0.535885,-0.687808,0.415416,0.259186,5.248926,13.9477,-10.547055,-1.063217,1.528041,2.067874,44.580614,12.8869,1.139406,4.63583E+18,-0.427074,-0.632008,-0.420728,0.491081,8
-10.094706,-2.629166,-1.687364,0.471788,-1.256231,-0.100213,44.356918,0.752074,9.767373,4.63583E+18,0.795072,-0.113392,0.594434,0.040639,-30.707803,30.139871,-2.749654,3.951025,0.585668,-4.797957,45.524253,4.690748,9.159171,4.63583E+18,0.550937,-0.688241,0.405954,0.240822,8.09297,32.815093,-11.970531,-0.958164,1.813716,1.694153,44.572521,12.173384,1.908473,4.63583E+18,-0.429876,-0.636917,-0.421403,0.481625,8
-8.038356,-3.247744,-1.487387,0.627193,-1.055152,-0.158723,44.491894,0.866726,9.349658,4.63583E+18,0.797977,-0.111448,0.591005,0.03904,-29.745136,29.708525,-3.690938,3.180825,0.709689,-5.013821,45.360557,6.762887,9.328609,4.63583E+18,0.563502,-0.690426,0.395164,0.222761,-2.928044,39.949641,-8.50004,-1.28838,1.211349,1.917326,44.602559,11.465355,2.588658,4.63583E+18,-0.435009,-0.64034,-0.42102,0.472731,8
-6.580713,-3.530632,-0.857483,0.791047,-0.653254,-0.229449,44.565145,0.863337,8.891815,4.63583E+18,0.799962,-0.109197,0.588894,0.036615,-31.036899,24.124219,-3.22494,2.67252,0.74808,-4.983227,44.962036,8.894094,9.475094,4.63583E+18,0.574247,-0.693322,0.383889,0.205363,-8.062045,0.475772,3.810758,-0.610847,1.148355,1.850619,44.861356,10.835164,3.348863,4.63583E+18,-0.438268,-0.644685,-0.419322,0.465265,8
-5.474559,-3.594408,0.234472,0.866545,-0.369697,-0.373801,44.662102,0.922279,8.533726,4.63583E+18,0.801292,-0.10709,0.587662,0.033392,-32.226882,17.010966,-4.798359,2.323642,0.644462,-5.018791,44.42989,10.912094,9.537574,4.63583E+18,0.583926,-0.696582,0.37179,0.188617,-4.50551,-6.178198,12.068216,-0.765962,1.012194,1.57616,44.986587,10.290413,3.85126,4.63583E+18,-0.441615,-0.647952,-0.418381,0.458358,8
-4.750798,-3.5429,1.082713,0.635384,-0.41131,-0.567791,44.797077,1.213823,8.279372,4.63583E+18,0.802634,-0.106224,0.586164,0.030106,-30.041723,15.578799,-5.010783,1.77313,0.915086,-4.998995,43.871256,13.085603,9.732889,4.63583E+18,0.591326,-0.700947,0.359811,0.17188,-12.711921,-3.068506,2.049182,0.128302,0.644911,1.934794,45.163117,9.531063,4.071898,4.63583E+18,-0.443841,-0.652742,-0.414059,0.453309,8
-4.626534,-3.339539,2.199655,0.347914,-0.597587,-0.679811,44.846612,1.625488,8.133589,4.63583E+18,0.804305,-0.106569,0.583948,0.027228,-25.087844,14.653957,-3.693873,1.439998,1.477164,-4.448923,43.197717,15.058124,10.11705,4.63583E+18,0.596514,-0.704857,0.351422,0.154436,-17.96094,6.451328,-2.387838,1.001345,0.828589,2.041873,45.346209,8.683222,4.278305,4.63583E+18,-0.443539,-0.659621,-0.408099,0.44903,8
-4.94447,-2.673896,3.392554,0.403705,-0.866743,-0.664602,44.858111,1.963974,7.902364,4.63583E+18,0.806638,-0.106658,0.580832,0.024385,-21.981525,13.335678,-1.313706,1.141262,1.35276,-4.030101,42.368417,16.511423,10.478935,4.63583E+18,0.60051,-0.70855,0.343637,0.138773,-16.330613,2.451669,-6.043312,0.720205,1.20887,1.936941,45.396033,7.895357,4.652437,4.63583E+18,-0.443124,-0.666447,-0.403616,0.443377,8
-5.687443,-1.067844,4.607039,0.473375,-0.829607,-0.569716,44.958434,2.08408,7.636496,4.63583E+18,0.808883,-0.106285,0.577877,0.021675,-18.204433,14.350452,3.84889,0.083947,1.498663,-3.535704,41.576452,17.568366,10.979346,4.63583E+18,0.600543,-0.714507,0.336014,0.126189,-19.957974,-4.299085,-8.07167,0.252195,0.985871,2.149404,45.432655,7.32512,5.120825,4.63583E+18,-0.444732,-0.67229,-0.398956,0.43712,8
-7.145786,1.024117,5.88071,0.302209,-0.159108,-0.535871,45.034543,2.166667,7.515659,4.63583E+18,0.809424,-0.106468,0.577173,0.019193,-13.479754,1.67569,5.799755,-1.501731,1.842645,-3.806672,41.050031,18.806218,11.593986,4.63583E+18,0.595361,-0.724777,0.327447,0.114115,-21.770194,-4.308759,-3.553309,0.504774,1.35383,2.105465,45.602542,6.642577,5.51912,4.63583E+18,-0.444894,-0.679126,-0.3946,0.430288,8
-9.382948,1.947239,6.177281,0.031161,0.600125,-0.613458,44.867032,2.499641,7.646447,4.63583E+18,0.808016,-0.107812,0.578969,0.016764,-19.692198,-0.732311,3.085921,-2.238338,1.079386,-3.306707,40.533036,20.059296,12.303425,4.63583E+18,0.588742,-0.735133,0.319039,0.105719,-19.746925,-7.11312,-8.140989,0.338775,1.461851,2.1815,45.796737,5.80248,5.90971,4.63583E+18,-0.445433,-0.685895,-0.390479,0.422686,8
-11.486419,1.184512,3.652732,-0.269838,0.563815,-0.541271,44.772646,2.790658,7.873049,4.63583E+18,0.806546,-0.109992,0.580647,0.015321,-17.519756,12.05645,1.124314,-2.515782,1.268869,-1.48758,39.967967,20.405724,13.129108,4.63583E+18,0.580076,-0.74369,0.31641,0.101598,-13.357855,-0.84615,-9.031492,0.358241,1.681489,2.394716,45.847696,4.947971,6.389177,4.63583E+18,-0.445875,-0.69334,-0.38607,0.414036,8
-12.429192,-0.619651,0.200446,-0.333019,-0.227839,-0.173639,44.849273,2.905362,7.880668,4.63583E+18,0.806932,-0.111444,0.579825,0.01563,-10.075674,21.276066,0.336244,-2.512557,1.729518,-0.331072,39.580811,20.348335,14.058331,4.63583E+18,0.570226,-0.750787,0.318427,0.098824,-8.225622,2.846894,-6.016785,0.165857,1.744402,2.282957,45.751078,4.149061,7.132788,4.63583E+18,-0.446513,-0.700255,-0.382376,0.405041,8
-12.558349,-2.160469,-2.227364,-0.225287,-0.939052,0.250399,44.907654,2.857997,7.583866,4.63583E+18,0.809051,-0.111462,0.57681,0.017433,-9.453824,21.550161,0.074006,-2.619305,1.728236,0.156538,39.493827,20.260004,15.30915,4.63583E+18,0.559749,-0.757368,0.321868,0.09734,-5.877532,5.103609,-3.192722,-0.00036,1.792275,2.140605,45.563495,3.366691,7.824127,4.63583E+18,-0.447257,-0.706618,-0.379413,0.395851,8
-13.085982,-3.240977,-2.590565,0.18116,-1.021693,0.610794,44.942784,2.687123,7.04609,4.63583E+18,0.811513,-0.109235,0.573701,0.019513,-9.577942,14.821413,1.650621,-2.520408,1.453205,0.758077,39.378995,19.726754,16.222562,4.63583E+18,0.549619,-0.762681,0.326553,0.09798,-5.84409,7.696225,-1.809495,-0.132505,1.74805,1.992712,45.57913,2.507698,8.330096,4.63583E+18,-0.448159,-0.712337,-0.376974,0.386808,8
-13.383442,-3.27984,-1.972509,0.453732,-0.780813,0.777316,45.081194,2.492552,6.651148,4.63583E+18,0.81349,-0.105705,0.571492,0.021393,-9.599977,9.063339,3.613122,-2.127107,1.101196,1.499287,39.363119,18.747535,16.863861,4.63583E+18,0.540836,-0.765831,0.332898,0.100888,-5.848452,9.167079,-1.075145,-0.308363,1.601396,1.745175,45.54914,1.785386,8.995962,4.63583E+18,-0.449366,-0.717025,-0.375237,0.378343,8
-13.252719,-3.383553,-1.621698,0.450808,-0.853685,0.760864,45.142979,2.239577,6.495086,4.63583E+18,0.81562,-0.102215,0.569013,0.023254,-8.484201,5.572445,3.468023,-1.506999,0.663997,2.303574,39.63941,17.673283,17.396722,4.63583E+18,0.534224,-0.766181,0.341038,0.106132,-6.235894,8.723664,-0.791187,-0.351915,1.452247,1.530494,45.434808,1.221682,9.668469,4.63583E+18,-0.450557,-0.720997,-0.373897,0.370624,8
-12.97533,-4.07279,-1.306724,0.442736,-1.204843,0.715198,45.186933,1.992048,6.30482,4.63583E+18,0.818557,-0.098823,0.565303,0.025128,-6.609721,5.436862,2.229766,-0.890383,0.161226,3.233263,39.984064,16.72039,17.750816,4.63583E+18,0.529794,-0.763489,0.351241,0.114159,-6.818572,6.957646,-1.324135,-0.330341,1.331944,1.354067,45.379344,0.750059,10.084544,4.63583E+18,-0.451566,-0.724498,-0.372802,0.363605,8
-12.764245,-4.686934,-0.498756,0.421676,-1.096167,0.69722,45.321961,1.715406,5.840939,4.63583E+18,0.821202,-0.095553,0.561935,0.026943,-4.750553,7.909925,1.204806,-0.588808,-0.231437,4.172473,40.353844,15.366477,17.85079,4.63583E+18,0.526316,-0.758378,0.363619,0.12504,-6.783978,6.520947,-2.12305,-0.329864,1.171744,1.231564,45.319425,0.130897,10.397405,4.63583E+18,-0.452611,-0.727525,-0.371753,0.357281,8
-12.436136,-5.339331,0.170142,0.542902,-0.473363,0.623976,45.33097,1.429766,5.481874,4.63583E+18,0.822425,-0.092107,0.560669,0.027975,-3.96694,9.97105,0.438422,-0.638996,-0.453048,5.010933,40.984177,13.569198,17.682191,4.63583E+18,0.522378,-0.751707,0.377993,0.13849,-8.82832,7.12695,-2.685664,-0.346567,1.00531,1.129608,45.269489,-0.481678,10.691485,4.63583E+18,-0.453792,-0.730081,-0.370708,0.35161,8
-11.431113,-5.383465,-0.672972,0.798069,-0.165463,0.427884,45.168912,1.282538,5.338986,4.63583E+18,0.823037,-0.08828,0.560405,0.027618,-4.594336,10.071398,-0.085846,-0.811725,-0.649858,5.745384,41.757382,11.733303,17.44096,4.63583E+18,0.517511,-0.743752,0.393941,0.154357,-9.199975,7.467655,-2.778857,-0.3589,0.93287,0.999083,45.009755,-0.903418,11.250889,4.63583E+18,-0.454914,-0.732279,-0.369926,0.346375,8
-10.715489,-5.177397,-1.416519,1.129261,-0.318302,0.279042,45.068966,1.22074,5.049412,4.63583E+18,0.824128,-0.083646,0.559588,0.026033,-6.127543,8.984908,-0.260599,-0.947796,-0.855807,6.41593,42.429581,9.60675,17.206151,4.63583E+18,0.511782,-0.734362,0.411169,0.172431,-10.137661,7.439859,-3.027427,-0.405603,0.753342,0.85394,44.784532,-1.150818,11.736847,4.63583E+18,-0.456232,-0.733884,-0.369303,0.34188,8
-10.888054,-4.294281,-0.784534,1.442295,-0.305817,0.141639,45.218593,1.173452,4.846339,4.63583E+18,0.825287,-0.078256,0.558782,0.023239,-8.088378,7.87744,-0.224815,-1.061152,-1.018963,7.037188,43.017738,7.123879,17.198031,4.63583E+18,0.505116,-0.723431,0.429528,0.192383,-11.461716,6.679624,-2.79659,-0.381036,0.75052,0.801788,44.931022,-1.460467,12.046504,4.63583E+18,-0.457394,-0.735434,-0.368791,0.337523,8
-11.996527,-3.130275,0.164937,1.66545,0.080641,-0.023752,45.451539,1.09711,4.951017,4.63583E+18,0.825598,-0.07252,0.559249,0.019228,-9.576668,7.433808,-0.487268,-1.196707,-1.108928,7.549135,43.591432,4.36474,16.969996,4.63583E+18,0.4973,-0.7111,0.448712,0.213743,-13.9044,5.805118,-3.092935,-0.322771,0.707305,0.843549,45.036447,-2.055324,12.417174,4.63583E+18,-0.458492,-0.737081,-0.367979,0.3333,8
-13.877775,-2.37057,0.402579,1.908807,0.406464,-0.204723,45.413096,1.359185,5.245029,4.63583E+18,0.825189,-0.066391,0.560769,0.013927,-10.21439,7.559782,-1.25451,-1.437766,-1.126644,7.949302,43.866801,1.302188,16.214285,4.63583E+18,0.4879,-0.697728,0.468335,0.236204,-17.454208,6.646332,-3.369232,-0.238589,0.687305,0.84908,44.923251,-2.400406,12.728979,4.63583E+18,-0.459359,-0.738854,-0.366986,0.32925,8
-16.016809,-2.276274,-0.170845,2.185462,0.215752,-0.346666,45.221949,1.812393,5.294637,4.63583E+18,0.825246,-0.059628,0.561566,0.007541,-10.84683,7.34697,-2.182979,-1.755596,-1.141584,8.263032,43.984638,-1.704642,15.61222,4.63583E+18,0.476702,-0.683533,0.487957,0.259683,-18.429812,6.183638,-2.561385,-0.148186,0.778965,0.956957,44.700194,-2.506952,12.934288,4.63583E+18,-0.459945,-0.741073,-0.365704,0.324842,8
-17.223851,-2.663189,-1.196709,2.480371,-0.458871,-0.439746,45.133047,1.979986,5.2082,4.63583E+18,0.826874,-0.052044,0.559973,0.000311,-11.915469,6.564134,-2.889686,-2.033069,-1.231783,8.490074,43.905131,-5.136677,15.32337,4.63583E+18,0.464026,-0.668441,0.507105,0.284097,-19.337484,3.332015,-2.700016,-0.017598,0.903826,1.159974,44.557044,-2.93636,13.051915,4.63583E+18,-0.460198,-0.743997,-0.363846,0.319848,8
-17.052792,-2.943843,-1.540275,2.81825,-1.222991,-0.506636,45.609102,1.60885,4.795771,4.63583E+18,0.830241,-0.043445,0.555654,-0.007775,-13.146134,5.070609,-3.477821,-2.239842,-1.321091,8.653795,43.575073,-8.50814,14.730732,4.63583E+18,0.450124,-0.652374,0.525585,0.309122,-23.005827,1.542862,-4.67506,-0.02767,0.942587,1.482143,44.489336,-3.544477,13.23945,4.63583E+18,-0.460832,-0.747408,-0.36106,0.314087,8
-16.051939,-2.485744,-0.393411,2.999463,-1.635204,-0.556071,46.405702,1.166949,4.032213,4.63583E+18,0.834487,-0.036223,0.549669,-0.013521,-14.204923,3.099672,-4.023649,-2.352484,-1.325024,8.790548,43.128457,-11.770029,13.882777,4.63583E+18,0.435095,-0.635275,0.543522,0.334218,-27.581262,1.84656,-4.593366,-0.220196,1.032688,1.856181,44.372821,-4.178151,13.789824,4.63583E+18,-0.46239,-0.751081,-0.357511,0.307016,8
-14.42697,-1.844302,2.032788,2.996679,-1.484276,-0.576447,46.799812,1.436922,3.274658,4.63583E+18,0.8382,-0.027315,0.544236,-0.02193,-14.245569,1.577501,-5.017581,-2.421556,-1.175837,8.891175,42.366261,-15.389923,13.131542,4.63583E+18,0.418755,-0.617342,0.561089,0.358765,-30.233981,-0.659819,-5.053771,-0.485863,1.083191,2.344983,44.173081,-4.735267,14.198252,4.63583E+18,-0.465283,-0.75496,-0.352835,0.29842,8
-12.486654,-1.046721,3.710922,2.822371,-0.917505,-0.618264,46.787604,1.910793,2.686736,4.63583E+18,0.840458,-0.019038,0.540701,-0.030173,-14.166359,-0.159552,-6.451031,-2.233346,-1.060206,9.042315,41.427948,-18.686817,12.637999,4.63583E+18,0.401766,-0.59797,0.578675,0.382298,-30.302153,-4.232714,-6.201018,-0.839656,1.066018,2.805021,43.899013,-5.506424,14.522281,4.63583E+18,-0.469819,-0.758701,-0.347067,0.288423,8
-11.331507,-0.021991,4.210437,2.601399,0.066662,-0.659863,46.802383,2.11108,2.519869,4.63583E+18,0.840359,-0.011511,0.540564,-0.038128,-14.962137,-2.574075,-7.836969,-1.569431,-1.220103,9.153412,40.212031,-21.717669,11.987104,4.63583E+18,0.386022,-0.576055,0.596441,0.404234,-31.262843,-6.961882,-6.211381,-1.153217,0.967773,3.208696,43.773562,-6.932257,14.83967,4.63583E+18,-0.475883,-0.762146,-0.340142,0.277438,8
