Accelerometer-X,Accelerometer-Y,Accelerometer-Z,Gyroscope-X,Gyroscope-Y,Gyroscope-Z,Magnetometer-X,Magnetometer-Y,Magnetometer-Z,Barometer-pressure,Orientation-S,Orientation-X,Orientation-Y,Orientation-Z,Accelerometer-X,Accelerometer-Y,Accelerometer-Z,Gyroscope-X,Gyroscope-Y,Gyroscope-Z,Magnetometer-X,Magnetometer-Y,Magnetometer-Z,Barometer-pressure,Orientation-S,Orientation-X,Orientation-Y,Orientation-Z,Accelerometer-X,Accelerometer-Y,Accelerometer-Z,Gyroscope-X,Gyroscope-Y,Gyroscope-Z,Magnetometer-X,Magnetometer-Y,Magnetometer-Z,Barometer-pressure,Orientation-S,Orientation-X,Orientation-Y,Orientation-Z,jump
-12.378374,0.663469,-2.134962,0.434194,0.574459,-0.333583,33.464027,-17.172146,27.325972,4.63583E+18,0.56746,-0.14312,0.78418,0.206321,-9.43397,2.303266,1.437756,0.191695,-0.023123,-0.101765,37.193119,-26.685383,-8.068851,4.63583E+18,-0.437723,0.45736,-0.42793,-0.645056,-9.731793,-0.931416,-1.067417,0.388573,-0.118956,-0.165585,40.824178,20.686176,1.635792,4.63583E+18,0.3951,0.578432,0.507078,-0.502179,0
-11.866794,0.494699,-2.648475,0.431146,0.455865,-0.271595,33.433209,-16.853286,27.574457,4.63583E+18,0.566468,-0.143386,0.785458,0.203988,-9.699322,1.967753,1.572033,0.182674,0.015276,-0.110839,37.318634,-26.685383,-7.995849,4.63583E+18,-0.438367,0.457367,-0.42817,-0.644454,-9.72195,-0.479117,-0.816068,0.294169,-0.130096,-0.156604,40.801865,20.922957,1.596942,4.63583E+18,0.394401,0.578354,0.506546,-0.503353,0
-10.807484,0.320927,-3.128832,0.394071,0.23177,-0.121085,33.370703,-16.586191,27.852359,4.63583E+18,0.566056,-0.143056,0.78626,0.202263,-9.832777,1.705499,1.678575,0.191488,0.037166,-0.119123,37.519626,-26.685383,-7.971206,4.63583E+18,-0.438591,0.45771,-0.42816,-0.644064,-9.739012,-0.385373,-0.564445,0.206951,-0.125859,-0.15232,40.875105,20.94373,1.426451,4.63583E+18,0.393912,0.57815,0.506193,-0.504325,0
-9.722493,0.271431,-3.384386,0.419671,-0.072927,0.056105,33.285253,-16.528824,27.918331,4.63583E+18,0.566507,-0.141827,0.786468,0.201054,-9.710714,1.516468,1.653719,0.206759,0.048028,-0.12684,37.552832,-26.663828,-7.89819,4.63583E+18,-0.439439,0.457674,-0.428617,-0.643207,-9.724586,-0.527135,-0.434612,0.144529,-0.116222,-0.149128,40.885232,20.723457,1.145701,4.63583E+18,0.39356,0.57787,0.505979,-0.505136,0
-8.940683,0.492673,-3.29955,0.493378,-0.372349,0.229,33.330538,-16.594189,27.628856,4.63583E+18,0.567834,-0.139606,0.78613,0.200187,-9.576323,1.428376,1.45818,0.236109,0.031477,-0.127119,37.488937,-26.599932,-7.89819,4.63583E+18,-0.440199,0.457656,-0.428997,-0.642446,-9.685326,-0.692762,-0.446678,0.103672,-0.114292,-0.136772,40.79978,20.800711,0.976592,4.63583E+18,0.393327,0.577552,0.505823,-0.505836,0
-8.431674,0.981681,-2.904591,0.53967,-0.642929,0.368023,33.472,-16.614275,27.315826,4.63583E+18,0.569952,-0.136594,0.785261,0.199653,-9.408504,1.464888,1.161915,0.256932,0.025144,-0.128428,37.510489,-26.599932,-7.922822,4.63583E+18,-0.441013,0.457586,-0.429418,-0.641656,-9.624719,-1.029271,-0.505214,0.085889,-0.110044,-0.113286,40.714334,21.047631,1.015426,4.63583E+18,0.393178,0.577264,0.505655,-0.506449,0
-7.989349,1.50299,-2.197984,0.535706,-0.783401,0.450701,33.630692,-16.492906,27.237588,4.63583E+18,0.57245,-0.133201,0.78409,0.199405,-9.302145,1.443343,0.848154,0.273464,0.038444,-0.12149,37.595932,-26.621477,-7.995849,4.63583E+18,-0.441732,0.457563,-0.429861,-0.640881,-9.453827,-1.279425,-0.505653,0.088412,-0.09809,-0.081913,40.604621,21.080129,1.074252,4.63583E+18,0.393063,0.577071,0.505425,-0.506987,0
-7.456522,1.941012,-1.519408,0.460866,-0.670279,0.45371,33.724036,-16.390228,27.234716,4.63583E+18,0.574524,-0.130068,0.783114,0.199342,-9.363286,1.360969,0.732236,0.283356,0.029863,-0.116419,37.61675,-26.663838,-7.971226,4.63583E+18,-0.442708,0.457332,-0.430492,-0.639949,-9.413965,-1.160295,-0.390933,0.09401,-0.087176,-0.047282,40.453278,20.979672,1.079105,4.63583E+18,0.392985,0.576983,0.505118,-0.507453,0
-7.025722,2.178661,-0.835135,0.396535,-0.307064,0.451324,33.862618,-16.435473,27.160037,4.63583E+18,0.575373,-0.127398,0.782944,0.199284,-9.399393,1.327735,0.643812,0.292933,0.014424,-0.110531,37.488937,-26.559924,-7.876648,4.63583E+18,-0.44356,0.457134,-0.43102,-0.639144,-9.538684,-0.925864,-0.351362,0.067439,-0.086712,-0.024813,40.386791,21.006288,1.120428,4.63583E+18,0.393017,0.5769,0.504814,-0.507826,0
-6.775116,2.28709,-0.671407,0.356511,0.129042,0.451827,33.909294,-16.642273,27.370423,4.63583E+18,0.574774,-0.125183,0.783781,0.199125,-9.286757,1.416255,0.613545,0.280576,0.021137,-0.09985,37.52893,-26.398165,-7.788127,4.63583E+18,-0.444347,0.456957,-0.431548,-0.638367,-9.63133,-0.647924,-0.412548,0.012516,-0.090587,-0.01242,40.527958,21.05777,1.205874,4.63583E+18,0.393216,0.576744,0.504589,-0.508072,0
-6.838295,2.381876,-1.203482,0.320446,0.432968,0.43059,33.669465,-16.755736,27.815628,4.63583E+18,0.573178,-0.123375,0.7853,0.198873,-9.317619,1.520067,0.646894,0.241055,0.029857,-0.090246,37.690702,-26.310325,-7.690468,4.63583E+18,-0.445018,0.45686,-0.432004,-0.637661,-9.729145,-0.388444,-0.388444,-0.031949,-0.089505,-0.003218,40.70418,21.062622,1.218547,4.63583E+18,0.393539,0.576537,0.504438,-0.508207,0
-7.134138,2.442197,-1.796623,0.311082,0.564796,0.413437,33.352073,-16.772972,28.005216,4.63583E+18,0.571154,-0.121754,0.787109,0.198541,-9.396335,1.632909,0.604218,0.199651,0.010951,-0.083299,37.797002,-26.472092,-7.568203,4.63583E+18,-0.44542,0.456915,-0.432181,-0.63722,-9.722261,-0.431478,-0.344154,-0.065937,-0.087821,0.002122,40.748314,21.069979,1.125744,4.63583E+18,0.39395,0.57629,0.504349,-0.508257,0
-7.457276,2.491027,-2.292821,0.323083,0.553742,0.398734,33.212038,-16.70763,27.878844,4.63583E+18,0.569179,-0.120142,0.788887,0.198138,-9.268401,1.684529,0.598255,0.148082,0.021705,-0.073678,37.711558,-26.578407,-7.422101,4.63583E+18,-0.446046,0.456828,-0.432522,-0.636612,-9.622103,-0.624759,-0.375923,-0.077798,-0.07992,0.008312,40.811369,21.040875,1.069401,4.63583E+18,0.394387,0.576052,0.504283,-0.508253,0
-7.802672,2.474514,-2.638224,0.340739,0.47181,0.377245,33.070579,-16.687521,28.05691,4.63583E+18,0.567495,-0.118491,0.790467,0.197666,-9.320952,1.6111,0.699358,0.089921,0.053424,-0.06086,37.647633,-26.474506,-7.446701,4.63583E+18,-0.446308,0.457021,-0.432676,-0.636186,-9.590006,-0.649662,-0.42459,-0.059668,-0.074346,0.016213,40.81,20.991882,1.028091,4.63583E+18,0.394785,0.575872,0.504169,-0.508261,0
-8.128654,2.409894,-2.812712,0.340928,0.372105,0.345582,32.855896,-16.808856,28.349861,4.63583E+18,0.566161,-0.116859,0.79179,0.197165,-9.607589,1.458467,0.961855,0.060338,0.060892,-0.047774,37.669154,-26.334262,-7.544357,4.63583E+18,-0.446465,0.457266,-0.432789,-0.635823,-9.643683,-0.573913,-0.548837,-0.032131,-0.074551,0.019666,40.633761,21.047574,1.015391,4.63583E+18,0.395125,0.575744,0.503988,-0.508322,0
-8.399371,2.373985,-2.76966,0.334771,0.304934,0.307319,32.670629,-16.911549,28.353503,4.63583E+18,0.565074,-0.115313,0.792926,0.196627,-9.732204,1.309095,1.156545,0.057157,0.067316,-0.031738,37.754594,-26.310282,-7.56825,4.63583E+18,-0.446562,0.457505,-0.432937,-0.635482,-9.646528,-0.585616,-0.693143,-0.000938,-0.07796,0.017939,40.652653,21.080186,1.074252,4.63583E+18,0.395394,0.575657,0.503739,-0.508458,0
-8.637061,2.396236,-2.718666,0.330812,0.300588,0.257997,32.57439,-16.866336,28.408048,4.63583E+18,0.564037,-0.113935,0.794022,0.195986,-9.686698,1.23901,1.074005,0.065447,0.075025,-0.011997,37.836969,-26.450534,-7.372943,4.63583E+18,-0.446398,0.457857,-0.433006,-0.635296,-9.595019,-0.683445,-0.720407,0.027697,-0.084149,0.017105,40.748314,20.955432,1.03546,4.63583E+18,0.395604,0.575602,0.503421,-0.508671,0
-8.915614,2.414189,-2.794022,0.302298,0.314784,0.226895,32.557144,-16.715583,28.71097,4.63583E+18,0.562963,-0.112738,0.795109,0.195358,-9.7538,1.260691,0.976677,0.084174,0.065665,0.000829,37.873342,-26.514481,-7.275952,4.63583E+18,-0.446621,0.457875,-0.433398,-0.634859,-9.633806,-0.662056,-0.678766,0.052703,-0.096292,0.010916,40.685284,20.911282,0.976592,4.63583E+18,0.395768,0.575549,0.503045,-0.508976,0
-9.152613,2.435729,-2.922555,0.277411,0.351784,0.22029,32.557144,-16.740633,28.731945,4.63583E+18,0.561757,-0.111651,0.796256,0.19478,-9.753474,1.416301,0.979423,0.11137,0.056088,0.017119,37.775527,-26.496048,-7.446677,4.63583E+18,-0.446856,0.457798,-0.433864,-0.634431,-9.721763,-0.5689,-0.681102,0.072163,-0.112125,0.00344,40.589615,20.940367,0.94266,4.63583E+18,0.395901,0.575479,0.502619,-0.509372,0
-9.437647,2.413489,-3.103481,0.2536,0.384146,0.243715,32.426517,-16.760765,28.562524,4.63583E+18,0.560412,-0.110568,0.797467,0.194319,-9.62849,1.519782,0.820572,0.119908,0.06411,0.033133,37.607702,-26.419733,-7.498259,4.63583E+18,-0.446907,0.457796,-0.434295,-0.634102,-9.775618,-0.571236,-0.681279,0.084997,-0.121534,-0.006582,40.652634,20.955441,0.85236,4.63583E+18,0.396003,0.575389,0.502175,-0.509833,0
-9.761484,2.442179,-3.326785,0.219236,0.403188,0.26571,32.143654,-16.760765,28.665779,4.63583E+18,0.558967,-0.109507,0.798701,0.194014,-9.616587,1.473876,0.619358,0.129547,0.069672,0.043263,37.528854,-26.355783,-7.455802,4.63583E+18,-0.446939,0.457772,-0.43478,-0.633764,-9.795184,-0.556874,-0.639812,0.095458,-0.126466,-0.020043,40.777395,20.8822,0.754706,4.63583E+18,0.396061,0.575278,0.501732,-0.51035,0
-10.100414,2.453688,-3.446762,0.182668,0.443702,0.277589,31.891574,-16.882058,29.019711,4.63583E+18,0.557358,-0.108523,0.800001,0.193839,-9.710952,1.406997,0.555549,0.152784,0.055799,0.047549,37.687549,-26.374207,-7.495196,4.63583E+18,-0.44703,0.457661,-0.435309,-0.633417,-9.817083,-0.469097,-0.576448,0.108903,-0.129654,-0.030316,40.753712,20.89619,0.657054,4.63583E+18,0.396071,0.57516,0.501279,-0.510919,0
-10.358228,2.351068,-3.634827,0.158598,0.469724,0.271692,31.715629,-16.91946,29.329227,4.63583E+18,0.555653,-0.107636,0.801335,0.193717,-9.652762,1.486457,0.619582,0.175196,0.051278,0.05823,37.787904,-26.432098,-7.351479,4.63583E+18,-0.447143,0.457477,-0.435909,-0.633058,-9.844013,-0.441613,-0.515226,0.116868,-0.134791,-0.038845,40.621577,20.984526,0.598163,4.63583E+18,0.396054,0.575026,0.500821,-0.511531,0
-10.52486,2.067529,-3.873211,0.151364,0.448137,0.252848,31.743514,-16.854159,29.470057,4.63583E+18,0.55403,-0.10681,0.802601,0.193585,-9.512491,1.599243,0.631642,0.185058,0.056356,0.067031,37.711591,-26.419744,-7.092208,4.63583E+18,-0.447242,0.457272,-0.43656,-0.632686,-9.865909,-0.578022,-0.452055,0.11514,-0.136723,-0.049746,40.577408,20.955457,0.598163,4.63583E+18,0.396023,0.574863,0.500389,-0.512162,0
-10.615377,1.700614,-4.098702,0.169383,0.373143,0.251075,31.698362,-16.955284,29.567717,4.63583E+18,0.552664,-0.105888,0.803703,0.19342,-9.466944,1.635792,0.598232,0.18183,0.064907,0.070235,37.647633,-26.355783,-6.970565,4.63583E+18,-0.447311,0.45709,-0.437225,-0.63231,-9.907369,-0.720038,-0.354214,0.12109,-0.133333,-0.056815,40.577408,20.969399,0.559418,4.63583E+18,0.395954,0.574701,0.499967,-0.512808,0
-10.558027,1.340875,-4.318415,0.215169,0.221901,0.263509,31.500985,-17.113965,29.823938,4.63583E+18,0.551813,-0.104696,0.804497,0.193197,-9.549393,1.620449,0.640922,0.169567,0.069943,0.07344,37.647633,-26.398745,-7.068221,4.63583E+18,-0.447339,0.456939,-0.437873,-0.631951,-9.931983,-0.752016,-0.302863,0.132415,-0.12394,-0.058324,40.601624,21.091672,0.427857,4.63583E+18,0.395836,0.574575,0.499539,-0.513457,0
-10.273824,1.061489,-4.416887,0.282197,0.004483,0.277647,31.325016,-17.030147,30.035841,4.63583E+18,0.551707,-0.103127,0.804849,0.192876,-9.646978,1.559419,0.68067,0.170109,0.056064,0.075838,37.647633,-26.566561,-7.113726,4.63583E+18,-0.447388,0.456745,-0.4385,-0.631622,-9.890721,-0.715596,-0.285613,0.139707,-0.11453,-0.058527,40.638447,21.143223,0.317392,4.63583E+18,0.395679,0.574481,0.499111,-0.514099,0
-9.764125,0.879752,-4.291378,0.36274,-0.20935,0.293165,31.343538,-16.927414,30.004423,4.63583E+18,0.552339,-0.10115,0.804778,0.192412,-9.701877,1.538247,0.750784,0.177864,0.037067,0.075838,37.647633,-26.685383,-6.985472,4.63583E+18,-0.447486,0.456486,-0.439111,-0.631315,-9.839167,-0.652041,-0.273611,0.136335,-0.108325,-0.060664,40.580347,21.143223,0.356126,4.63583E+18,0.395513,0.574389,0.498705,-0.514723,0
-9.127966,0.758365,-3.912393,0.448504,-0.346635,0.311636,31.482075,-16.91658,29.682909,4.63583E+18,0.553449,-0.098802,0.804463,0.191759,-9.677176,1.669634,0.756802,0.182355,0.005077,0.075034,37.607773,-26.688449,-6.799295,4.63583E+18,-0.447653,0.456137,-0.439673,-0.631058,-9.839167,-0.593528,-0.224781,0.121197,-0.105323,-0.064071,40.458067,21.172273,0.415052,4.63583E+18,0.39537,0.574272,0.498345,-0.515313,0
-8.515348,0.863042,-3.379602,0.525237,-0.404869,0.322702,31.398246,-16.91946,29.450819,4.63583E+18,0.554772,-0.096193,0.804073,0.190897,-9.500314,1.840252,0.701842,0.151628,0.014452,0.07478,37.507331,-26.694526,-6.628509,4.63583E+18,-0.447746,0.45587,-0.44017,-0.630838,-9.829484,-0.53965,-0.205002,0.105562,-0.10256,-0.068988,40.498497,21.216467,0.337585,4.63583E+18,0.395247,0.574124,0.498034,-0.515872,0
-8.029072,1.108606,-2.817994,0.572008,-0.379338,0.309206,31.360819,-16.788843,29.547583,4.63583E+18,0.556034,-0.09354,0.803765,0.189835,-9.457776,1.800464,0.662316,0.113733,0.037126,0.081179,37.626538,-26.706836,-6.555376,4.63583E+18,-0.447708,0.455722,-0.440623,-0.630656,-9.790547,-0.587852,-0.229415,0.099135,-0.098067,-0.071989,40.633606,21.279401,0.142276,4.63583E+18,0.395124,0.573969,0.497751,-0.516411,0
-7.736,1.423827,-2.321749,0.58842,-0.281157,0.282379,31.482113,-16.683245,29.879984,4.63583E+18,0.55699,-0.091016,0.80368,0.188616,-9.549353,1.660008,0.732544,0.098546,0.039777,0.08252,37.818535,-26.813736,-6.576826,4.63583E+18,-0.446298,0.456539,-0.440078,-0.631445,-9.729515,-0.707816,-0.268349,0.096778,-0.09571,-0.073481,40.369709,21.588132,0.029255,4.63583E+18,0.394999,0.573812,0.49748,-0.516942,0
-7.641145,1.734711,-2.032308,0.584972,-0.107303,0.245383,31.584812,-16.663105,29.819927,4.63583E+18,0.557387,-0.08876,0.803976,0.187256,-9.650021,1.440201,0.805689,0.117808,0.02508,0.0892,37.757271,-26.920296,-6.619385,4.63583E+18,-0.446419,0.456234,-0.440642,-0.631186,-9.702359,-0.70593,-0.324546,0.094863,-0.096759,-0.075194,39.727555,22.057494,0.041462,4.63583E+18,0.394876,0.573646,0.497216,-0.517474,0
-7.694918,2.002569,-1.996254,0.586473,0.100459,0.20015,31.539676,-16.672432,29.48471,4.63583E+18,0.55712,-0.086813,0.804732,0.185707,-9.717137,1.1993,0.821003,0.171233,0.001313,0.099345,37.552947,-26.834847,-6.555376,4.63583E+18,-0.446509,0.455853,-0.441213,-0.630999,-9.741291,-0.68087,-0.368534,0.089965,-0.102302,-0.075415,39.208952,22.433378,-0.057642,4.63583E+18,0.394775,0.573459,0.496953,-0.51801,0
-7.873662,2.174992,-2.216568,0.592379,0.282839,0.158861,31.519516,-16.479415,29.675281,4.63583E+18,0.556271,-0.085132,0.805896,0.183975,-9.77515,1.214903,0.851415,0.238515,-0.022717,0.108158,37.510371,-26.770836,-6.579872,4.63583E+18,-0.446747,0.455267,-0.441933,-0.630749,-9.792646,-0.790509,-0.448702,0.074867,-0.108508,-0.077311,39.026848,22.853019,-0.301991,4.63583E+18,0.39472,0.573231,0.496717,-0.518531,0
-8.174452,2.3308,-2.637236,0.584912,0.402001,0.125056,31.463549,-16.288371,30.125428,4.63583E+18,0.555041,-0.083672,0.807311,0.182145,-9.811605,1.523118,0.735252,0.292434,-0.042201,0.116968,37.595824,-26.835148,-6.649972,4.63583E+18,-0.4471,0.454514,-0.442774,-0.630453,-9.814753,-0.811191,-0.556481,0.047317,-0.111934,-0.083296,39.097562,23.258837,-0.354678,4.63583E+18,0.394724,0.572936,0.496549,-0.519014,0
-8.578621,2.489477,-3.091735,0.550315,0.422111,0.093831,31.259747,-16.304011,30.461567,4.63583E+18,0.55375,-0.082412,0.808729,0.180352,-9.692573,1.754876,0.475948,0.320186,-0.049935,0.124179,37.620052,-27.048615,-6.570432,4.63583E+18,-0.447261,0.453843,-0.443513,-0.630301,-9.819591,-0.65481,-0.54725,0.012128,-0.11661,-0.086943,39.153981,23.387526,-0.132871,4.63583E+18,0.394814,0.572567,0.496458,-0.519441,0
-8.996581,2.601548,-3.459495,0.489068,0.408609,0.076727,31.146161,-16.265337,30.596004,4.63583E+18,0.552492,-0.081339,0.810057,0.178728,-9.582811,1.806656,0.357156,0.33408,-0.053153,0.130311,37.479712,-27.134075,-6.311069,4.63583E+18,-0.447677,0.452959,-0.444467,-0.62997,-9.793099,-0.64147,-0.425412,-0.025536,-0.121346,-0.086742,39.132326,23.10791,0.041459,4.63583E+18,0.395005,0.572126,0.496439,-0.5198,0
-9.281017,2.680542,-3.782599,0.396491,0.368111,0.060647,31.063603,-16.117503,30.616167,4.63583E+18,0.551349,-0.080504,0.811213,0.177392,-9.595057,1.78538,0.488448,0.351427,-0.069175,0.124967,37.415691,-27.216463,-6.164739,4.63583E+18,-0.448169,0.452009,-0.445426,-0.629626,-9.722159,-0.826885,-0.295739,-0.042928,-0.121124,-0.082912,39.218711,22.581145,-0.023729,4.63583E+18,0.395244,0.571665,0.496448,-0.520116,0
-9.525173,2.716487,-4.025399,0.300161,0.304539,0.072115,30.978148,-16.142428,30.616167,4.63583E+18,0.550377,-0.079803,0.812151,0.176429,-9.646943,1.858653,0.634785,0.357026,-0.085196,0.115887,37.397329,-27.292761,-6.189221,4.63583E+18,-0.448725,0.451023,-0.44635,-0.629282,-9.687842,-0.990871,-0.229638,-0.045285,-0.116267,-0.074811,39.732089,21.997289,-0.211668,4.63583E+18,0.395498,0.571227,0.49645,-0.520402,0
-9.526856,2.712925,-4.198509,0.205093,0.208431,0.054058,30.957975,-16.03204,30.681449,4.63583E+18,0.54971,-0.079311,0.812792,0.175778,-9.668196,1.993002,0.640906,0.351412,-0.093453,0.106812,37.299602,-27.338429,-6.237916,4.63583E+18,-0.449308,0.450042,-0.447227,-0.628945,-9.675635,-1.030493,-0.20269,-0.044661,-0.104921,-0.062438,40.370766,21.559453,-0.373122,4.63583E+18,0.395753,0.570841,0.49644,-0.520641,0
-9.472268,2.551523,-4.189345,0.105141,0.099682,0.03068,30.957975,-15.870477,30.84149,4.63583E+18,0.549396,-0.079047,0.813102,0.175447,-9.57666,2.182162,0.619421,0.325743,-0.078231,0.101201,37.171543,-27.304966,-6.164739,4.63583E+18,-0.449829,0.449159,-0.448053,-0.628616,-9.673099,-1.010679,-0.161468,-0.04188,-0.09829,-0.046214,40.585015,21.375164,-0.40078,4.63583E+18,0.396023,0.570508,0.496395,-0.520843,0
-9.404798,2.474548,-4.091023,0.068942,0.011702,0.08682,30.77151,-15.767739,30.884729,4.63583E+18,0.549326,-0.078612,0.813202,0.175396,-9.540127,2.279726,0.503562,0.262998,-0.064619,0.089715,37.171543,-27.347586,-6.115798,4.63583E+18,-0.450237,0.448451,-0.448718,-0.628355,-9.66113,-1.146302,-0.080855,-0.035936,-0.089142,-0.02848,40.477929,21.404175,-0.336972,4.63583E+18,0.396299,0.570241,0.496311,-0.521006,0
-9.15442,2.596416,-4.018451,0.043947,-0.024608,0.105747,30.65789,-15.812811,30.819469,4.63583E+18,0.549357,-0.078143,0.813207,0.175485,-9.579725,2.267518,0.537181,0.210406,-0.05714,0.074498,37.171543,-27.283546,-5.948009,4.63583E+18,-0.450572,0.447889,-0.449231,-0.628149,-9.670316,-1.267761,-0.070462,-0.02038,-0.076304,-0.009275,40.348251,21.477414,-0.3296,4.63583E+18,0.396553,0.570067,0.496168,-0.52114,0
-8.914495,2.655445,-3.770955,0.034938,0.027195,0.09351,30.76178,-15.888939,30.799278,4.63583E+18,0.549219,-0.077774,0.813319,0.17556,-9.543158,2.233902,0.607312,0.174085,-0.04405,0.065152,37.153192,-27.304955,-5.88091,4.63583E+18,-0.45084,0.447447,-0.449655,-0.627969,-9.738969,-1.099396,-0.155914,-0.011284,-0.067537,0.009349,40.291804,21.584498,-0.368274,4.63583E+18,0.396808,0.569966,0.495975,-0.52124,0
-8.806637,2.586631,-3.614937,0.043154,0.086466,0.067699,30.743341,-15.850309,30.873862,4.63583E+18,0.548901,-0.077517,0.813565,0.175528,-9.588948,2.145424,0.640966,0.134306,-0.025362,0.057143,37.138043,-27.368998,-5.920678,4.63583E+18,-0.451019,0.447145,-0.449995,-0.627812,-9.787551,-0.959797,-0.217193,-0.023435,-0.060483,0.021743,40.289265,21.651345,-0.427259,4.63583E+18,0.397103,0.569885,0.495791,-0.521278,0
-8.835945,2.423711,-3.570331,0.028799,0.100154,0.047832,30.595513,-15.767741,30.822354,4.63583E+18,0.548547,-0.07737,0.813825,0.175495,-9.631619,2.075215,0.784353,0.105202,-0.013616,0.051002,37.318143,-27.36594,-6.06708,4.63583E+18,-0.451138,0.446939,-0.450269,-0.627676,-9.805337,-0.90589,-0.217442,-0.031844,-0.055766,0.033914,40.325636,21.578106,-0.465922,4.63583E+18,0.397436,0.569826,0.495605,-0.521267,0
-8.887654,2.231295,-3.462022,-0.009943,0.082461,0.040531,30.676314,-15.812803,30.799278,4.63583E+18,0.548245,-0.077324,0.814014,0.175583,-9.570564,2.008128,0.869844,0.082773,-0.004799,0.046464,37.461403,-27.356791,-6.06708,4.63583E+18,-0.450072,0.447624,-0.449681,-0.628375,-9.671557,-0.987798,-0.253313,-0.027794,-0.050247,0.046732,40.432711,21.533859,-0.524918,4.63583E+18,0.397775,0.569812,0.495388,-0.52123,0
-8.964439,2.157164,-3.374358,-0.08146,0.064674,0.04523,30.592662,-15.888924,30.873842,4.63583E+18,0.547977,-0.077412,0.814111,0.175929,-9.518751,2.01115,1.007135,0.061944,0.011485,0.041921,37.262993,-27.420964,-6.091527,4.63583E+18,-0.450088,0.447583,-0.449873,-0.628255,-9.551027,-1.086913,-0.399857,-0.020758,-0.042101,0.059132,40.557604,21.533859,-0.529756,4.63583E+18,0.398107,0.569853,0.49514,-0.521167,0
-8.993969,2.129863,-3.301116,-0.15586,0.03805,0.049445,30.433971,-16.036726,31.055378,4.63583E+18,0.547773,-0.077636,0.814094,0.176546,-9.552253,1.971504,1.0651,0.033635,0.02431,0.033647,37.046445,-27.634537,-6.164739,4.63583E+18,-0.450048,0.447645,-0.449998,-0.628149,-9.611687,-0.83881,-0.444695,-0.018769,-0.040793,0.068345,40.543687,21.499947,-0.493525,4.63583E+18,0.398452,0.569918,0.494867,-0.52109,0
-9.034132,2.096132,-3.255835,-0.20321,0.02853,0.039603,30.648044,-16.198295,31.029912,4.63583E+18,0.547592,-0.077995,0.814017,0.177303,-9.433241,1.980641,1.04981,-0.002947,0.052613,0.032308,37.150222,-27.677213,-6.140298,4.63583E+18,-0.449767,0.447942,-0.44999,-0.628146,-9.687834,-0.631883,-0.36874,-0.030926,-0.041878,0.071566,40.421423,21.448408,-0.427259,4.63583E+18,0.398835,0.569968,0.494612,-0.520986,0
-9.055003,2.040879,-3.284439,-0.22316,0.018804,0.02898,30.912383,-16.170624,31.006804,4.63583E+18,0.547444,-0.078428,0.813899,0.178108,-9.381397,1.928764,0.964382,-0.038722,0.076908,0.021362,37.266151,-27.57041,-6.042659,4.63583E+18,-0.449664,0.448202,-0.4501,-0.627955,-9.699847,-0.821961,-0.334639,-0.036775,-0.040166,0.074957,40.398948,21.482316,-0.466011,4.63583E+18,0.399236,0.570018,0.494364,-0.520859,0
-9.076527,2.05438,-3.398486,-0.223186,-0.00762,0.025073,30.783841,-16.029273,31.072024,4.63583E+18,0.547389,-0.078855,0.813718,0.178911,-9.466841,1.852473,0.921659,-0.066492,0.093463,0.014153,37.256996,-27.423931,-5.96942,4.63583E+18,-0.449359,0.44867,-0.450057,-0.62787,-9.7293,-1.005651,-0.310028,-0.027586,-0.036555,0.083501,40.44797,21.499958,-0.486173,4.63583E+18,0.399625,0.570109,0.494082,-0.520728,0
-9.072992,2.146895,-3.504808,-0.218914,-0.04919,0.024567,30.539715,-16.178017,31.027044,4.63583E+18,0.547476,-0.079243,0.813446,0.179713,-9.472951,1.883001,0.924716,-0.087056,0.107349,0.010414,37.278364,-27.368998,-5.945,4.63583E+18,-0.448999,0.44922,-0.449978,-0.627791,-9.734143,-1.030464,-0.307706,-0.014803,-0.029078,0.092046,40.455334,21.356389,-0.427259,4.63583E+18,0.399987,0.570256,0.493763,-0.520592,0
-9.032834,2.200868,-3.509306,-0.206489,-0.103023,0.018046,30.603004,-16.431498,30.801836,4.63583E+18,0.547754,-0.079584,0.813056,0.180475,-9.52788,2.032529,0.943027,-0.115626,0.11803,0.006409,37.321086,-27.387306,-5.847349,4.63583E+18,-0.448576,0.449858,-0.449838,-0.627737,-9.74635,-0.875101,-0.27845,0.000185,-0.025839,0.09593,40.48439,21.221309,-0.50474,4.63583E+18,0.400314,0.570443,0.493408,-0.520474,0
-8.928111,2.200224,-3.373102,-0.195612,-0.118058,0.003795,30.76169,-16.42699,30.728926,4.63583E+18,0.548097,-0.079937,0.812636,0.181172,-9.457688,2.072213,0.753813,-0.145801,0.130047,0.005608,37.278356,-27.506323,-5.798514,4.63583E+18,-0.448075,0.450586,-0.449638,-0.627715,-9.734349,-0.673931,-0.251514,0.001952,-0.027772,0.092726,40.557629,21.228674,-0.661311,4.63583E+18,0.400634,0.570622,0.493052,-0.520368,0
-8.815357,2.085545,-3.220834,-0.190889,-0.078624,-0.019563,30.929697,-16.40675,30.726034,4.63583E+18,0.548325,-0.080389,0.8123,0.181787,-9.451573,1.85554,0.619521,-0.164762,0.142598,0.002404,37.385162,-27.738263,-5.917528,4.63583E+18,-0.447142,0.451662,-0.449132,-0.62797,-9.738777,-0.644675,-0.24899,-0.004475,-0.02989,0.088674,40.509832,21.223832,-0.676662,4.63583E+18,0.400964,0.570777,0.492717,-0.520261,0
-8.78933,1.836611,-3.214076,-0.18198,-0.027919,-0.045196,30.970182,-16.471952,30.651518,4.63583E+18,0.548403,-0.080945,0.812078,0.182296,-9.591955,1.684614,0.714115,-0.156485,0.142866,0.000267,37.452351,-27.817644,-6.054872,4.63583E+18,-0.446746,0.452356,-0.449015,-0.627836,-9.833907,-0.554803,-0.261197,-0.011068,-0.035654,0.081216,40.374725,21.250354,-0.537754,4.63583E+18,0.401306,0.570893,0.492404,-0.520167,0
-8.807959,1.593105,-3.343838,-0.163964,0.010872,-0.061866,30.839784,-16.548087,30.712202,4.63583E+18,0.548368,-0.081546,0.811952,0.182693,-9.649956,1.745644,0.796539,-0.148206,0.13966,0.00347,37.226502,-27.655898,-6.033522,4.63583E+18,-0.446358,0.453023,-0.448917,-0.6277,-9.876003,-0.437153,-0.316965,-0.025782,-0.042486,0.070112,40.440173,21.364841,-0.432099,4.63583E+18,0.401672,0.570946,0.492138,-0.520077,0
-8.888258,1.435677,-3.549105,-0.126555,0.018412,-0.063527,30.678195,-16.565447,30.738241,4.63583E+18,0.548322,-0.082073,0.811871,0.182956,-9.628592,1.806704,0.750768,-0.144202,0.141263,0.011482,37.098297,-27.527695,-5.945023,4.63583E+18,-0.445823,0.453766,-0.448752,-0.627662,-9.814966,-0.448933,-0.400317,-0.043738,-0.04954,0.058786,40.56246,21.426734,-0.473348,4.63583E+18,0.402071,0.570931,0.491925,-0.519986,0
-8.967289,1.338652,-3.666383,-0.066714,0.014899,-0.054871,30.705781,-16.630645,30.663729,4.63583E+18,0.548301,-0.082431,0.81183,0.183038,-9.628579,1.757879,0.701919,-0.127384,0.137792,0.014419,37.159268,-27.527695,-5.896149,4.63583E+18,-0.445317,0.454463,-0.448631,-0.627604,-9.763611,-0.524702,-0.381174,-0.058912,-0.057642,0.049798,40.584992,21.254174,-0.524918,4.63583E+18,0.402503,0.570855,0.491754,-0.519898,0
-9.021906,1.3184,-3.723892,-0.016227,0.011441,-0.040114,30.781919,-16.5857,30.640583,4.63583E+18,0.548297,-0.082621,0.811825,0.182985,-9.646911,1.73039,0.723285,-0.100145,0.132186,0.017356,37.360737,-27.485015,-5.945032,4.63583E+18,-0.444732,0.455185,-0.448478,-0.627605,-9.717314,-0.571218,-0.339277,-0.07068,-0.066629,0.041696,40.569818,21.036107,-0.524918,4.63583E+18,0.402964,0.570723,0.491612,-0.51982,0
-9.098661,1.3184,-3.763401,0.006881,-0.014577,-0.015947,30.799278,-16.379209,30.63127,4.63583E+18,0.548372,-0.082657,0.811787,0.182917,-9.628578,1.7853,0.732444,-0.079848,0.118839,0.020296,37.394354,-27.338501,-5.826038,4.63583E+18,-0.444337,0.455733,-0.448456,-0.627503,-9.690148,-0.590794,-0.378208,-0.074568,-0.070921,0.031862,40.6479,21.018397,-0.524918,4.63583E+18,0.403422,0.570554,0.491495,-0.519761,0
-9.202731,1.364956,-3.734843,0.005793,-0.086795,0.004237,30.799278,-16.386476,30.488706,4.63583E+18,0.548674,-0.082572,0.811589,0.182923,-9.625585,1.895156,0.686738,-0.073429,0.101739,0.016024,37.330238,-27.304876,-5.664273,4.63583E+18,-0.443996,0.456232,-0.44841,-0.627414,-9.743591,-0.559458,-0.376347,-0.076867,-0.072836,0.022047,40.728511,21.103845,-0.491051,4.63583E+18,0.403867,0.570357,0.491403,-0.519718,0
-9.293983,1.463247,-3.658072,0.001013,-0.197261,0.020768,30.799278,-16.471937,30.445263,4.63583E+18,0.549336,-0.082358,0.811141,0.183022,-9.506558,1.965411,0.506674,-0.089984,0.110279,0.013351,37.351568,-27.38728,-5.636697,4.63583E+18,-0.443614,0.45679,-0.448333,-0.627334,-9.778358,-0.47148,-0.307718,-0.088818,-0.076463,0.010298,40.709843,21.087708,-0.473327,4.63583E+18,0.404323,0.570108,0.491358,-0.519679,0
-9.230445,1.563796,-3.554002,0.011407,-0.281598,0.025382,30.864459,-16.548072,30.594249,4.63583E+18,0.550282,-0.08204,0.810509,0.183124,-9.478956,1.898302,0.375383,-0.103077,0.119906,0.014154,37.418738,-27.442242,-5.822849,4.63583E+18,-0.44292,0.457585,-0.448046,-0.62745,-9.731833,-0.412747,-0.278466,-0.100588,-0.081582,0.000242,40.643053,20.989363,-0.602314,4.63583E+18,0.404795,0.569807,0.491354,-0.519645,0
-9.064714,1.652141,-3.444139,0.030434,-0.314561,0.024006,30.949909,-16.630625,30.566093,4.63583E+18,0.551347,-0.081658,0.809813,0.18317,-9.668213,1.767103,0.390587,-0.096677,0.105218,0.012283,37.38526,-27.423968,-5.945055,4.63583E+18,-0.442661,0.458054,-0.44803,-0.627301,-9.731603,-0.376127,-0.222499,-0.108709,-0.088837,-0.007658,40.716296,21.025753,-0.792787,4.63583E+18,0.405284,0.569461,0.491375,-0.519625,0
-8.890914,1.737593,-3.390139,0.046655,-0.314488,0.024314,31.026049,-16.529853,30.244965,4.63583E+18,0.552415,-0.081238,0.809129,0.183162,-9.70496,1.684547,0.427334,-0.077717,0.095602,0.015485,37.256996,-27.368998,-5.801711,4.63583E+18,-0.442323,0.458545,-0.447962,-0.62723,-9.739208,-0.373358,-0.156396,-0.119148,-0.095266,-0.017049,40.697655,21.098993,-0.903348,4.63583E+18,0.40579,0.569063,0.491428,-0.519615,0
-8.766576,1.869587,-3.437311,0.052647,-0.308894,0.03027,31.099287,-16.371171,30.003325,4.63583E+18,0.553461,-0.080788,0.808463,0.183145,-9.579793,1.809715,0.299121,-0.062224,0.089194,0.021627,37.278312,-27.408586,-5.587945,4.63583E+18,-0.442009,0.45898,-0.447933,-0.627153,-9.678407,-0.46571,-0.114938,-0.131563,-0.095932,-0.026038,40.572808,21.143223,-0.864662,4.63583E+18,0.406308,0.568624,0.491529,-0.519595,0
-8.712571,2.016072,-3.417456,0.060739,-0.299481,0.032044,31.18184,-16.519701,30.031445,4.63583E+18,0.554475,-0.080321,0.807824,0.183102,-9.549203,1.843349,0.268501,-0.052883,0.080388,0.025369,37.342445,-27.506385,-5.62749,4.63583E+18,-0.441589,0.459461,-0.447825,-0.627174,-9.609763,-0.624398,-0.124134,-0.134184,-0.095266,-0.029908,40.591437,21.143223,-0.805689,4.63583E+18,0.406821,0.568174,0.491646,-0.519575,0
-8.722496,2.134621,-3.387248,0.067908,-0.303461,0.032044,31.202124,-16.763826,30.138404,4.63583E+18,0.555505,-0.079834,0.80718,0.183035,-9.61024,1.794519,0.35094,-0.036597,0.0641,0.024567,37.339401,-27.381359,-5.752793,4.63583E+18,-0.441363,0.459778,-0.447823,-0.627102,-9.633694,-0.705734,-0.197614,-0.1227,-0.097201,-0.0316,40.716282,21.177063,-0.810523,4.63583E+18,0.407308,0.567736,0.491738,-0.519586,0
-8.812057,2.151403,-3.288379,0.055585,-0.315263,0.041817,31.202124,-16.635659,30.080729,4.63583E+18,0.556561,-0.079333,0.806501,0.183036,-9.63475,1.770041,0.408867,-0.021896,0.054467,0.025633,37.330238,-27.198095,-5.68865,4.63583E+18,-0.441181,0.46004,-0.447844,-0.627023,-9.726518,-0.683615,-0.20523,-0.10728,-0.095932,-0.03545,40.673503,21.194834,-0.701872,4.63583E+18,0.407747,0.567318,0.491809,-0.519632,0
-8.959163,2.167119,-3.166297,0.025209,-0.342741,0.057079,31.378973,-16.45665,29.980164,4.63583E+18,0.557687,-0.078831,0.805739,0.183183,-9.552348,1.831037,0.506589,-0.02483,0.066485,0.02884,37.311983,-27.240693,-5.709949,4.63583E+18,-0.440962,0.460333,-0.447886,-0.626932,-9.792631,-0.688448,-0.154109,-0.100205,-0.093151,-0.037385,40.473115,21.143223,-0.558755,4.63583E+18,0.408159,0.566914,0.491873,-0.519689,0
-9.108555,2.117068,-3.062837,-0.008158,-0.375601,0.075545,31.685387,-16.484116,29.882501,4.63583E+18,0.558897,-0.078319,0.804878,0.183496,-9.500403,1.895227,0.534046,-0.030704,0.073968,0.02884,37.278294,-27.408553,-5.798443,4.63583E+18,-0.440717,0.460657,-0.447926,-0.626838,-9.785755,-0.666825,-0.095368,-0.097847,-0.088055,-0.039077,40.398881,21.17222,-0.649033,4.63583E+18,0.408551,0.566522,0.491944,-0.519741,0
-9.189881,1.997295,-2.937265,-0.036382,-0.385908,0.099656,31.763664,-16.374109,29.775543,4.63583E+18,0.560113,-0.077783,0.803979,0.183962,-9.527819,1.843397,0.59196,-0.03472,0.07477,0.027509,37.342445,-27.506401,-5.871761,4.63583E+18,-0.440048,0.461292,-0.447647,-0.627041,-9.741508,-0.588748,-0.063579,-0.100584,-0.083516,-0.042504,40.505953,21.2213,-0.746692,4.63583E+18,0.408932,0.566127,0.492037,-0.519783,0
-9.222993,1.863029,-2.877445,-0.051683,-0.385855,0.117146,31.633384,-16.398645,29.684302,4.63583E+18,0.561308,-0.077225,0.803071,0.18452,-9.604087,1.78831,0.677536,-0.025919,0.073441,0.023765,37.342445,-27.442242,-5.871761,4.63583E+18,-0.439826,0.461615,-0.447689,-0.626928,-9.765669,-0.54679,-0.019836,-0.106169,-0.087566,-0.042526,40.635648,21.194848,-0.771863,4.63583E+18,0.409335,0.565714,0.492135,-0.519823,0
-9.219493,1.672939,-2.840827,-0.04552,-0.375832,0.127214,31.602064,-16.735301,29.608165,4.63583E+18,0.562462,-0.076626,0.802192,0.185077,-9.65307,1.882821,0.6592,-0.012557,0.071025,0.025099,37.321175,-27.42401,-5.826181,4.63583E+18,-0.439631,0.461905,-0.447764,-0.626798,-9.763898,-0.687142,-0.019063,-0.102588,-0.086566,-0.038899,40.687275,21.177038,-0.758883,4.63583E+18,0.409734,0.565317,0.492219,-0.519861,0
-9.207287,1.428227,-2.748393,-0.012608,-0.37197,0.136572,31.660783,-16.834009,29.516323,4.63583E+18,0.563605,-0.075922,0.801348,0.185544,-9.592031,1.992897,0.647044,-0.008545,0.074243,0.02431,37.253957,-27.347724,-5.640026,4.63583E+18,-0.43944,0.462198,-0.447853,-0.626652,-9.666246,-0.956212,-0.124091,-0.090217,-0.07504,-0.035049,40.682445,21.228674,-0.851706,4.63583E+18,0.410089,0.564974,0.492287,-0.51989,0
-9.185777,1.227693,-2.573412,0.038308,-0.359506,0.142929,31.678211,-16.647961,29.483784,4.63583E+18,0.564716,-0.075086,0.800573,0.185851,-9.573524,1.947169,0.586073,-0.006419,0.065709,0.01523,37.247826,-27.304807,-5.517629,4.63583E+18,-0.439292,0.462481,-0.447915,-0.626502,-9.636202,-0.987323,-0.158964,-0.073996,-0.067716,-0.027197,40.617116,21.25765,-0.830908,4.63583E+18,0.410407,0.56469,0.492314,-0.519921,0
-9.170665,1.100396,-2.359489,0.096039,-0.325577,0.142572,31.854957,-16.654977,29.25762,4.63583E+18,0.565731,-0.074142,0.79992,0.185954,-9.646941,1.898224,0.482328,0.003988,0.053944,0.00855,37.256996,-27.390266,-5.590991,4.63583E+18,-0.439204,0.462728,-0.44797,-0.626343,-9.690127,-0.815891,-0.068961,-0.057106,-0.067516,-0.014356,40.46581,21.301918,-0.715408,4.63583E+18,0.410712,0.564463,0.492275,-0.519965,0
-9.177061,1.037046,-2.214186,0.147457,-0.266526,0.143691,32.031069,-16.675312,29.113491,4.63583E+18,0.566563,-0.073119,0.799445,0.18587,-9.607282,1.931752,0.369371,0.017617,0.053137,0.004543,37.256996,-27.472678,-5.566687,4.63583E+18,-0.439154,0.462955,-0.448051,-0.626153,-9.695228,-0.843771,0.021864,-0.039617,-0.062845,-0.00601,40.398854,21.268119,-0.746657,4.63583E+18,0.410984,0.564292,0.492185,-0.520019,0
-9.245074,1.016121,-2.147921,0.194963,-0.191605,0.150711,32.013042,-16.5451,29.164649,4.63583E+18,0.567153,-0.072018,0.799184,0.185621,-9.582752,1.962415,0.311259,0.026683,0.053152,0.001073,37.256996,-27.527695,-5.469037,4.63583E+18,-0.43913,0.463172,-0.44815,-0.625938,-9.670815,-1.00556,0.007655,-0.016143,-0.053456,0.002933,40.476922,21.250262,-0.805689,4.63583E+18,0.411202,0.564201,0.492041,-0.520083,0
-9.358429,1.031816,-2.164198,0.241961,-0.129093,0.163325,31.930497,-16.569516,29.187901,4.63583E+18,0.567539,-0.070812,0.79911,0.185226,-9.61336,1.913525,0.341747,0.045102,0.04407,-0.002933,37.217517,-27.530731,-5.395672,4.63583E+18,-0.439169,0.463339,-0.448271,-0.6257,-9.670537,-1.016048,-0.022141,0.005913,-0.044464,0.01406,40.557541,21.301918,-0.7719,4.63583E+18,0.411373,0.564189,0.491837,-0.520153,0
-9.489803,1.084134,-2.247325,0.28896,-0.0942,0.18128,32.040365,-16.720075,29.122794,4.63583E+18,0.567807,-0.069462,0.799158,0.184707,-9.567691,1.919537,0.414867,0.062484,0.039516,-0.007732,37.098297,-27.539902,-5.395672,4.63583E+18,-0.438052,0.464338,-0.447522,-0.626278,-9.716813,-0.954731,0,0.018755,-0.0389,0.024295,40.568034,21.364669,-0.720237,4.63583E+18,0.411525,0.564233,0.491591,-0.520218,0
-9.614784,1.163773,-2.391489,0.327006,-0.107934,0.201321,32.081055,-16.630551,29.167556,4.63583E+18,0.568115,-0.067945,0.799207,0.184112,-9.485152,1.977532,0.540093,0.066479,0.040601,-0.018406,37.137753,-27.536867,-5.395672,4.63583E+18,-0.438056,0.464575,-0.447571,-0.626065,-9.748889,-0.935144,-0.019306,0.031324,-0.032516,0.036268,40.550157,21.42683,-0.758848,4.63583E+18,0.41166,0.564336,0.491301,-0.520273,0
-9.699648,1.221317,-2.485072,0.355742,-0.156606,0.226496,31.950858,-16.524763,29.187901,4.63583E+18,0.568572,-0.066238,0.799167,0.183493,-9.482118,2.011187,0.561681,0.070516,0.035508,-0.030964,37.296441,-27.488249,-5.419946,4.63583E+18,-0.438235,0.464727,-0.447688,-0.625744,-9.741508,-0.942239,-0.039179,0.047569,-0.023748,0.047793,40.601822,21.317257,-0.81307,4.63583E+18,0.411763,0.56451,0.490964,-0.520321,0
-9.726393,1.260846,-2.576913,0.384072,-0.225167,0.249944,31.845057,-16.50441,29.113505,4.63583E+18,0.569245,-0.064334,0.79899,0.182855,-9.48205,1.992909,0.470086,0.059291,0.040053,-0.038447,37.394446,-27.390243,-5.444771,4.63583E+18,-0.438402,0.464925,-0.447769,-0.625421,-9.722206,-0.964385,-0.019589,0.062523,-0.016271,0.059344,40.630776,21.228674,-0.844293,4.63583E+18,0.411842,0.564749,0.490579,-0.520362,0
-9.701406,1.297465,-2.600177,0.419418,-0.295354,0.269119,32.010667,-16.50441,29.090242,4.63583E+18,0.570144,-0.062227,0.798674,0.182162,-9.539906,1.95629,0.418086,0.053945,0.039534,-0.043251,37.351476,-27.454451,-5.273742,4.63583E+18,-0.438166,0.465432,-0.447523,-0.625385,-9.687853,-0.94026,-0.026682,0.075788,-0.011327,0.070645,40.646118,21.257624,-0.941948,4.63583E+18,0.411903,0.565045,0.490148,-0.520399,0
-9.646188,1.324788,-2.572283,0.461684,-0.347697,0.284022,32.199022,-16.569495,29.164626,4.63583E+18,0.571213,-0.059931,0.798265,0.181376,-9.619507,1.904501,0.442427,0.050747,0.03736,-0.047801,37.436926,-27.454451,-5.224622,4.63583E+18,-0.438475,0.465564,-0.447655,-0.624976,-9.675647,-0.932292,-0.044006,0.083936,-0.006038,0.083686,40.568054,21.272974,-1.034776,4.63583E+18,0.411963,0.565392,0.489677,-0.520417,0
-9.538661,1.395693,-2.517065,0.50141,-0.369474,0.292213,32.174667,-16.589861,29.187901,4.63583E+18,0.572354,-0.057496,0.797829,0.180482,-9.570682,1.846273,0.479199,0.044869,0.050999,-0.047529,37.501144,-27.451418,-5.322273,4.63583E+18,-0.43874,0.465747,-0.447791,-0.624556,-9.68756,-0.966944,-0.041446,0.089897,0.003179,0.095436,40.579085,21.19973,-1.125051,4.63583E+18,0.412015,0.565794,0.489182,-0.520406,0
-9.407302,1.453246,-2.418846,0.539046,-0.354887,0.297808,32.21938,-16.403923,29.178604,4.63583E+18,0.573446,-0.054964,0.797452,0.179471,-9.552177,1.892148,0.454706,0.042719,0.051285,-0.051258,37.461722,-27.445274,-5.371413,4.63583E+18,-0.439004,0.465946,-0.447911,-0.624135,-9.750858,-0.923237,-0.029536,0.097597,0.007675,0.107185,40.766714,21.15543,-1.150354,4.63583E+18,0.412065,0.566242,0.488649,-0.520379,0
-9.319506,1.520668,-2.336872,0.565856,-0.305358,0.300708,32.360608,-16.224858,29.092024,4.63583E+18,0.574372,-0.052394,0.797206,0.178365,-9.604194,1.898212,0.463881,0.047788,0.044332,-0.058211,37.342445,-27.454451,-5.298013,4.63583E+18,-0.439193,0.466214,-0.447931,-0.623788,-9.807367,-0.912691,-0.004823,0.102318,0.013833,0.116824,40.878073,21.15543,-1.098666,4.63583E+18,0.412112,0.566731,0.488094,-0.52033,0
-9.274152,1.658988,-2.300813,0.591795,-0.228155,0.29715,32.333372,-16.242797,29.065826,4.63583E+18,0.575046,-0.04983,0.797156,0.177146,-9.582891,1.934755,0.442657,0.048897,0.042461,-0.060082,37.360638,-27.454451,-5.32227,4.63583E+18,-0.439393,0.466478,-0.447946,-0.623439,-9.780994,-0.969207,-0.055611,0.110362,0.024515,0.12492,40.77107,21.121672,-1.098666,4.63583E+18,0.412136,0.567273,0.487521,-0.520258,0
-9.28401,1.771193,-2.341469,0.612803,-0.153794,0.290997,32.312996,-16.260262,29.214555,4.63583E+18,0.575477,-0.047292,0.797293,0.175825,-9.561344,1.965559,0.372368,0.03021,0.040597,-0.06221,37.436909,-27.451419,-5.395672,4.63583E+18,-0.439384,0.466907,-0.447769,-0.623252,-9.743767,-0.913906,-0.107608,0.125342,0.033086,0.136023,40.708823,21.041046,-1.098666,4.63583E+18,0.412131,0.567882,0.486903,-0.520176,0
-9.401375,1.868849,-2.495455,0.621456,-0.096057,0.285401,32.433831,-16.07436,29.326212,4.63583E+18,0.575717,-0.044793,0.797566,0.17445,-9.61935,1.883055,0.363108,0.017076,0.03712,-0.06649,37.51933,-27.381623,-5.41992,4.63583E+18,-0.439656,0.467149,-0.447759,-0.622885,-9.780386,-0.779327,-0.070988,0.133294,0.036317,0.145663,40.823195,20.905132,-1.098666,4.63583E+18,0.412121,0.56853,0.486251,-0.520086,0
-9.538557,1.994381,-2.771489,0.623543,-0.077623,0.283314,32.35087,-15.951055,29.337304,4.63583E+18,0.575892,-0.042309,0.797878,0.173058,-9.646964,1.840372,0.396698,0.025356,0.037908,-0.064642,37.553173,-27.198095,-5.469087,4.63583E+18,-0.439831,0.467453,-0.447695,-0.62258,-9.797724,-0.725058,-0.068114,0.13543,0.038004,0.151228,40.890289,20.764793,-1.060097,4.63583E+18,0.412115,0.569197,0.485583,-0.519986,0
-9.682128,2.091484,-3.01161,0.618106,-0.098608,0.289565,32.19218,-16.060772,29.20428,4.63583E+18,0.576128,-0.039802,0.79813,0.171701,-9.628522,1.7854,0.412022,0.031772,0.043256,-0.057142,37.449553,-27.219302,-5.371436,4.63583E+18,-0.439989,0.467745,-0.447671,-0.622266,-9.751773,-0.751726,-0.121762,0.135036,0.041433,0.156344,40.84597,20.82746,-1.001007,4.63583E+18,0.412113,0.56988,0.484909,-0.519868,0
-9.837925,2.167649,-3.240658,0.626894,-0.16837,0.30787,32.219365,-16.157333,29.302908,4.63583E+18,0.576579,-0.037162,0.798217,0.170369,-9.662115,1.763925,0.42708,0.038422,0.041681,-0.057158,37.369623,-27.283546,-5.249541,4.63583E+18,-0.440163,0.468021,-0.447661,-0.621943,-9.745695,-0.790913,-0.115319,0.134981,0.041882,0.164439,40.84597,20.923489,-1.001007,4.63583E+18,0.412128,0.57058,0.484217,-0.519734,0
-9.950132,2.268761,-3.379635,0.648909,-0.26768,0.32923,32.239754,-16.054002,29.495283,4.63583E+18,0.577343,-0.034328,0.798077,0.169029,-9.656226,1.794403,0.473228,0.052862,0.029923,-0.051013,37.528335,-27.241118,-5.102695,4.63583E+18,-0.439797,0.468641,-0.447247,-0.622032,-9.783583,-0.839426,-0.087387,0.14139,0.044385,0.173012,40.817053,20.860833,-0.96245,4.63583E+18,0.412141,0.571313,0.483494,-0.519592,0
-9.908403,2.322868,-3.42445,0.675914,-0.369101,0.344087,32.174708,-15.820978,29.532624,4.63583E+18,0.578431,-0.031307,0.797704,0.167647,-9.597981,1.818975,0.372433,0.061131,0.025092,-0.046733,37.608192,-27.155117,-5.126966,4.63583E+18,-0.440019,0.468812,-0.447285,-0.621719,-9.717093,-0.828492,-0.160946,0.147798,0.050625,0.176666,40.772728,20.731059,-0.937082,4.63583E+18,0.412133,0.572077,0.482759,-0.51944,0
-9.841541,2.29445,-3.439571,0.706935,-0.48657,0.349587,32.210045,-15.51819,29.297433,4.63583E+18,0.579901,-0.028112,0.79706,0.166189,-9.66812,1.782281,0.326494,0.072893,0.032828,-0.042745,37.470734,-27.283546,-5.176082,4.63583E+18,-0.439956,0.469176,-0.447165,-0.621576,-9.794185,-0.640898,-0.125293,0.154207,0.053801,0.179421,40.76791,20.67934,-1.065891,4.63583E+18,0.41211,0.572864,0.482009,-0.519289,0
-9.771222,2.254916,-3.321723,0.723532,-0.585007,0.345475,32.283282,-15.442365,29.150206,4.63583E+18,0.581695,-0.024821,0.796177,0.164675,-9.72634,1.779247,0.33278,0.076376,0.040596,-0.030989,37.412658,-27.262312,-5.057191,4.63583E+18,-0.440002,0.469424,-0.447202,-0.621329,-9.883502,-0.548686,-0.051077,0.157243,0.06021,0.181388,40.794247,20.684159,-1.222664,4.63583E+18,0.41207,0.573673,0.481257,-0.519124,0
-9.660812,2.264743,-3.144436,0.705205,-0.648979,0.32606,32.430853,-15.507397,29.201187,4.63583E+18,0.583701,-0.021594,0.79511,0.163178,-9.686535,1.751879,0.295855,0.07079,0.034201,-0.025098,37.424712,-27.198095,-4.96507,4.63583E+18,-0.440033,0.469655,-0.447224,-0.621117,-9.786173,-0.627395,-0.087697,0.158057,0.066197,0.178606,40.913418,20.600014,-1.170972,4.63583E+18,0.412009,0.57449,0.480521,-0.51895,0
-9.520166,2.261287,-3.007785,0.661991,-0.67038,0.300123,32.77825,-15.342025,29.066601,4.63583E+18,0.585783,-0.018544,0.793945,0.161761,-9.704885,1.708959,0.417851,0.054237,0.023771,-0.026173,37.470742,-27.219322,-5.151214,4.63583E+18,-0.440053,0.469891,-0.447182,-0.620954,-9.762693,-0.490265,-0.066511,0.159604,0.069008,0.178156,41.050596,20.396983,-0.885391,4.63583E+18,0.411939,0.575315,0.479786,-0.518772,0
-9.317966,2.063319,-2.867149,0.647251,-0.641237,0.295366,33.05101,-15.153635,29.007709,4.63583E+18,0.58776,-0.015564,0.792827,0.160376,-9.632116,1.779011,0.521965,0.036345,0.02322,-0.023241,37.415691,-27.283546,-5.2495,4.63583E+18,-0.440031,0.470154,-0.447097,-0.620831,-9.851375,-0.244475,0.004818,0.151538,0.06794,0.17692,41.131232,20.272005,-0.823653,4.63583E+18,0.411886,0.57612,0.47907,-0.518583,0
-9.25613,1.918414,-2.72994,0.648668,-0.615833,0.304817,33.171499,-15.242809,29.004789,4.63583E+18,0.589638,-0.012567,0.791761,0.159005,-9.408877,1.861756,0.485181,0.01687,0.032552,-0.020022,37.455089,-27.283546,-5.07845,4.63583E+18,-0.439946,0.470471,-0.446986,-0.620732,-9.798397,-0.289401,-0.04077,0.137653,0.068979,0.169669,41.175571,20.193954,-1.07325,4.63583E+18,0.411849,0.576888,0.478402,-0.518374,0
-9.290364,1.966452,-2.660684,0.647808,-0.620733,0.294623,33.191929,-15.404414,28.939773,4.63583E+18,0.59153,-0.009602,0.79067,0.15761,-9.472417,1.752158,0.512711,-0.000818,0.039022,-0.022431,37.634984,-27.304755,-4.980796,4.63583E+18,-0.440073,0.470659,-0.447027,-0.62047,-9.726724,-0.357268,-0.126889,0.122926,0.07283,0.164073,41.141864,20.175922,-1.184118,4.63583E+18,0.411827,0.577628,0.477786,-0.518136,0
-9.106998,2.01767,-2.639719,0.661113,-0.609983,0.246652,33.247657,-15.451653,28.696431,4.63583E+18,0.593409,-0.00677,0.7896,0.156051,-9.707832,1.602116,0.494527,0.015955,0.019794,-0.02137,37.79732,-27.368998,-4.883131,4.63583E+18,-0.440271,0.470761,-0.447081,-0.620212,-9.755953,-0.205964,-0.124651,0.108168,0.073085,0.162163,41.090118,20.227667,-1.184118,4.63583E+18,0.411835,0.578339,0.477206,-0.517871,0
-8.832067,1.952127,-2.692526,0.670332,-0.559317,0.176781,33.385915,-15.25953,28.542771,4.63583E+18,0.595159,-0.004177,0.788647,0.154284,-9.696155,1.675265,0.421289,0.048573,0.006931,-0.015773,37.714905,-27.347791,-4.809717,4.63583E+18,-0.440543,0.47076,-0.447208,-0.619929,-9.768502,-0.191707,-0.119495,0.095772,0.068813,0.158537,41.061235,20.227667,-1.184118,4.63583E+18,0.411874,0.579011,0.476654,-0.517597,0
-8.755628,1.910194,-2.737907,0.650735,-0.517937,0.121771,33.488885,-15.012462,28.581509,4.63583E+18,0.5968,-0.00184,0.787773,0.152443,-9.521774,1.745748,0.341986,0.061142,0.009629,-0.00775,37.65984,-27.283546,-4.833953,4.63583E+18,-0.440809,0.470731,-0.447384,-0.619635,-9.695967,-0.399202,-0.182405,0.08613,0.070436,0.15595,41.050562,20.136233,-1.184118,4.63583E+18,0.411927,0.579665,0.476132,-0.517304,0
-8.95699,1.857927,-2.73738,0.602656,-0.463195,0.088895,33.565035,-14.833357,28.518376,4.63583E+18,0.598276,0.000234,0.786996,0.150676,-9.561153,1.678745,0.256446,0.070988,-0.003422,-0.005341,37.638635,-27.283546,-4.861939,4.63583E+18,-0.44111,0.470649,-0.447563,-0.619354,-9.621663,-0.462358,-0.227481,0.080563,0.077749,0.155528,41.198573,19.875419,-1.184118,4.63583E+18,0.411978,0.580323,0.475635,-0.516982,0
-9.141974,1.991875,-2.715889,0.605866,-0.516053,0.070873,33.70327,-14.795373,28.278528,4.63583E+18,0.599929,0.002291,0.786081,0.148852,-9.66533,1.614215,0.204593,0.087861,-0.025619,-0.002956,37.553191,-27.26235,-4.724265,4.63583E+18,-0.441229,0.470654,-0.44756,-0.619267,-9.682343,-0.298857,-0.139805,0.074186,0.07778,0.156145,41.375345,19.748283,-1.150436,4.63583E+18,0.412046,0.580972,0.47515,-0.516646,0
-9.189252,2.150054,-2.635765,0.626417,-0.646143,0.065668,33.861966,-14.739663,28.127746,4.63583E+18,0.602004,0.004463,0.784843,0.146945,-9.561908,1.739217,0.158696,0.079094,-0.028865,0.004538,37.510131,-27.176901,-4.772708,4.63583E+18,-0.441317,0.470653,-0.447543,-0.619217,-9.741508,-0.257867,-0.097302,0.06373,0.073312,0.157665,41.41972,19.962128,-1.060175,4.63583E+18,0.412151,0.581594,0.474675,-0.516298,0
-9.136472,2.361516,-2.463845,0.627214,-0.702343,0.053784,34.020647,-14.471468,28.166428,4.63583E+18,0.604262,0.006632,0.783453,0.145002,-9.393546,1.84352,0.185935,0.060346,-0.018962,0.004811,37.574387,-27.133829,-4.940769,4.63583E+18,-0.441349,0.470713,-0.447496,-0.619183,-9.736696,-0.426191,-0.192023,0.053244,0.06943,0.156176,41.41972,20.09187,-0.92883,4.63583E+18,0.412286,0.582187,0.47422,-0.51594,0
-9.053947,2.472766,-2.314949,0.600753,-0.701127,0.043705,34.123639,-14.327545,28.17761,4.63583E+18,0.606513,0.0087,0.782038,0.143118,-9.457307,1.721648,0.304882,0.070692,-0.021336,0.00294,37.574387,-27.219281,-4.959637,4.63583E+18,-0.441411,0.470751,-0.447467,-0.619131,-9.753352,-0.44573,-0.266339,0.047646,0.072376,0.154461,41.458202,19.841797,-0.851568,4.63583E+18,0.412425,0.582772,0.473785,-0.515568,0
-8.912781,2.49031,-2.264216,0.544891,-0.675822,0.028659,34.199813,-14.307076,27.961144,4.63583E+18,0.608683,0.010564,0.780644,0.141377,-9.616205,1.598968,0.436238,0.100644,-0.03283,0.002136,37.613732,-27.262361,-4.818898,4.63583E+18,-0.441556,0.470706,-0.447493,-0.619044,-9.814385,-0.242663,-0.220101,0.044053,0.076065,0.152972,41.483713,19.605089,-0.975489,4.63583E+18,0.412562,0.583356,0.473367,-0.515182,0
-8.781956,2.425332,-2.211957,0.48919,-0.63211,0.021318,34.403002,-14.251381,27.736112,4.63583E+18,0.610712,0.012236,0.779319,0.139799,-9.683497,1.714781,0.488399,0.113206,-0.040572,0.001077,37.733082,-27.198095,-4.809717,4.63583E+18,-0.441991,0.470439,-0.447725,-0.618768,-9.822518,-0.180155,-0.18792,0.035313,0.076874,0.152098,41.39826,19.633946,-1.086459,4.63583E+18,0.412717,0.583923,0.472972,-0.514778,0
-8.771274,2.312028,-2.132351,0.454463,-0.579168,0.02923,34.572894,-13.983191,27.602844,4.63583E+18,0.612559,0.013815,0.778099,0.138356,-9.662427,1.846343,0.421423,0.122015,-0.046734,-0.002401,37.654429,-27.240447,-4.812742,4.63583E+18,-0.442462,0.470149,-0.447958,-0.618482,-9.744468,-0.265603,-0.171274,0.027157,0.082636,0.153166,41.351282,19.64948,-0.975856,4.63583E+18,0.412884,0.58449,0.4726,-0.514342,0
-8.879228,2.217809,-2.074752,0.432934,-0.536879,0.035293,34.672963,-13.718588,27.492984,4.63583E+18,0.614261,0.015333,0.776968,0.136999,-9.552454,1.855525,0.344725,0.132687,-0.049107,-0.00294,37.39149,-27.326646,-4.797723,4.63583E+18,-0.442713,0.470013,-0.448026,-0.618357,-9.697486,-0.327008,-0.172745,0.023305,0.08652,0.155496,41.392337,19.605089,-0.767225,4.63583E+18,0.413057,0.585063,0.472238,-0.513885,0
-9.050633,2.215896,-2.090897,0.418581,-0.530102,0.029008,34.814103,-13.780749,27.466658,4.63583E+18,0.615941,0.016791,0.77584,0.135671,-9.515509,1.894847,0.351315,0.138368,-0.066159,-0.003195,37.357353,-27.1376,-4.748463,4.63583E+18,-0.443006,0.469823,-0.448076,-0.618255,-9.690462,-0.317768,-0.246365,0.020942,0.091568,0.16061,41.501829,19.667593,-0.751301,4.63583E+18,0.413237,0.585651,0.471876,-0.513402,0
-9.168771,2.231029,-2.081109,0.400891,-0.552798,0.018582,34.917109,-13.818781,27.466658,4.63583E+18,0.617696,0.018182,0.774639,0.134372,-9.546415,2.047482,0.228917,0.112793,-0.086804,-0.008525,37.519058,-26.972089,-4.821924,4.63583E+18,-0.443301,0.469638,-0.448012,-0.618231,-9.687493,-0.290385,-0.254141,0.01735,0.102282,0.166598,41.624274,19.763786,-0.779437,4.63583E+18,0.413417,0.586268,0.471525,-0.512875,0
-9.247866,2.289646,-2.075258,0.375979,-0.577577,0.002215,34.99328,-13.577451,27.38312,4.63583E+18,0.619538,0.01947,0.773354,0.133108,-9.45178,2.130361,0.271135,0.070048,-0.075888,-0.018129,37.647633,-27.090688,-4.818901,4.63583E+18,-0.443516,0.469577,-0.447839,-0.618248,-9.731513,-0.334024,-0.231941,0.011556,0.11102,0.174882,41.709721,19.672463,-0.681785,4.63583E+18,0.413612,0.586908,0.471181,-0.512301,0
-9.339665,2.260795,-2.056697,0.337908,-0.609195,-0.01919,35.252133,-13.436423,27.273263,4.63583E+18,0.621491,0.020608,0.771962,0.131907,-9.411677,2.057121,0.457488,0.034791,-0.055849,-0.032533,37.608335,-27.283546,-4.81274,4.63583E+18,-0.443909,0.469481,-0.447773,-0.618087,-9.748909,-0.37843,-0.231941,0.00751,0.123805,0.191485,41.761528,19.474167,-0.661029,4.63583E+18,0.413827,0.5876,0.470827,-0.511659,0
-9.418748,2.190493,-1.985896,0.2922,-0.660417,-0.027815,35.513789,-13.601501,27.10775,4.63583E+18,0.623611,0.021628,0.770406,0.130826,-9.500256,2.008056,0.510064,-0.00227,-0.038508,-0.049642,37.467792,-27.262402,-4.84609,4.63583E+18,-0.443994,0.469709,-0.447421,-0.618108,-9.741508,-0.397655,-0.16465,0.000908,0.138986,0.212655,41.727882,19.351711,-0.830786,4.63583E+18,0.414073,0.588355,0.47046,-0.51093,0
-9.427044,2.117246,-1.891163,0.252507,-0.714595,-0.032088,35.442473,-13.604413,26.850405,4.63583E+18,0.625906,0.02256,0.768681,0.129855,-9.546189,2.056636,0.399699,-0.054873,-0.015559,-0.06138,37.445774,-27.21924,-4.916563,4.63583E+18,-0.443963,0.470116,-0.446953,-0.61816,-9.722284,-0.489736,-0.003366,-0.01016,0.152871,0.232301,41.647239,19.271069,-0.957754,4.63583E+18,0.41436,0.589157,0.470093,-0.51011,0
-9.396285,2.034736,-1.663644,0.215939,-0.709551,-0.033113,35.522067,-13.401305,26.625339,4.63583E+18,0.628182,0.023391,0.766941,0.128998,-9.543169,2.175683,0.412159,-0.108806,0.011154,-0.076862,37.613646,-27.304686,-4.907376,4.63583E+18,-0.444062,0.470542,-0.446551,-0.618055,-9.678263,-0.614786,0.162332,-0.02259,0.168438,0.252594,41.607634,19.193025,-0.780625,4.63583E+18,0.41469,0.590009,0.469729,-0.509191,0
-9.341113,1.949289,-1.339441,0.184494,-0.63573,-0.037171,35.81062,-13.222103,26.492033,4.63583E+18,0.630223,0.024087,0.765372,0.128237,-9.573218,2.213097,0.35415,-0.158267,0.026991,-0.09395,37.711955,-27.28449,-4.886249,4.63583E+18,-0.444079,0.471132,-0.446018,-0.617978,-9.665665,-0.591937,0.208704,-0.039122,0.178608,0.268684,41.615036,19.07875,-0.571935,4.63583E+18,0.415074,0.590885,0.469376,-0.508187,0
-9.280076,1.882389,-1.155326,0.166761,-0.51841,-0.033583,35.880491,-13.119063,26.243025,4.63583E+18,0.631884,0.024684,0.764096,0.127553,-9.698717,2.060162,0.305315,-0.175509,0.015815,-0.110778,37.605362,-26.945671,-4.870232,4.63583E+18,-0.443878,0.471934,-0.445199,-0.6181,-9.73331,-0.406636,0.030409,-0.055771,0.180675,0.279558,41.648661,18.924869,-0.474282,4.63583E+18,0.415518,0.591757,0.469036,-0.507124,0
-9.246869,1.895557,-1.225105,0.151253,-0.382641,-0.023929,35.87756,-13.107819,25.95935,4.63583E+18,0.633108,0.025199,0.763165,0.126958,-9.683885,2.032335,0.247431,-0.157018,-0.000804,-0.124158,37.497859,-26.718724,-5.089696,4.63583E+18,-0.443778,0.472684,-0.444369,-0.618196,-9.824359,-0.285574,-0.126084,-0.055736,0.190061,0.291115,41.705292,18.836023,-0.381427,4.63583E+18,0.415966,0.592669,0.468682,-0.506017,0
-9.259556,1.950733,-1.405774,0.149839,-0.280296,-0.014058,36.063074,-13.166405,26.031038,4.63583E+18,0.633999,0.025688,0.762501,0.126403,-9.573758,2.069359,0.155951,-0.155697,0,-0.131346,37.583304,-26.822274,-5.307203,4.63583E+18,-0.443697,0.473446,-0.443529,-0.618274,-9.829561,-0.288175,-0.236344,-0.055158,0.202843,0.301568,41.746317,18.773584,-0.3296,4.63583E+18,0.416409,0.593628,0.468322,-0.50486,0
-9.339618,2.011767,-1.63818,0.148986,-0.242261,-0.014996,36.18663,-13.24892,26.149213,4.63583E+18,0.634769,0.026151,0.761935,0.125853,-9.561278,1.908599,0.121529,-0.138474,-0.002112,-0.142316,37.686864,-26.941738,-5.249728,4.63583E+18,-0.443682,0.474191,-0.442707,-0.618303,-9.819555,-0.295177,-0.304781,-0.044128,0.218444,0.314997,41.831764,18.614899,-0.291183,4.63583E+18,0.416821,0.594663,0.467932,-0.503662,0
-9.428,2.100626,-1.817399,0.127373,-0.259852,-0.032253,36.142237,-13.325095,26.181947,4.63583E+18,0.635605,0.026512,0.761313,0.125323,-9.658523,1.544718,0.350033,-0.08058,-0.013826,-0.146864,37.788223,-26.941738,-5.102695,4.63583E+18,-0.443815,0.474806,-0.442004,-0.61824,-9.82696,-0.341403,-0.380224,-0.02807,0.235499,0.330179,41.917216,18.461006,-0.155107,4.63583E+18,0.417192,0.59579,0.467499,-0.502424,0
-9.485624,2.133362,-1.911166,0.090678,-0.303551,-0.070654,36.307177,-13.166496,26.027231,4.63583E+18,0.636603,0.026676,0.760559,0.124803,-9.790622,1.488451,0.558951,-0.018258,-0.034131,-0.149792,37.733082,-26.92364,-5.150956,4.63583E+18,-0.444115,0.475258,-0.441416,-0.618097,-9.798151,-0.296804,-0.42026,-0.019875,0.252012,0.348266,42.031472,18.434562,-0.007813,4.63583E+18,0.417546,0.596998,0.467032,-0.501128,0
-9.506633,2.062111,-1.92877,0.048723,-0.339446,-0.115258,36.421493,-12.980928,25.893896,4.63583E+18,0.637741,0.026606,0.75969,0.124294,-9.647726,1.769356,0.436451,0.000352,-0.047526,-0.156452,37.77229,-26.847382,-5.252774,4.63583E+18,-0.444493,0.475654,-0.440838,-0.617933,-9.763316,-0.166103,-0.395438,-0.008305,0.263532,0.367791,42.185358,18.530838,0.031822,4.63583E+18,0.417888,0.598287,0.466511,-0.49979,0
-9.555933,1.945905,-1.92877,0.000318,-0.376358,-0.152818,36.374186,-12.939848,25.793303,4.63583E+18,0.639019,0.026308,0.758702,0.123834,-9.379041,2.010467,0.472482,-0.040093,-0.039638,-0.168452,37.909869,-26.783043,-5.090783,4.63583E+18,-0.444808,0.476166,-0.440146,-0.617805,-9.78293,-0.259509,-0.465253,0.052231,0.27635,0.385421,42.221432,18.406022,0.106026,4.63583E+18,0.41809,0.599739,0.46584,-0.498505,0
-9.635509,1.823842,-1.956586,-0.063673,-0.414808,-0.183195,36.41855,-13.004751,25.556572,4.63583E+18,0.640439,0.025763,0.757578,0.12349,-9.198352,2.167036,0.580222,-0.116723,-0.006197,-0.181572,37.965023,-26.783043,-5.062466,4.63583E+18,-0.445192,0.476753,-0.439485,-0.617546,-9.670336,-0.717455,-0.643141,0.235134,0.330748,0.416324,42.115956,18.059844,0.270341,4.63583E+18,0.417792,0.60168,0.464804,-0.497382,0
-9.674601,1.803761,-1.965392,-0.147455,-0.454887,-0.194999,36.680192,-12.904753,25.266512,4.63583E+18,0.641998,0.024978,0.756303,0.123375,-9.237249,1.994301,0.473222,-0.182576,0.004311,-0.189802,37.986127,-26.740835,-5.248591,4.63583E+18,-0.445439,0.477509,-0.438652,-0.617377,-9.465956,-1.438474,-0.802661,0.516675,0.444264,0.450767,42.107714,17.794014,0.3296,4.63583E+18,0.416635,0.604407,0.463293,-0.496455,0
-9.578491,1.85305,-1.965392,-0.240964,-0.467078,-0.21763,36.812116,-12.746081,25.260977,4.63583E+18,0.643613,0.023878,0.754945,0.123492,-9.445068,1.608662,0.466448,-0.197923,-0.010616,-0.209832,38.068563,-26.530747,-5.398687,4.63583E+18,-0.445727,0.478296,-0.437705,-0.617232,-9.465118,-1.653541,-0.72974,0.753404,0.536993,0.491173,42.276942,17.72077,0.363194,4.63583E+18,0.414781,0.607805,0.461344,-0.495672,0
-9.407136,1.914084,-1.928311,-0.342513,-0.450004,-0.254323,36.829735,-12.707907,25.281532,4.63583E+18,0.645199,0.022381,0.75358,0.123831,-9.531122,1.607287,0.519661,-0.188758,-0.02354,-0.225102,38.159883,-26.219258,-5.383773,4.63583E+18,-0.445858,0.479227,-0.436544,-0.617237,-9.581538,-1.206708,-0.47955,0.940269,0.602064,0.551138,42.474353,17.585157,0.49182,4.63583E+18,0.412443,0.611763,0.458959,-0.494969,0
-9.205467,1.965855,-1.842392,-0.463169,-0.419201,-0.310073,36.950264,-12.772806,25.133192,4.63583E+18,0.646724,0.020368,0.752235,0.124401,-9.470085,1.858539,0.35958,-0.203672,-0.008876,-0.229361,38.212956,-26.068372,-5.31022,4.63583E+18,-0.445943,0.48023,-0.435362,-0.617231,-9.807788,-0.868027,-0.328286,1.031639,0.625247,0.621741,42.486558,17.353251,0.576796,4.63583E+18,0.409962,0.616042,0.456231,-0.494243,0
-9.072128,2.005408,-1.744748,-0.600546,-0.416103,-0.366082,37.17382,-12.92313,24.798862,4.63583E+18,0.648273,0.017808,0.750825,0.12525,-9.502454,1.837602,0.557596,-0.221647,0.000609,-0.240529,37.996087,-26.197088,-5.334325,4.63583E+18,-0.446002,0.48131,-0.434127,-0.617216,-10.124747,-0.502658,-0.414198,0.974185,0.588738,0.683578,42.585098,17.150087,0.486548,4.63583E+18,0.407813,0.620246,0.453387,-0.493381,0
-8.980797,2.060571,-1.619276,-0.769935,-0.400612,-0.425426,37.288198,-12.899374,24.559468,4.63583E+18,0.649807,0.014596,0.749362,0.126467,-9.756567,1.814933,0.690756,-0.227681,-0.020516,-0.262167,37.909533,-26.176004,-5.456071,4.63583E+18,-0.446142,0.482385,-0.432793,-0.617214,-10.320488,-0.191393,-0.930809,0.863179,0.554788,0.723021,42.821823,17.029764,0.422463,4.63583E+18,0.406084,0.624247,0.450598,-0.492313,0
-8.876802,2.001097,-1.531341,-0.935343,-0.353847,-0.448999,37.305824,-12.878811,24.364144,4.63583E+18,0.651206,0.010837,0.747926,0.128138,-9.721223,2.095703,0.346256,-0.271835,-0.024388,-0.282975,38.05634,-26.090552,-5.651389,4.63583E+18,-0.446252,0.483567,-0.431294,-0.617258,-10.31961,-0.322187,-1.241242,0.709913,0.556276,0.752167,42.907727,16.896811,0.458205,4.63583E+18,0.404801,0.628031,0.448038,-0.490891,0
-8.794759,1.921992,-1.467378,-1.090927,-0.322087,-0.422632,37.426307,-12.878811,24.16886,4.63583E+18,0.652484,0.006722,0.746475,0.130364,-9.436806,2.286118,0.024415,-0.353844,-0.00111,-0.311509,38.114524,-26.026184,-5.84369,4.63583E+18,-0.446225,0.485011,-0.429568,-0.617349,-10.857947,-0.281652,-0.91517,0.536529,0.581487,0.735233,42.820952,16.595125,0.635198,4.63583E+18,0.403882,0.631529,0.44591,-0.489097,0
-8.684451,2.015562,-1.424879,-1.252029,-0.275628,-0.372018,37.649865,-13.073423,23.982821,4.63583E+18,0.653575,0.0023,0.74504,0.133226,-9.377634,2.188632,0.033446,-0.420179,0.009862,-0.347837,38.201994,-25.984037,-5.957544,4.63583E+18,-0.446135,0.486669,-0.427614,-0.617465,-11.410503,-0.346558,-0.532332,0.393474,0.638174,0.704368,42.965221,16.2093,0.882396,4.63583E+18,0.403163,0.634831,0.444242,-0.486928,0
-8.553097,2.171332,-1.388254,-1.391952,-0.167068,-0.32808,37.764279,-13.385412,23.734814,4.63583E+18,0.654284,-0.002426,0.743798,0.136638,-9.549033,2.081446,0.067057,-0.458397,0.01652,-0.381739,38.480244,-25.813138,-5.862898,4.63583E+18,-0.446281,0.488305,-0.425694,-0.617395,-10.753584,-0.355428,-0.481779,0.291164,0.674952,0.69716,43.198932,15.917178,1.001007,4.63583E+18,0.402624,0.638011,0.442854,-0.484476,0
-8.5115,2.339286,-1.48138,-1.516285,-0.079959,-0.308577,37.71704,-13.529639,23.53114,4.63583E+18,0.654686,-0.007481,0.742695,0.140483,-9.576967,2.069068,0.160668,-0.491212,0.027463,-0.417525,38.61786,-25.663315,-5.822586,4.63583E+18,-0.446434,0.490087,-0.423638,-0.617286,-10.34267,0.576921,-0.376705,0.184322,0.680489,0.674086,43.255625,15.758482,1.0777,4.63583E+18,0.402307,0.640968,0.441745,-0.481841,0
-8.675351,2.361911,-1.541516,-1.630743,-0.015738,-0.32576,37.696461,-13.550218,23.412915,4.63583E+18,0.654865,-0.012939,0.741665,0.144627,-9.527789,2.192717,0.375601,-0.544659,0.047368,-0.450912,38.733197,-25.577875,-5.941284,4.63583E+18,-0.446523,0.492077,-0.42141,-0.617164,-10.594221,1.736806,-0.293429,0.030981,0.66855,0.606659,43.306173,15.542281,1.416791,4.63583E+18,0.402279,0.64351,0.441097,-0.479061,0
-8.932166,2.207758,-1.615209,-1.71939,0.050016,-0.387332,37.81693,-13.735556,23.250382,4.63583E+18,0.65484,-0.018867,0.740721,0.148866,-9.531157,2.586879,0.257446,-0.658985,0.096174,-0.479782,38.914196,-25.39021,-6.154448,4.63583E+18,-0.446355,0.494454,-0.418911,-0.617087,-10.584384,2.139721,-0.021555,-0.165336,0.664728,0.501489,43.473534,15.237117,1.944748,4.63583E+18,0.40257,0.645513,0.441112,-0.4761,0
-9.154456,1.910404,-1.849016,-1.785182,0.05568,-0.469722,37.864429,-13.989048,23.141379,4.63583E+18,0.654805,-0.025232,0.739704,0.153074,-9.545296,2.666366,0.093759,-0.799482,0.147326,-0.505109,38.880937,-24.889676,-6.408529,4.63583E+18,-0.445626,0.497424,-0.415895,-0.617267,-10.143205,2.852558,0.63411,-0.415343,0.660964,0.399216,43.691555,15.051728,2.305832,4.63583E+18,0.468028,0.575469,0.531571,-0.408923,0
-9.232193,1.6457,-2.05562,-1.837954,0.023137,-0.548684,37.802472,-14.171238,23.055928,4.63583E+18,0.654876,-0.031962,0.73851,0.157223,-9.807458,1.930342,0.319666,-0.847233,0.154747,-0.53613,38.891505,-24.59363,-6.482131,4.63583E+18,-0.444855,0.500545,-0.412696,-0.617447,-9.858332,4.279962,1.302066,-0.688896,0.635289,0.288634,43.696922,15.080476,2.532056,4.63583E+18,0.468611,0.576171,0.532907,-0.405514,0
-9.13902,1.531335,-2.285099,-1.868691,0.017942,-0.615861,37.717014,-14.274317,22.822131,4.63583E+18,0.654959,-0.038977,0.737225,0.161274,-10.097796,0.808619,0.524186,-0.783337,0.108976,-0.552495,39.1281,-24.802987,-6.482131,4.63583E+18,-0.444572,0.503287,-0.409732,-0.617396,-9.840093,5.046911,1.822617,-0.935524,0.620405,0.153771,43.469788,15.057907,2.825013,4.63583E+18,0.469865,0.575684,0.535345,-0.401522,0
-9.078911,1.467365,-2.501421,-1.91678,0.071953,-0.6694,37.816977,-14.424657,22.393049,4.63583E+18,0.654858,-0.046321,0.735995,0.165307,-10.224162,0.297882,0.587247,-0.692107,0.027322,-0.544096,38.727051,-24.235518,-6.542245,4.63583E+18,-0.444348,0.505788,-0.406665,-0.617541,-9.904843,4.839999,2.375352,-1.119096,0.619715,0.008787,43.341071,14.954069,3.151523,4.63583E+18,0.471305,0.574497,0.538424,-0.397397,0
-9.172073,1.489762,-2.820183,-2.016124,0.130024,-0.714735,37.97567,-14.595556,22.139458,4.63583E+18,0.654541,-0.054112,0.734792,0.169496,-10.042007,0.672333,0.128291,-0.662316,-0.057186,-0.506451,37.549235,-22.582033,-6.783367,4.63583E+18,-0.444364,0.507855,-0.403705,-0.617776,-10.06246,4.268601,2.98446,-1.202612,0.648066,-0.102606,43.382017,14.987598,3.491616,4.63583E+18,0.472681,0.572924,0.541946,-0.393224,0
-9.278543,1.566402,-3.266899,-2.157738,0.132587,-0.788541,38.134367,-14.766459,22.030509,4.63583E+18,0.65418,-0.062512,0.733415,0.173903,-9.804982,1.062422,-0.665568,-0.713341,-0.116197,-0.47089,37.305615,-21.897247,-6.973243,4.63583E+18,-0.444273,0.509797,-0.400574,-0.618279,-9.997393,3.655465,3.329521,-1.211929,0.709488,-0.200342,43.409997,15.005999,3.772366,4.63583E+18,0.473763,0.571191,0.54582,-0.389063,0
-9.598652,1.438657,-3.270222,-2.395115,0.332818,-1.01216,38.237435,-14.928078,21.870913,4.63583E+18,0.653238,-0.072381,0.732277,0.178355,-10.044789,0.817558,-1.211537,-0.739045,-0.182846,-0.443135,38.003698,-22.569585,-7.088355,4.63583E+18,-0.443721,0.511844,-0.396943,-0.619325,-10.087164,3.590474,3.25215,-1.223431,0.756799,-0.275171,43.34896,14.891813,4.129759,4.63583E+18,0.474625,0.56932,0.549965,-0.384897,0
-10.137576,1.20627,-3.401799,-2.500238,0.539278,-1.084803,38.258003,-15.096039,21.761956,4.63583E+18,0.651606,-0.082902,0.731509,0.182845,-10.430934,0.214896,-1.139656,-0.692958,-0.270163,-0.407432,38.112876,-22.817586,-7.375106,4.63583E+18,-0.443612,0.513318,-0.393587,-0.620324,-10.058635,3.551086,2.841164,-1.250217,0.797156,-0.348687,43.316655,14.915081,4.67765,4.63583E+18,0.475319,0.567268,0.554385,-0.380705,0
-10.093259,1.601663,-4.186924,-2.437117,0.233108,-0.982754,38.258003,-15.257674,21.667236,4.63583E+18,0.650766,-0.092697,0.7299,0.187502,-10.486159,-0.021412,-0.846093,-0.628047,-0.357471,-0.35828,37.912216,-22.305264,-7.629237,4.63583E+18,-0.443651,0.514359,-0.390338,-0.621486,-9.883209,2.721952,2.270536,-1.239089,0.854733,-0.444564,43.324074,15.191531,5.260225,4.63583E+18,0.475417,0.565474,0.558709,-0.376912,0
-9.78426,2.014419,-4.446883,-2.391862,-0.26666,-0.91958,38.313607,-15.305144,21.356431,4.63583E+18,0.651338,-0.101776,0.726909,0.192363,-10.420098,0.080879,-0.63296,-0.575835,-0.441676,-0.312614,38.087097,-21.82142,-7.79896,4.63583E+18,-0.443954,0.514916,-0.387277,-0.622722,-9.923673,2.010114,1.619212,-1.136117,0.924832,-0.518015,43.175635,15.32771,5.695388,4.63583E+18,0.475239,0.563409,0.563557,-0.37299,0
-9.751222,1.988466,-4.010874,-2.470317,-0.449069,-0.872761,38.507324,-15.308084,20.829736,4.63583E+18,0.652314,-0.110768,0.723294,0.197644,-10.100531,0.501298,-0.351816,-0.570951,-0.49478,-0.270907,38.009054,-21.692556,-8.237589,4.63583E+18,-0.44424,0.515253,-0.384215,-0.624134,-10.213273,1.829669,1.009638,-0.95583,0.942589,-0.541803,42.921711,15.353799,6.196076,4.63583E+18,0.474539,0.561649,0.568194,-0.369484,0
-9.951268,1.795641,-3.508324,-2.627882,-0.302428,-0.851197,38.804137,-15.567567,20.191117,4.63583E+18,0.652672,-0.120229,0.719866,0.203365,-9.753514,0.840513,-0.102266,-0.616566,-0.508858,-0.242277,37.82974,-21.73458,-8.700475,4.63583E+18,-0.44437,0.515586,-0.381066,-0.625696,-10.599842,2.275996,0.993038,-0.816259,0.906736,-0.528187,42.855893,15.49189,6.747785,4.63583E+18,0.473601,0.560122,0.572494,-0.366355,0
-10.176861,1.476941,-3.36586,-2.741462,-0.113734,-0.830272,39.00104,-15.84448,19.745098,4.63583E+18,0.6523,-0.13008,0.716765,0.209361,-9.853365,0.532336,0.282154,-0.627685,-0.535841,-0.229897,38.115899,-21.839448,-8.785925,4.63583E+18,-0.443879,0.516205,-0.377366,-0.627773,-10.518754,3.288451,1.583568,-0.858793,0.877495,-0.574968,42.720429,15.687694,7.047003,4.63583E+18,0.472744,0.558336,0.576893,-0.363274,0
-10.211272,0.965418,-3.496023,-2.795986,-0.110225,-0.810827,38.974415,-16.026702,19.514932,4.63583E+18,0.651775,-0.140005,0.713533,0.215541,-9.99869,0.32898,0.666961,-0.632108,-0.559094,-0.224999,38.404904,-21.642792,-8.973376,4.63583E+18,-0.443854,0.516476,-0.373994,-0.629583,-10.223358,4.794596,1.666258,-1.104143,0.81732,-0.674865,42.555496,15.812885,7.352377,4.63583E+18,0.472433,0.555714,0.581756,-0.359929,0
-9.955243,0.190841,-3.558676,-2.819805,-0.266324,-0.794292,38.953823,-16.129796,19.331838,4.63583E+18,0.651589,-0.149785,0.70976,0.221895,-9.731366,0.691484,0.573531,-0.814153,-0.510591,-0.221759,38.271241,-21.205293,-9.446878,4.63583E+18,-0.443486,0.517112,-0.370352,-0.63147,-10.462769,6.586131,1.511257,-1.406632,0.658129,-0.774743,42.494463,15.886124,7.866707,4.63583E+18,0.473035,0.551988,0.586963,-0.3564,0
-9.403309,-0.790411,-3.258839,-2.80716,-0.392962,-0.792051,39.074259,-16.344945,19.074618,4.63583E+18,0.651684,-0.159384,0.70555,0.228263,-8.93715,2.655687,-0.839027,-2.031513,-0.137195,-0.296139,38.105095,-20.979156,-9.813495,4.63583E+18,-0.440094,0.521072,-0.36402,-0.634264,-11.028739,7.030578,1.854718,-1.625873,0.493884,-0.857163,42.39515,16.021567,8.325627,4.63583E+18,0.474392,0.547351,0.592327,-0.352856,0
-8.678824,-1.44526,-2.71703,-2.766084,-0.371697,-0.804725,39.288541,-16.471601,18.571504,4.63583E+18,0.651659,-0.168905,0.701324,0.234429,-7.830469,5.345987,-0.960965,-3.403152,0.401346,-0.288552,38.20231,-20.850245,-10.175375,4.63583E+18,-0.432367,0.529136,-0.354641,-0.638203,-10.571781,4.459511,2.396278,-1.710451,0.411858,-0.916543,42.207758,16.220009,8.611168,4.63583E+18,0.476024,0.542241,0.597749,-0.349387,0
-8.292538,-1.769306,-2.501648,-2.790421,-0.283805,-0.738063,39.400047,-16.501467,17.923642,4.63583E+18,0.651199,-0.178359,0.697257,0.24075,-9.116163,0.542433,2.096461,-2.689065,0.262331,-0.286114,38.47217,-20.868235,-10.698185,4.63583E+18,-0.426646,0.535269,-0.347108,-0.641074,-8.811598,-0.372234,2.550417,-1.582769,0.444525,-0.93606,42.038012,16.399969,9.009351,4.63583E+18,0.477226,0.537347,0.603055,-0.346178,0
-8.2,-1.868163,-2.589261,-2.858489,-0.234691,-0.62569,39.473286,-16.754516,17.335664,4.63583E+18,0.650336,-0.187694,0.693236,0.247502,-11.08585,-4.149559,2.187031,-1.722011,-0.103361,-0.344979,38.985921,-20.920491,-10.998434,4.63583E+18,-0.423725,0.538738,-0.341343,-0.643197,-8.141483,-3.175915,1.30528,-1.380552,0.492822,-0.843415,41.936076,16.660593,9.460868,4.63583E+18,0.477959,0.533124,0.607923,-0.343166,0
-8.052241,-1.991081,-2.448618,-2.822225,-0.234551,-0.601147,39.555782,-17.148909,16.996474,4.63583E+18,0.64938,-0.196833,0.68917,0.25418,-10.342407,-0.630276,2.095702,-1.109559,-0.334177,-0.329094,39.132685,-20.812371,-11.171025,4.63583E+18,-0.422447,0.54046,-0.336835,-0.644969,-10.479038,1.121199,0.736255,-1.561882,0.260287,-0.6979,41.756127,16.932285,9.779871,4.63583E+18,0.479866,0.528548,0.612233,-0.339906,0
-7.878382,-2.359879,-2.170351,-2.689059,-0.253338,-0.605677,39.752389,-17.193485,16.570431,4.63583E+18,0.6485,-0.205577,0.685095,0.260442,-8.817401,1.348949,1.14282,-0.952852,-0.357344,-0.432829,38.819542,-20.466481,-11.615815,4.63583E+18,-0.42182,0.541974,-0.332464,-0.646375,-12.940177,7.655251,1.775979,-2.390165,-0.084115,-0.709244,41.562439,16.9751,10.201334,4.63583E+18,0.48442,0.521755,0.617003,-0.335287,0
-7.818629,-2.715963,-2.127459,-2.583327,-0.313599,-0.53053,40.049149,-17.240649,16.08511,4.63583E+18,0.647719,-0.213729,0.680949,0.266625,-8.883852,1.852529,0.879381,-0.864477,-0.34876,-0.563597,39.062203,-20.394455,-12.114615,4.63583E+18,-0.421722,0.543523,-0.328043,-0.647395,-12.635005,7.846284,1.569174,-3.37552,-0.296898,-0.762649,41.456851,16.771856,10.646578,4.63583E+18,0.491508,0.512453,0.622736,-0.328652,0
-7.54419,-2.851057,-2.080734,-2.505509,-0.485078,-0.464168,40.246119,-17.585379,15.624653,4.63583E+18,0.647342,-0.221266,0.676405,0.272886,-9.411682,2.091941,0.835643,-0.75429,-0.328801,-0.707491,39.949129,-20.527539,-12.341234,4.63583E+18,-0.422225,0.545115,-0.323622,-0.647954,-10.973122,3.848093,1.258543,-4.007199,-0.42497,-0.69333,41.4245,16.613171,11.063221,4.63583E+18,0.500246,0.501731,0.628766,-0.320427,0
-7.134626,-2.924299,-1.896372,-2.43505,-0.673436,-0.426451,40.284431,-17.818166,15.080393,4.63583E+18,0.647442,-0.228268,0.671389,0.279193,-9.526383,2.994273,0.975672,-0.71191,-0.260325,-0.861734,40.337176,-20.275803,-12.417924,4.63583E+18,-0.423398,0.546883,-0.319296,-0.647845,-10.727375,1.823759,2.051739,-4.43312,-0.586428,-0.589186,41.441487,16.454475,11.615792,4.63583E+18,0.510271,0.490013,0.634607,-0.311104,0
-6.735182,-3.025314,-1.584071,-2.353475,-0.785038,-0.39441,40.275173,-17.924243,14.441885,4.63583E+18,0.647822,-0.234805,0.666123,0.285434,-9.888676,3.474959,1.236853,-0.649315,-0.220099,-1.032593,40.216943,-19.775314,-12.47504,4.63583E+18,-0.42485,0.54899,-0.314594,-0.647412,-11.463933,2.016355,3.351532,-4.856788,-0.811621,-0.545257,41.494582,16.267098,12.172476,4.63583E+18,0.521413,0.47744,0.639868,-0.301244,0
-6.289006,-3.070368,-1.195981,-2.246963,-0.841287,-0.371277,40.327774,-18.20412,13.708637,4.63583E+18,0.648367,-0.240898,0.660785,0.291466,-10.341248,3.614099,1.560026,-0.539737,-0.21383,-1.201247,40.350039,-19.334713,-12.670341,4.63583E+18,-0.426986,0.551123,-0.309801,-0.646506,-11.033501,0.948899,4.355004,-5.14,-1.001814,-0.511078,41.55878,16.035169,12.440958,4.63583E+18,0.533439,0.463896,0.644725,-0.290814,0
-5.917709,-3.205884,-0.867205,-2.146701,-0.861293,-0.3364,40.586188,-18.3515,13.164723,4.63583E+18,0.64896,-0.246576,0.655484,0.297308,-10.643432,3.291055,1.438193,-0.36531,-0.230072,-1.340426,40.664429,-19.018515,-12.841714,4.63583E+18,-0.429903,0.553061,-0.305118,-0.645143,-9.74833,-1.46145,4.844253,-5.166753,-1.128538,-0.493625,41.513643,15.736343,12.653298,4.63583E+18,0.545812,0.449536,0.649298,-0.280034,0
-5.501874,-3.247169,-0.534275,-2.079737,-0.843881,-0.307413,40.838751,-18.251797,12.753479,4.63583E+18,0.649478,-0.251993,0.650283,0.303,-10.84664,2.666713,1.53079,-0.217823,-0.261421,-1.467588,40.930699,-18.497117,-12.918424,4.63583E+18,-0.433788,0.554666,-0.300696,-0.643238,-9.512782,-2.809916,5.069287,-5.013993,-1.223459,-0.490462,41.379362,15.309606,13.005706,4.63583E+18,0.557894,0.435202,0.653158,-0.269701,0
-5.145733,-3.163856,-0.312819,-2.027728,-0.796929,-0.280968,41.015142,-18.278244,12.223998,4.63583E+18,0.649835,-0.257235,0.645247,0.308548,-10.713577,2.687088,2.173161,-0.153707,-0.317225,-1.583248,41.080174,-17.953053,-12.999425,4.63583E+18,-0.437918,0.55625,-0.295836,-0.641323,-9.469206,-3.006712,5.250254,-4.793509,-1.286099,-0.460741,41.36453,14.812325,13.222215,4.63583E+18,0.569524,0.421192,0.656275,-0.259889,0
-4.751334,-2.905878,-0.213021,-1.967806,-0.750811,-0.239685,40.988697,-18.558094,11.733563,4.63583E+18,0.650025,-0.262243,0.640405,0.313972,-10.482923,2.157893,2.27086,-0.202019,-0.372002,-1.693522,41.214938,-17.475231,-13.34322,4.63583E+18,-0.442532,0.557766,-0.290698,-0.639185,-9.130627,-2.488776,5.370721,-4.551911,-1.331558,-0.435154,41.568838,14.329933,13.358066,4.63583E+18,0.580643,0.407598,0.658706,-0.250648,0
-4.3826,-2.397091,-0.204574,-1.924228,-0.692443,-0.173511,41.023581,-18.835079,11.195677,4.63583E+18,0.649971,-0.267012,0.635802,0.319371,-10.432807,0.843623,2.763396,-0.325296,-0.433702,-1.797289,41.296917,-16.785835,-13.748041,4.63583E+18,-0.446925,0.559555,-0.284633,-0.637291,-9.106711,-2.254636,5.44609,-4.272372,-1.354551,-0.429117,41.791772,13.946709,13.586828,4.63583E+18,0.591136,0.394517,0.660531,-0.242102,0
-4.232217,-1.989959,-0.077948,-1.864978,-0.447206,-0.104928,41.152356,-19.026638,10.550853,4.63583E+18,0.649198,-0.271747,0.631975,0.324505,-10.238031,-0.705344,2.874453,-0.348733,-0.551628,-1.860932,41.440402,-16.020322,-13.810058,4.63583E+18,-0.451544,0.56111,-0.278119,-0.635542,-9.091338,-2.944621,5.515092,-3.948855,-1.326408,-0.400324,41.934021,13.527402,13.795957,4.63583E+18,0.600851,0.382208,0.661833,-0.234248,0
-4.183791,-1.598959,-0.184693,-1.755031,-0.10906,-0.103232,41.243306,-19.067965,10.027578,4.63583E+18,0.647617,-0.276622,0.629176,0.328952,-10.250715,-1.652437,2.469133,-0.15564,-0.695867,-1.867929,41.577673,-15.208158,-13.844204,4.63583E+18,-0.456767,0.561887,-0.271807,-0.633851,-8.983015,-3.785318,5.577711,-3.598484,-1.28986,-0.349986,42.026896,13.182948,13.855403,4.63583E+18,0.609784,0.370842,0.662617,-0.227109,0
-4.378497,-1.362716,-0.879648,-1.737203,0.037774,-0.086023,41.196253,-19.012447,9.838388,4.63583E+18,0.645614,-0.28159,0.626784,0.333213,-9.522768,-0.483313,2.286022,-0.04665,-0.744935,-1.86503,41.70622,-14.514103,-14.244048,4.63583E+18,-0.462261,0.562282,-0.265675,-0.632116,-9.456448,-3.943016,5.532635,-3.201788,-1.253268,-0.266862,42.078918,13.119766,13.855403,4.63583E+18,0.617807,0.361052,0.662622,-0.221108,0
-4.785882,-1.466459,-1.280787,-1.726506,0.143508,0.033505,41.175571,-18.99472,9.814753,4.63583E+18,0.643148,-0.286348,0.6248,0.337625,-8.412175,-0.885138,1.555692,-0.020052,-0.790306,-1.852041,41.836231,-14.01366,-14.562923,4.63583E+18,-0.4678,0.562449,-0.259536,-0.63044,-9.734615,-3.714786,5.098535,-2.774966,-1.188394,-0.158793,42.140995,12.990332,13.783776,4.63583E+18,0.624999,0.35265,0.662127,-0.215876,0
-5.237569,-1.411923,-1.092954,-1.691084,0.319084,0.152832,41.360653,-19.179801,9.749974,4.63583E+18,0.640065,-0.290934,0.623446,0.342038,-8.072446,-2.893714,0.745425,0.162334,-0.92026,-1.813576,42.105547,-13.492275,-14.687462,4.63583E+18,-0.473773,0.561835,-0.253694,-0.628904,-9.747854,-3.592179,4.358762,-2.35382,-1.10393,-0.081195,42.271034,12.555131,13.562484,4.63583E+18,0.631451,0.345194,0.661479,-0.211083,0
-5.827996,-1.175871,-1.189021,-1.707173,0.51049,0.211025,41.41972,-19.553468,9.599759,4.63583E+18,0.636348,-0.295667,0.622616,0.346398,-7.249369,-3.853971,0.443544,0.414021,-1.06181,-1.723636,42.198513,-12.888355,-14.915917,4.63583E+18,-0.480213,0.560215,-0.248423,-0.627568,-9.819527,-3.234594,3.445866,-1.973866,-1.001896,-0.019607,42.413778,12.259979,13.353327,4.63583E+18,0.637031,0.339066,0.660556,-0.207106,0
-6.55522,-0.953598,-1.411682,-1.714636,0.779929,0.28101,41.179179,-19.774189,9.493636,4.63583E+18,0.631783,-0.300611,0.62254,0.35061,-5.947233,-4.418037,-0.143502,0.616296,-1.176894,-1.581703,42.073727,-12.288968,-15.259634,4.63583E+18,-0.486837,0.557699,-0.243762,-0.626531,-9.889018,-2.486773,2.494278,-1.687312,-0.908136,0.015598,42.650482,12.108723,13.293862,4.63583E+18,0.641842,0.33413,0.659393,-0.203951,0
-7.478578,-0.894097,-1.788678,-1.674713,1.036684,0.440189,40.861797,-19.877374,9.556205,4.63583E+18,0.626328,-0.305391,0.623356,0.354792,-4.979396,-4.68202,-0.137267,0.701896,-1.209858,-1.418401,41.923736,-11.873941,-15.709346,4.63583E+18,-0.493232,0.554716,-0.23962,-0.625775,-9.899745,-2.230099,1.386231,-1.508169,-0.814748,0.022809,42.799156,11.954811,13.25568,4.63583E+18,0.646121,0.329748,0.658287,-0.201126,0
-8.640082,-0.382389,-2.57665,-1.609428,1.085398,0.671096,40.720184,-20.147818,9.592062,4.63583E+18,0.620442,-0.30945,0.624645,0.35932,-4.341806,-5.588218,-0.101689,0.743759,-1.249401,-1.227965,41.877105,-11.455877,-15.978448,4.63583E+18,-0.499235,0.551317,-0.23593,-0.62542,-9.84706,-2.514174,0.182929,-1.422741,-0.726461,0.009244,42.73711,11.803549,13.124611,4.63583E+18,0.65,0.325612,0.657341,-0.198443,0
-9.759139,0.316812,-4.488389,-1.797398,0.227261,0.943497,40.643979,-20.662454,9.474759,4.63583E+18,0.616095,-0.311979,0.62374,0.366122,-4.710005,-7.365179,0.263525,0.833713,-1.371212,-1.002369,41.971242,-11.073441,-16.245402,4.63583E+18,-0.504946,0.547156,-0.232726,-0.625691,-9.987765,-2.293647,-0.817026,-1.420288,-0.647927,-0.000505,42.640461,11.735533,13.013092,4.63583E+18,0.653738,0.32113,0.656777,-0.195307,0
-10.956643,0.747328,-6.676153,-2.523381,-1.026204,1.103007,40.561481,-21.24547,8.946012,4.63583E+18,0.613749,-0.314011,0.618648,0.376808,-5.62012,-7.397018,1.14949,0.902631,-1.530988,-0.780815,42.073213,-10.906917,-16.730712,4.63583E+18,-0.510358,0.542184,-0.229857,-0.626688,-10.076869,-1.529526,-1.739393,-1.518558,-0.58727,-0.034663,42.673859,11.689489,13.051263,4.63583E+18,0.657383,0.316322,0.656475,-0.191905,0
-12.929481,0.284352,-8.275371,-3.218466,-1.842081,1.330534,40.346536,-21.775872,7.947578,4.63583E+18,0.612111,-0.315886,0.610547,0.390857,-6.602178,-6.434848,1.676466,0.893303,-1.720212,-0.570177,41.919371,-11.004041,-17.209773,4.63583E+18,-0.515346,0.536498,-0.227023,-0.628529,-10.166662,-0.840345,-2.643818,-1.69013,-0.541109,-0.107932,42.697287,11.366915,13.077356,4.63583E+18,0.661035,0.310864,0.656499,-0.188162,0
-14.842967,-0.047378,-9.191907,-3.25019,-1.712222,1.394742,40.154934,-22.408814,6.836736,4.63583E+18,0.609831,-0.317806,0.602647,0.404874,-8.279344,-5.440425,1.523212,0.864321,-1.909564,-0.32538,41.534466,-11.091375,-17.74577,4.63583E+18,-0.519769,0.530107,-0.224239,-0.631303,-10.039428,-0.823456,-3.426129,-1.879785,-0.492079,-0.196345,42.714668,10.993706,12.95376,4.63583E+18,0.664686,0.30466,0.656881,-0.184069,0
-16.153139,0.651564,-9.569529,-2.352136,-0.663474,0.929627,39.984031,-23.13572,6.0866,4.63583E+18,0.606774,-0.320319,0.598194,0.413988,-10.445152,-3.587693,1.497982,0.729339,-2.025635,-0.112754,41.228747,-10.962248,-18.474121,4.63583E+18,-0.5234,0.523462,-0.221304,-0.634873,-9.632601,-1.122508,-4.076886,-2.042064,-0.425691,-0.282307,42.940111,10.852382,12.913714,4.63583E+18,0.668246,0.297799,0.657633,-0.179671,0
-17.651975,0.780158,-10.611989,-1.167951,0.752461,0.245093,39.951871,-23.436372,5.942047,4.63583E+18,0.602902,-0.323962,0.598404,0.416498,-12.757296,-0.908993,1.759378,0.401091,-2.051644,0.071121,40.978941,-11.045752,-19.337761,4.63583E+18,-0.525812,0.517253,-0.21783,-0.639156,-9.000487,-0.978504,-4.609816,-2.18593,-0.339872,-0.365339,43.112353,10.880992,13.134972,4.63583E+18,0.671532,0.290718,0.658616,-0.175365,0
-19.309395,0.356273,-13.662768,-0.800083,1.54864,-0.284739,40.010314,-23.289894,6.074465,4.63583E+18,0.598433,-0.329369,0.600511,0.415668,-16.159542,0.375319,2.359293,0.054336,-2.108812,0.195822,40.629067,-11.304055,-20.102765,4.63583E+18,-0.527421,0.511409,-0.213776,-0.643885,-8.391667,-0.533716,-5.126697,-2.335097,-0.240974,-0.448334,42.97713,10.863644,13.344212,4.63583E+18,0.674607,0.283036,0.660031,-0.170747,0
-20.704358,-0.748214,-16.554808,-0.811884,1.057101,-0.635742,40.092801,-23.036507,6.328584,4.63583E+18,0.595759,-0.334818,0.600863,0.414647,-18.298486,0.942257,1.869533,-0.089693,-2.181817,0.309032,40.158657,-11.262319,-20.614911,4.63583E+18,-0.528176,0.505632,-0.209187,-0.649313,-7.742268,-0.15683,-5.712031,-2.469509,-0.114828,-0.525835,42.897747,10.738328,13.403728,4.63583E+18,0.677343,0.274932,0.661882,-0.165926,0
-21.280026,-2.097555,-17.320424,-0.928711,-0.353309,-0.65233,40.178246,-22.918859,6.387434,4.63583E+18,0.596463,-0.33815,0.59747,0.415832,-18.947305,1.386819,0.809087,-0.318965,-2.232726,0.388097,39.812174,-11.213634,-21.293254,4.63583E+18,-0.528229,0.500107,-0.204019,-0.655166,-7.065287,0.28927,-6.449014,-2.569487,0.038599,-0.602193,42.965872,10.693686,13.518135,4.63583E+18,0.679669,0.266307,0.664297,-0.160747,0
-20.392318,-3.288981,-15.565558,-1.322346,-1.649391,-0.332514,40.180491,-22.780914,5.802089,4.63583E+18,0.599253,-0.339402,0.590594,0.420596,-20.015134,0.976405,2.775582,-0.445107,-2.384719,0.475922,39.454428,-11.486589,-22.257552,4.63583E+18,-0.528137,0.494234,-0.198549,-0.661349,-6.455801,1.031518,-7.431205,-2.619179,0.224346,-0.650165,42.835446,10.660325,13.882573,4.63583E+18,0.681423,0.257499,0.667253,-0.15534,0
-18.176953,-3.583049,-12.66125,-1.901998,-2.326638,-0.050029,40.230028,-22.751637,4.820437,4.63583E+18,0.602324,-0.340178,0.581341,0.428401,-21.820583,0.922943,5.921348,-0.360209,-2.58998,0.593595,38.237729,-11.441223,-23.207038,4.63583E+18,-0.527721,0.487539,-0.19287,-0.668294,-5.599869,1.984509,-8.493733,-2.63348,0.441627,-0.639635,42.682438,10.546294,14.39673,4.63583E+18,0.682512,0.248781,0.670749,-0.149605,0
-15.32945,-3.348637,-10.084151,-2.563644,-2.514229,0.020937,40.294028,-22.893258,3.548749,4.63583E+18,0.60467,-0.342044,0.570426,0.43817,-23.109262,3.487949,8.103804,-0.470076,-2.758808,0.680574,36.9125,-11.113821,-24.077565,4.63583E+18,-0.526901,0.480478,-0.186669,-0.675774,-4.955879,3.177386,-9.342907,-2.629671,0.641746,-0.570951,42.595483,10.387586,14.899038,4.63583E+18,0.682995,0.240355,0.674661,-0.143454,0
-12.948575,-3.012788,-8.61006,-3.295783,-2.524201,0.043977,40.475215,-23.020895,2.067416,4.63583E+18,0.605796,-0.345592,0.558034,0.449638,-23.387005,5.247343,9.318398,-0.775077,-2.881183,0.734963,36.911016,-11.341263,-24.912011,4.63583E+18,-0.525329,0.473622,-0.179427,-0.683752,-4.883868,4.502846,-9.726032,-2.54903,0.83531,-0.427971,42.391821,10.224132,15.323011,4.63583E+18,0.682853,0.232649,0.678853,-0.136913,0
-11.832591,-2.689447,-8.029658,-3.904937,-2.463404,0.206302,40.574796,-23.05682,0.541397,4.63583E+18,0.605397,-0.350298,0.544702,0.462694,-23.22352,7.64976,9.942783,-1.111081,-3.002183,0.774542,36.587842,-11.467168,-25.988452,4.63583E+18,-0.522977,0.46704,-0.171015,-0.692187,-4.79961,6.144112,-10.144915,-2.40167,1.067175,-0.21184,42.136985,9.967507,15.913365,4.63583E+18,0.682025,0.225708,0.683455,-0.129564,0
-11.026601,-1.965395,-7.389492,-4.203619,-2.339855,0.429425,40.386276,-23.327823,-0.892008,4.63583E+18,0.603615,-0.355353,0.531221,0.476631,-22.989222,10.422851,9.103611,-1.519865,-3.141609,0.853533,34.880379,-10.856839,-27.157941,4.63583E+18,-0.519587,0.460791,-0.161243,-0.701214,-4.435776,8.366617,-10.889552,-2.278527,1.323407,0.050352,42.060746,9.605474,16.644275,4.63583E+18,0.680342,0.220339,0.688273,-0.121926,0
-10.504484,-0.990751,-6.91882,-4.447164,-1.8945,0.701672,40.182419,-23.672586,-2.30506,4.63583E+18,0.599699,-0.361157,0.518561,0.490938,-22.639459,13.497326,4.9601,-2.148233,-3.174571,0.986412,34.066685,-10.800549,-28.20858,4.63583E+18,-0.514492,0.455596,-0.149784,-0.710841,-3.36623,10.838043,-11.700497,-2.148246,1.612425,0.341362,42.108699,9.316657,17.38712,4.63583E+18,0.677778,0.216305,0.693493,-0.113564,0
-10.391465,0.188826,-7.350753,-4.688185,-1.238403,0.742089,40.128701,-23.774092,-3.739604,4.63583E+18,0.593671,-0.368668,0.506894,0.504675,-20.616987,17.069643,-1.205814,-3.051855,-2.936256,1.186906,33.904489,-11.029866,-29.160457,4.63583E+18,-0.506778,0.452773,-0.136501,-0.720792,-1.725459,12.6478,-12.468247,-2.018363,1.921646,0.661816,41.91223,8.920108,18.213063,4.63583E+18,0.674268,0.213689,0.699145,-0.104382,0
-10.637984,0.118691,-8.083408,-4.487866,-0.603773,0.486962,39.922451,-23.604459,-4.958053,4.63583E+18,0.586915,-0.377412,0.496629,0.516188,-17.604748,19.858386,-6.795698,-3.99522,-2.508387,1.398073,32.567402,-10.316243,-30.178992,4.63583E+18,-0.496208,0.452927,-0.121638,-0.730643,0.582759,14.091748,-13.446462,-1.906777,2.241201,0.940767,41.484991,8.256781,19.032397,4.63583E+18,0.669752,0.212307,0.705295,-0.094435,0
-10.819746,-0.415824,-8.144285,-4.195628,0.041676,0.200236,39.792488,-23.437195,-5.754446,4.63583E+18,0.579704,-0.387298,0.487955,0.525208,-16.367419,20.903627,-9.363212,-4.796732,-2.104557,1.387933,31.306038,-9.165876,-31.304642,4.63583E+18,-0.483711,0.455752,-0.105097,-0.739776,0.180159,12.047545,-10.974532,-1.562627,2.304565,1.141653,41.119656,7.544042,19.949354,4.63583E+18,0.664723,0.212462,0.711197,-0.084859,0
-10.242483,-0.235143,-7.985584,-3.741891,0.119954,-0.134929,39.817924,-23.401592,-6.428839,4.63583E+18,0.573639,-0.396834,0.479788,0.532226,-17.750788,21.94585,-11.565018,-5.457827,-1.73482,1.199085,31.222118,-8.003197,-32.384317,4.63583E+18,-0.470106,0.460869,-0.086849,-0.747702,-9.751201,11.841829,3.791703,-1.069189,1.754037,1.792272,40.908226,6.828566,20.76883,4.63583E+18,0.66103,0.21569,0.714723,-0.075414,0
-9.381429,-0.651709,-7.411113,-3.076135,-0.307818,-0.486288,39.952875,-23.161358,-7.035507,4.63583E+18,0.57019,-0.40445,0.471395,0.537671,-16.779014,21.431574,-18.236142,-6.223409,-0.921835,0.718933,30.828615,-6.715298,-33.112328,4.63583E+18,-0.45592,0.469881,-0.06683,-0.752916,-20.705146,31.362381,20.537403,-0.989473,1.031189,2.520277,40.814719,6.030076,21.204507,4.63583E+18,0.659562,0.221059,0.715476,-0.064847,0
-8.927564,-3.025853,-6.481449,-2.539207,-0.927542,-0.81639,40.093076,-22.659238,-7.787682,4.63583E+18,0.569515,-0.409988,0.462104,0.542239,-11.905001,18.032316,-26.714191,-7.385949,0.360068,-0.040409,30.276398,-4.862253,-33.429029,4.63583E+18,-0.441098,0.484931,-0.044055,-0.753879,-27.494214,31.934677,26.159103,-1.343784,0.504182,2.503591,40.742095,4.971196,21.495619,4.63583E+18,0.6599,0.225225,0.714785,-0.053742,0
-10.005251,-6.618053,-6.404286,-2.945606,-4.937351,-0.699471,39.97791,-22.106901,-9.369502,4.63583E+18,0.575396,-0.407058,0.442415,0.55452,-5.024311,14.757554,-31.66589,-9.360668,1.833574,-1.583154,30.491598,-2.169721,-33.123219,4.63583E+18,-0.426287,0.507877,-0.014609,-0.748416,-19.41491,-1.063427,15.185394,-0.887084,1.046318,1.803767,40.598928,3.902237,21.969803,4.63583E+18,0.657968,0.228636,0.716061,-0.045386,0
-11.07832,-8.938993,-1.571236,-3.999499,-9.461328,-0.027192,39.219153,-21.760871,-12.428881,4.63583E+18,0.585578,-0.394476,0.410059,0.577355,-8.402069,8.996065,-27.219712,-11.998511,2.418917,-3.966008,30.825722,1.65593,-32.742634,4.63583E+18,-0.412323,0.536304,0.027099,-0.735957,-6.286602,-17.789324,-18.307585,1.160397,2.726033,1.147319,40.336976,3.413314,22.703305,4.63583E+18,0.648868,0.23598,0.722086,-0.043318,0
-8.578963,-7.604636,10.844942,-3.938393,-9.379171,0.216456,37.965074,-21.424666,-16.308617,4.63583E+18,0.594072,-0.38081,0.377708,0.599498,-17.976577,-0.164352,-26.519889,-14.649101,2.517059,-5.992197,31.225066,6.911131,-31.704348,4.63583E+18,-0.397142,0.567347,0.081189,-0.716801,-12.370684,-18.489839,-44.130202,2.011127,3.43737,1.392052,39.975557,3.462956,23.69612,4.63583E+18,0.636678,0.246449,0.729453,-0.042442,0
-3.832168,-7.068416,24.022108,-3.900731,-4.391859,0.361119,36.988768,-20.987499,-19.031657,4.63583E+18,0.593707,-0.378821,0.357565,0.613314,-27.733887,-13.012172,-25.249885,-15.255764,2.780831,-7.544808,32.351859,11.671073,-29.937306,4.63583E+18,-0.383336,0.596884,0.139938,-0.690797,-19.881212,-22.738945,-24.894904,0.287967,2.791614,1.938757,39.531165,3.362064,24.709935,4.63583E+18,0.628157,0.25386,0.73465,-0.035544,0
-0.611284,-6.978689,22.00137,-3.409536,1.310883,0.928846,36.77167,-20.569844,-19.888461,4.63583E+18,0.583917,-0.389183,0.353527,0.618543,-37.298431,-21.43011,-23.838653,-12.88239,2.313634,-7.612789,33.057231,16.292976,-27.714884,4.63583E+18,-0.373591,0.618488,0.192158,-0.664061,-12.53139,0.725205,6.489001,-0.543348,2.648917,2.178637,38.916649,2.664422,25.619947,4.63583E+18,0.620863,0.259762,0.739187,-0.025613,0
-0.234207,-4.036518,9.515337,-2.947358,2.352778,1.483564,36.898009,-20.342504,-19.632533,4.63583E+18,0.571758,-0.400184,0.354021,0.622587,-35.893149,-12.790704,-19.984222,-10.57838,1.791649,-6.428527,32.577201,20.867118,-25.221902,4.63583E+18,-0.364832,0.633912,0.235147,-0.640125,-7.704452,22.037221,12.594403,-0.190629,2.820105,1.829211,38.314602,1.819855,26.416027,4.63583E+18,0.612504,0.265458,0.744356,-0.017467,0
-1.277988,-0.662247,4.857423,-2.719411,0.814689,1.817693,36.819528,-20.485641,-19.510402,4.63583E+18,0.561242,-0.406063,0.351915,0.629505,-36.920191,9.223766,-13.997474,-10.208099,2.697061,-5.996141,31.842159,24.64786,-22.600746,4.63583E+18,-0.355819,0.649909,0.274022,-0.613126,-8.23091,16.825983,7.490233,-0.151981,2.714679,1.460071,37.830459,1.410523,27.230531,4.63583E+18,0.604296,0.270061,0.749522,-0.010495,0
-2.205733,1.535088,6.151721,-2.599201,0.552897,2.075991,36.53155,-20.803651,-19.784493,4.63583E+18,0.550525,-0.410515,0.349879,0.637169,-38.006527,20.77135,-17.641374,-8.61003,3.55443,-5.651935,30.861576,28.091705,-19.704425,4.63583E+18,-0.350408,0.664592,0.305995,-0.58472,-4.718656,5.325611,1.420594,0.05332,2.905989,1.228308,37.238824,1.111228,28.102012,4.63583E+18,0.595151,0.27443,0.75529,-0.004529,0
-3.568472,3.855282,6.680422,-2.574236,1.322022,1.936964,36.386662,-20.886868,-20.086058,4.63583E+18,0.538986,-0.41707,0.349365,0.643033,-36.805833,17.97866,-13.334563,-6.357525,3.139565,-5.144239,29.270756,31.280589,-17.195584,4.63583E+18,-0.348874,0.674476,0.331177,-0.560081,-4.516941,-3.818861,-7.983519,-0.358164,2.815298,1.136339,36.475324,0.586975,28.94762,4.63583E+18,0.586666,0.277437,0.760819,0.002414,0
-6.325056,4.400305,5.504883,-2.407815,1.782289,1.366736,36.495114,-20.822237,-20.015931,4.63583E+18,0.528486,-0.425231,0.34927,0.646446,-31.934363,16.175384,-4.698065,-5.207422,2.843416,-5.293229,27.874908,33.583689,-15.009559,4.63583E+18,-0.350088,0.680954,0.354132,-0.536965,-8.795017,-1.785906,-10.945685,-0.693162,2.755045,1.136158,35.83997,0.030255,29.774278,4.63583E+18,0.578668,0.279581,0.766075,0.010357,0
-10.729947,2.757609,3.769991,-2.234642,1.800962,1.190878,36.7214,-20.856808,-19.749741,4.63583E+18,0.518645,-0.43324,0.349309,0.649071,-25.584289,16.027579,-0.203726,-4.31118,2.633126,-5.059928,26.996,34.931512,-12.981983,4.63583E+18,-0.352669,0.685307,0.374381,-0.515575,-10.819116,1.818697,-4.619916,-0.678861,2.799649,1.251786,35.218089,-0.52379,30.619881,4.63583E+18,0.570414,0.282083,0.771175,0.018588,0
-15.696609,1.19996,1.864718,-2.273662,1.626832,1.235989,36.66089,-20.939285,-19.604477,4.63583E+18,0.508779,-0.440726,0.34889,0.652058,-23.499385,13.895519,0.344563,-3.284269,2.139085,-4.607701,26.015987,36.447153,-11.197423,4.63583E+18,-0.356176,0.68726,0.39158,-0.497472,-10.553077,3.458381,-1.291907,-0.626067,2.746608,1.296128,34.520872,-1.090083,31.375344,4.63583E+18,0.562174,0.284811,0.77597,0.026697,0
-20.556906,0.93135,-1.110254,-2.394783,1.606475,0.883509,36.686834,-20.77547,-19.516051,4.63583E+18,0.499596,-0.448854,0.347396,0.654408,-24.28792,11.505717,-0.169286,-2.442256,1.638121,-3.997436,24.769607,37.901451,-9.800355,4.63583E+18,-0.359826,0.687543,0.405825,-0.48282,-9.604552,5.290262,-3.058803,-0.524723,2.727104,1.307974,33.768765,-1.630565,32.071166,4.63583E+18,0.553788,0.287771,0.780588,0.034485,0
-23.510545,0.093799,-3.301044,-2.366808,1.294677,-0.07028,36.947639,-20.466757,-19.292166,4.63583E+18,0.493447,-0.457391,0.343496,0.655221,-23.955907,11.132534,-0.854403,-2.251852,1.512616,-3.29769,23.772142,38.753869,-8.73119,4.63583E+18,-0.36227,0.688207,0.417723,-0.469722,-7.773277,5.629423,-4.932345,-0.514351,2.691992,1.319551,32.990887,-2.090328,32.800219,4.63583E+18,0.545416,0.290753,0.784985,0.042225,0
-22.654515,-3.053726,-5.529116,-2.305791,0.548096,-0.532699,37.209661,-20.192528,-19.318963,4.63583E+18,0.489687,-0.464373,0.337307,0.656344,-21.555906,11.369877,-1.435069,-1.889751,1.374758,-2.464773,23.130264,39.486181,-7.862728,4.63583E+18,-0.363791,0.689318,0.426626,-0.458787,-6.214103,4.013969,-7.092722,-0.608451,2.543078,1.22709,32.156095,-2.533854,33.514923,4.63583E+18,0.537583,0.293202,0.789018,0.049882,0
-18.574652,-7.431869,-8.300592,-2.131517,-1.033933,-0.073197,37.195358,-19.954626,-19.791805,4.63583E+18,0.487183,-0.46598,0.329223,0.661156,-18.641223,11.851049,-1.890633,-1.348629,0.966997,-1.560778,22.638346,40.099738,-7.233553,4.63583E+18,-0.364363,0.690331,0.432458,-0.45129,-6.402469,2.184527,-9.004313,-0.645629,2.405763,1.207461,31.41355,-3.07916,34.158549,4.63583E+18,0.530181,0.295488,0.79265,0.05745,0
-15.156023,-9.634135,-8.556871,-1.942411,-2.950104,0.623161,36.84855,-19.602759,-20.737561,4.63583E+18,0.485678,-0.460896,0.319069,0.670736,-15.533486,11.637103,-1.152825,-1.075174,0.491708,-0.656426,22.276479,40.263617,-6.707346,4.63583E+18,-0.363144,0.691618,0.43587,-0.446999,-7.234956,1.843001,-9.172616,-0.677828,2.372517,1.32108,30.856123,-3.685414,34.849587,4.63583E+18,0.522834,0.298048,0.795955,0.065333,0
-13.035768,-8.343125,-4.350713,-2.141133,-3.856714,1.096418,36.181396,-19.332104,-22.076374,4.63583E+18,0.483533,-0.452916,0.307342,0.683084,-11.938061,10.945463,-0.486277,-1.014981,0.129986,0.270011,22.215885,40.157365,-6.325978,4.63583E+18,-0.359707,0.693803,0.437038,-0.445248,-7.462173,0.96164,-9.676499,-0.786231,2.279704,1.399286,30.310204,-4.189921,35.499908,4.63583E+18,0.515843,0.300625,0.798818,0.073622,0
-9.558783,-6.409959,3.069828,-1.939401,-2.719251,1.249908,35.307471,-19.229346,-23.43094,4.63583E+18,0.479735,-0.447439,0.298681,0.693139,-9.266786,9.711132,-0.511869,-0.892792,-0.151894,1.214347,22.522453,39.971601,-6.003706,4.63583E+18,-0.354347,0.69698,0.435659,-0.445935,-7.683206,1.559464,-10.395437,-0.995461,2.143568,1.455415,29.617054,-4.723707,36.02683,4.63583E+18,0.509486,0.302946,0.801145,0.082549,0
-6.237877,-6.123318,6.64734,-1.253869,-0.290984,1.404351,34.83492,-19.279049,-24.041677,4.63583E+18,0.473679,-0.447349,0.2971,0.698025,-8.2917,8.425565,-0.985189,-0.611395,-0.458397,2.192639,23.103186,39.695087,-5.962199,4.63583E+18,-0.347405,0.700902,0.431342,-0.449435,-7.961378,2.462409,-10.525307,-1.35743,1.925878,1.452733,28.807989,-5.443944,36.332646,4.63583E+18,0.504251,0.30452,0.802784,0.0924,0
-5.315045,-5.180474,3.22599,-0.946291,1.085753,1.536407,34.699118,-19.549023,-23.977184,4.63583E+18,0.466075,-0.45046,0.299356,0.700176,-7.751288,7.886352,-0.889427,-0.318816,-0.767181,3.206128,24.054982,39.185027,-6.201405,4.63583E+18,-0.338813,0.705546,0.423903,-0.45576,-8.775887,1.988412,-8.694709,-1.549171,1.702677,1.446753,28.079658,-6.19264,36.500163,4.63583E+18,0.499947,0.305715,0.803782,0.102588,0
-5.85187,-3.456159,-1.091473,-0.855712,0.891557,1.38481,34.570518,-19.998553,-23.760438,4.63583E+18,0.459293,-0.452987,0.301194,0.702236,-6.852275,8.669306,-0.390637,-0.249949,-0.952186,4.17753,25.346899,38.397205,-6.581776,4.63583E+18,-0.328164,0.711282,0.413631,-0.464,-9.420728,2.245538,-6.574326,-1.549763,1.597587,1.490602,27.491052,-6.957575,36.757863,4.63583E+18,0.495921,0.307064,0.804405,0.112726,0
-5.876592,-2.412542,-2.767226,-0.757766,-0.103497,1.104633,34.285635,-20.366909,-23.762135,4.63583E+18,0.454743,-0.452746,0.300872,0.705482,-5.96311,10.542732,-0.40549,-0.404115,-1.043491,5.055243,26.560471,37.542923,-6.666218,4.63583E+18,-0.315072,0.71829,0.401021,-0.473256,-9.534668,3.685367,-5.487837,-1.518784,1.478609,1.516949,27.051585,-7.734787,37.070507,4.63583E+18,0.492188,0.308586,0.804663,0.122649,0
-5.250905,-2.692286,-1.514616,-0.599285,-0.758882,0.917456,34.020618,-20.447401,-23.992224,4.63583E+18,0.451851,-0.450499,0.299411,0.70939,-5.969429,11.437669,-0.680321,-0.827934,-1.0012,5.800798,27.983339,36.253668,-6.519742,4.63583E+18,-0.299139,0.726802,0.386746,-0.482392,-9.460738,4.611007,-4.387883,-1.434701,1.418322,1.547271,26.550424,-8.663187,37.385173,4.63583E+18,0.488482,0.31037,0.804712,0.132267,0
-4.807738,-3.084207,0.549283,-0.428952,-0.714919,0.813956,34.016353,-20.447401,-24.356032,4.63583E+18,0.449516,-0.448177,0.298335,0.712789,-7.683754,9.853667,-1.816275,-1.297888,-0.964712,6.482738,29.697324,34.765025,-6.39404,4.63583E+18,-0.280261,0.736574,0.371038,-0.491165,-9.045053,4.526152,-4.065751,-1.317575,1.386343,1.558848,26.009283,-9.536619,37.634052,4.63583E+18,0.484677,0.312407,0.80466,0.141468,0
-4.991762,-2.801981,1.200404,-0.240845,-0.508641,0.67715,34.034241,-20.456625,-24.663581,4.63583E+18,0.447675,-0.446277,0.297943,0.7153,-10.307952,7.577197,-3.422335,-1.546904,-1.083908,7.166246,31.585126,33.104542,-6.309252,4.63583E+18,-0.25879,0.74682,0.353564,-0.50028,-9.12695,5.167038,-4.033188,-1.204647,1.349311,1.533505,25.524403,-10.11444,37.718159,4.63583E+18,0.48082,0.314584,0.804547,0.150174,0
-5.797698,-2.344366,0.950009,0.039093,-0.599728,0.513922,33.729872,-20.57951,-24.796763,4.63583E+18,0.446948,-0.443781,0.297908,0.717319,-12.101321,6.818211,-4.270634,-1.785143,-1.130194,7.814945,33.569765,31.077066,-6.147607,4.63583E+18,-0.234886,0.757408,0.33425,-0.509352,-9.913642,5.778737,-4.140302,-1.120202,1.324212,1.520868,24.930345,-10.688142,37.780535,4.63583E+18,0.476905,0.316875,0.804376,0.158527,0
-6.925225,-1.966447,0.98366,0.403247,-0.905866,0.285127,33.197849,-20.812017,-24.872998,4.63583E+18,0.447952,-0.439968,0.297964,0.719016,-13.695732,7.677904,-4.114919,-2.167591,-1.062805,8.371672,35.431053,28.778392,-6.021216,4.63583E+18,-0.208397,0.768366,0.313517,-0.517582,-10.580288,6.312499,-4.58165,-1.050364,1.287427,1.495534,24.280007,-11.434053,37.945293,4.63583E+18,0.472998,0.319204,0.804143,0.166541,0
-7.694148,-1.861495,1.348211,0.788006,-1.029715,-0.025851,32.937755,-20.994553,-25.029234,4.63583E+18,0.450736,-0.435443,0.298364,0.719865,-16.407141,8.220702,-4.339245,-2.628509,-0.961232,8.75773,37.251663,26.153222,-6.033424,4.63583E+18,-0.179441,0.779386,0.29202,-0.524484,-11.200144,6.516036,-5.333128,-0.986919,1.236096,1.469775,23.738739,-12.140156,38.167762,4.63583E+18,0.46916,0.321574,0.803821,0.174217,0
-8.448852,-1.883194,1.378897,1.17362,-0.819778,-0.333584,33.01885,-21.097916,-25.212351,4.63583E+18,0.454867,-0.43119,0.299747,0.719251,-19.029944,7.135306,-5.822457,-2.924458,-0.968319,9.058859,38.828087,23.301679,-6.048597,4.63583E+18,-0.148581,0.789793,0.269753,-0.530456,-11.9217,6.630581,-5.801236,-0.942472,1.179606,1.443079,23.253901,-12.665719,38.342063,4.63583E+18,0.465438,0.323958,0.803392,0.181603,0
-9.924727,-1.73537,1.0968,1.552742,-0.428961,-0.654696,33.057648,-21.183363,-25.18334,4.63583E+18,0.460133,-0.427772,0.302417,0.716821,-21.558677,5.404033,-7.468876,-3.02984,-1.155189,9.314331,40.264079,20.419561,-6.043359,4.63583E+18,-0.116355,0.798854,0.246554,-0.536195,-12.658697,6.844221,-5.772083,-0.913336,1.108011,1.41044,22.655207,-13.120749,38.502055,4.63583E+18,0.461912,0.326319,0.802831,0.188721,0
-12.5898,-1.039093,1.105433,1.903159,0.096229,-1.097189,33.066869,-21.324143,-24.86436,4.63583E+18,0.466652,-0.42578,0.306331,0.712116,-22.83639,5.593613,-8.708243,-3.368193,-1.138965,9.462294,41.735022,17.115292,-5.97535,4.63582E+18,-0.082488,0.806891,0.223184,-0.540658,-13.675148,7.023904,-5.669072,-0.853915,1.003571,1.408102,22.025774,-13.58524,38.721788,4.63583E+18,0.458627,0.328842,0.802066,0.195486,0
-16.241601,-0.350568,1.421166,2.339375,0.835619,-1.632464,33.438729,-21.538171,-24.335395,4.63583E+18,0.474533,-0.425765,0.31199,0.704417,-23.182629,6.658191,-10.346647,-3.927188,-0.827767,9.49773,42.843887,14.072258,-5.976053,4.63582E+18,-0.046803,0.814401,0.200444,-0.54257,-15.050282,7.426526,-5.219741,-0.743362,0.919818,1.430779,21.524587,-14.113564,38.827715,4.63583E+18,0.455427,0.331693,0.80115,0.201803,0
-19.115157,-1.292586,0.250477,2.787557,1.523726,-1.697592,34.120616,-21.65022,-23.549622,4.63583E+18,0.482417,-0.426889,0.320151,0.694653,-24.579482,5.016036,-12.29798,-4.2662,-0.590149,9.437429,43.73787,10.954259,-5.923554,4.63582E+18,-0.010216,0.820958,0.178257,-0.542355,-17.033321,7.590643,-4.370737,-0.646573,0.873175,1.439148,21.06074,-14.561174,38.754477,4.63583E+18,0.452218,0.334773,0.800169,0.207739,0
-18.817555,-3.408669,-2.629164,3.006251,1.887468,-1.062654,34.680748,-21.658923,-22.474048,4.63583E+18,0.488254,-0.42768,0.330731,0.685065,-25.980665,2.412704,-13.835698,-4.204626,-0.587588,9.297494,44.297529,7.416509,-5.95948,4.63582E+18,0.02586,0.825908,0.156079,-0.541153,-20.052682,7.069632,-3.7952,-0.605743,0.805976,1.472518,20.634783,-14.992462,38.790265,4.63583E+18,0.449124,0.33808,0.799004,0.213499,0
-16.767106,-4.671005,-4.425884,3.247774,1.799577,-0.361605,35.006114,-21.950927,-21.317297,4.63583E+18,0.492525,-0.42666,0.342991,0.676563,-25.163694,1.65245,-14.440438,-4.059543,-0.458674,9.090859,44.653976,3.987744,-6.048592,4.63582E+18,0.060839,0.829576,0.13402,-0.538648,-24.040494,6.704141,-3.579045,-0.712731,0.667884,1.534667,20.259098,-15.468529,38.888761,4.63583E+18,0.446565,0.341497,0.79735,0.219527,0
-15.535543,-4.950476,-4.721026,3.533846,1.364898,0.300584,35.265443,-22.535114,-20.434198,4.63583E+18,0.495938,-0.422776,0.356258,0.669617,-25.105212,-0.342273,-15.283115,-3.790047,-0.382171,8.842816,44.66866,0.856589,-6.102638,4.63582E+18,0.094184,0.831967,0.112009,-0.535176,-29.01918,5.557287,-3.2331,-1.080514,0.457273,1.579815,19.901664,-16.006191,38.739696,4.63583E+18,0.445163,0.34455,0.794853,0.226548,0
-14.251067,-3.613449,-3.504572,3.930029,1.414329,0.846415,35.411182,-23.550786,-19.474826,4.63583E+18,0.498312,-0.417282,0.371593,0.662933,-26.369151,-5.488155,-16.996343,-3.209726,-0.485541,8.602159,44.528203,-2.036668,-6.290574,4.63582E+18,0.124882,0.832971,0.089324,-0.531588,-35.765854,3.029492,-3.303715,-1.800697,0.146753,1.554617,19.634401,-16.72624,38.551702,4.63583E+18,0.445815,0.346447,0.791069,0.235443,0
-12.448051,-2.215425,-2.661287,4.352389,1.808734,1.29997,35.345928,-24.492428,-18.037752,4.63583E+18,0.499374,-0.411146,0.389565,0.655609,-26.486332,-10.713698,-18.517664,-2.390677,-0.562073,8.488691,44.734984,-5.396462,-6.625702,4.63582E+18,0.152336,0.83302,0.06505,-0.527863,-45.584163,-0.120564,-3.790137,-2.747996,-0.297919,1.43334,19.422153,-17.708613,38.414868,4.63583E+18,0.449365,0.346571,0.7856,0.24656,0
-11.514608,-0.835173,-3.35348,4.659288,2.056304,1.501111,35.150109,-25.435934,-16.52742,4.63583E+18,0.499786,-0.404535,0.40906,0.647484,-26.133412,-14.479457,-19.585501,-1.527345,-0.521301,8.377269,44.790744,-9.097774,-7.004496,4.63582E+18,0.176335,0.832596,0.039201,-0.523596,-55.543542,-5.311589,-3.380665,-3.597227,-0.488548,1.177877,19.230845,-19.006434,37.902679,4.63583E+18,0.454938,0.344379,0.779111,0.259655,0
-12.157698,2.073846,-4.316824,4.866611,1.766378,1.361567,35.17923,-26.464774,-15.2594,4.63583E+18,0.50117,-0.396749,0.428072,0.638885,-25.355752,-18.517962,-19.543259,-0.896598,-0.340403,8.161888,43.980954,-11.769952,-7.325571,4.63582E+18,0.197428,0.831992,0.012807,-0.518312,-56.33106,-14.26447,-2.426541,-3.979502,-0.222836,0.702732,19.174372,-20.393514,37.020287,4.63583E+18,0.460594,0.339531,0.773191,0.273401,0
-14.599117,6.416651,-4.384482,4.659203,0.930394,1.132969,35.289094,-27.394772,-13.998598,4.63583E+18,0.504083,-0.387397,0.444214,0.631267,-23.837763,-25.602508,-18.539431,-0.424795,-0.240005,7.880447,42.745559,-14.161564,-7.531596,4.63582E+18,0.216047,0.831052,-0.013562,-0.512341,-46.532758,-21.753935,-2.867817,-3.497766,-0.059976,0.630091,19.202974,-21.515447,36.374969,4.63583E+18,0.465018,0.335103,0.768043,0.285612,0
-15.630643,10.837272,-2.785343,4.386704,-0.611263,0.499312,35.159344,-28.147674,-12.569365,4.63583E+18,0.510885,-0.375588,0.45521,0.625072,-22.755188,-36.134854,-16.584158,0.334605,-0.403435,7.685634,41.709868,-17.181436,-7.580422,4.63582E+18,0.231379,0.829592,-0.041013,-0.506516,-37.365469,-21.892484,-1.887222,-1.867852,0.1802,1.292514,18.928814,-22.362627,36.167801,4.63583E+18,0.465542,0.335609,0.76426,0.294183,0
-13.70807,13.708334,0.74891,3.974189,-2.413811,-0.29444,34.868905,-28.634481,-12.041535,4.63583E+18,0.522342,-0.361333,0.459888,0.620564,-20.221554,-42.632328,-14.654872,1.416543,-0.673155,7.49064,40.388451,-19.946047,-7.587831,4.63582E+18,0.242272,0.827805,-0.070292,-0.5011,-37.703651,-20.417647,1.913753,-0.062533,0.616904,2.292167,18.28529,-22.992876,36.121173,4.63583E+18,0.460881,0.342218,0.762071,0.299537,0
-8.884752,14.774024,7.584669,3.035472,-2.540672,-0.884002,34.662097,-28.80073,-12.27332,4.63583E+18,0.533982,-0.349803,0.460823,0.616557,-16.800562,-42.128343,-12.949745,2.387427,-0.743342,7.193294,38.829708,-22.460543,-7.394783,4.63582E+18,0.248927,0.826118,-0.100574,-0.495428,-38.375881,-17.697595,2.546303,0.322765,0.934196,3.331044,17.556352,-23.448001,36.038254,4.63583E+18,0.453301,0.352419,0.759369,0.30607,0
-3.422293,14.874367,12.820807,2.204794,-0.293379,-1.542868,34.93349,-28.628174,-12.015948,4.63583E+18,0.541679,-0.347087,0.46357,0.609277,-16.520427,-40.882217,-10.978055,2.871989,-0.707659,6.646859,37.487687,-24.871687,-6.982701,4.63582E+18,0.252557,0.824459,-0.129843,-0.489514,-31.485198,-8.595669,-6.570927,0.338047,1.345998,4.723039,16.5384,-23.921836,36.226385,4.63583E+18,0.442489,0.366429,0.755165,0.315688,0
-0.659387,13.069008,11.702227,1.72372,2.048092,-1.846045,35.468276,-28.371841,-11.128292,4.63583E+18,0.544842,-0.351933,0.469868,0.59876,-20.282634,-41.129111,-9.173523,3.029751,-0.713608,5.80631,35.929857,-26.802283,-6.559199,4.63582E+18,0.253712,0.822735,-0.156445,-0.484006,-27.260619,0.419871,-18.888734,1.153907,1.770923,5.905004,15.028467,-24.417816,36.734106,4.63583E+18,0.427306,0.384906,0.750583,0.325395,0
-0.665128,11.557767,7.928297,1.493792,2.502177,-1.65715,35.986683,-28.051034,-10.029298,4.63583E+18,0.546205,-0.357997,0.476812,0.588344,-23.188994,-41.694298,-6.733674,2.996066,-0.626804,4.832001,34.046094,-28.242756,-6.047253,4.63582E+18,0.252903,0.821258,-0.179447,-0.47893,-29.741838,11.063298,-21.626231,2.088504,1.833822,6.400481,13.232365,-24.625074,37.326244,4.63583E+18,0.409436,0.406213,0.745999,0.332925,0
-1.389083,11.614521,5.211032,1.005572,1.811731,-1.373144,36.422731,-27.644717,-9.11804,4.63583E+18,0.547433,-0.362862,0.481339,0.580484,-23.92804,-41.304043,-3.890776,2.842861,-0.558398,3.856481,32.751139,-29.718705,-5.434691,4.63582E+18,0.250597,0.8201,-0.198647,-0.474528,-45.672525,15.63451,-12.423703,1.642607,1.685269,6.439685,11.369113,-24.624325,37.818029,4.63583E+18,0.392394,0.426748,0.739841,0.34139,0
-1.316821,10.43243,4.393086,0.324101,1.413647,-1.168249,36.828545,-27.226695,-8.570562,4.63583E+18,0.547886,-0.367876,0.48358,0.575012,-23.602667,-40.557556,-1.406227,2.705175,-0.684075,2.907802,32.214684,-31.143046,-4.765493,4.63582E+18,0.246692,0.819065,-0.214399,-0.471496,-65.037275,-2.49886,4.337141,-0.170978,2.197513,5.118908,9.652602,-24.873943,38.14863,4.63583E+18,0.378621,0.439234,0.733773,0.353972,0
0.268541,8.886257,4.392117,-0.163193,1.580095,-1.223637,37.360341,-26.811656,-8.128113,4.63583E+18,0.547355,-0.37449,0.484916,0.570102,-22.758007,-38.386565,0.280706,2.489528,-0.942788,1.947501,31.865205,-31.919642,-4.229822,4.63582E+18,0.241345,0.817975,-0.226666,-0.470417,-57.120692,-23.286927,3.098017,-2.024817,2.617932,4.027206,7.910516,-25.672841,38.127478,4.63583E+18,0.368382,0.444613,0.727256,0.371097,0
1.982,8.023342,3.89402,-0.639697,2.07262,-1.52132,37.805126,-26.396604,-7.605742,4.63583E+18,0.545739,-0.383926,0.485733,0.564654,-21.331207,-35.122379,1.218799,2.002218,-0.960657,0.983951,31.356225,-32.160986,-3.875031,4.63582E+18,0.235717,0.817159,-0.234678,-0.47076,-35.51501,-33.604368,1.268609,-3.393402,2.294248,4.185351,6.14463,-26.836381,37.675662,4.63583E+18,0.361228,0.448624,0.717445,0.391821,0
2.205466,5.181639,3.087811,-0.94854,2.178308,-1.840445,38.336827,-25.852697,-7.139393,4.63583E+18,0.544089,-0.394905,0.485485,0.558857,-19.345261,-32.932717,1.264993,1.362272,-0.781077,0.0712,30.942033,-32.12615,-3.638585,4.63582E+18,0.230637,0.816904,-0.238135,-0.471982,-21.760736,-25.370676,-2.475266,-3.418207,1.725636,3.981058,4.546436,-27.98338,36.987335,4.63583E+18,0.355957,0.452648,0.70672,0.411037,0
1.927495,1.767624,2.282384,-0.84986,1.161949,-2.004085,38.965795,-25.211524,-6.847291,4.63583E+18,0.544968,-0.403572,0.48283,0.554089,-17.812186,-31.666407,0.868497,0.882516,-0.617046,-0.748974,31.104264,-32.170248,-3.561608,4.63582E+18,0.225731,0.817296,-0.237691,-0.473894,-21.153717,-16.694374,-5.42618,-2.689563,1.180185,3.430544,3.260878,-28.966966,36.400331,4.63583E+18,0.351709,0.456852,0.697163,0.426088,0
0.824032,-1.620344,2.72294,-0.498129,0.406315,-1.838474,39.419441,-24.616732,-6.814945,4.63583E+18,0.535428,-0.419665,0.470489,0.561995,-16.212424,-30.168832,1.039006,0.665078,-0.472983,-1.432176,31.545502,-32.022776,-3.552354,4.63582E+18,0.220351,0.818414,-0.234346,-0.476158,-25.857543,-19.138483,-1.779084,-1.861646,0.781069,2.851721,2.252221,-29.694447,35.975883,4.63583E+18,0.347975,0.461154,0.689399,0.437013,0
-0.966728,-3.715323,3.27051,-0.351402,1.057516,-1.578649,39.635082,-24.033811,-6.556877,4.63583E+18,0.536409,-0.426009,0.469263,0.557292,-15.01711,-28.337443,1.801686,0.578336,-0.359712,-1.99775,32.127698,-31.621921,-3.575978,4.63583E+18,0.214243,0.820176,-0.228781,-0.478613,-26.921261,-24.197833,5.596176,-1.188266,0.661394,2.217208,1.413906,-30.059786,35.49861,4.63583E+18,0.344388,0.46474,0.683796,0.444789,0
-3.272996,-4.291858,2.70001,-0.592435,2.571872,-1.458231,39.987154,-23.392621,-5.843735,4.63583E+18,0.533661,-0.436125,0.471023,0.55058,-14.157884,-25.683976,3.949752,0.643817,-0.408557,-2.374158,32.751017,-31.053729,-3.652966,4.63583E+18,0.207097,0.82218,-0.222081,-0.481468,-22.350734,-23.2925,9.430639,-0.740326,0.56349,1.416971,0.743395,-30.259041,35.103346,4.63583E+18,0.341664,0.466818,0.680382,0.44992,0
-6.091602,-3.258954,0.535182,-1.001,3.956628,-1.294264,40.483466,-22.826715,-4.841492,4.63583E+18,0.52695,-0.4499,0.475111,0.542387,-13.612949,-23.105643,6.97694,0.86632,-0.788685,-2.6886,33.300349,-30.46427,-3.638606,4.63583E+18,0.198181,0.823796,-0.215049,-0.485632,-16.078164,-18.690489,10.073381,-0.546253,0.216624,0.398413,0.361854,-30.498462,35.003354,4.63583E+18,0.34153,0.467046,0.678711,0.452301,0
-8.819989,-1.069528,-1.865209,-1.296126,4.797122,-0.652452,40.920353,-22.377513,-3.576031,4.63583E+18,0.516372,-0.464782,0.4814,0.534407,-13.044497,-14.450706,10.80245,0.455567,-0.767365,-2.949714,33.982483,-29.489567,-3.63835,4.63583E+18,0.190138,0.825217,-0.206237,-0.490235,-10.830665,-16.065269,8.845386,-0.509413,-0.286708,-0.750215,0.309543,-30.702031,34.935204,4.63583E+18,0.344808,0.464867,0.678727,0.452035,0
-9.713259,2.332219,-5.806722,-1.985719,4.730821,-0.152413,41.218668,-22.076719,-2.179846,4.63583E+18,0.503248,-0.479789,0.486764,0.528777,-12.363483,10.064737,-4.184066,0.835254,-1.856052,-3.015349,35.010217,-28.203074,-4.05855,4.63583E+18,0.179686,0.824607,-0.198795,-0.498214,-7.176008,-15.623115,6.879474,-0.620455,-0.873568,-1.957354,0.876956,-30.846532,34.730457,4.63583E+18,0.352209,0.460186,0.680003,0.449192,0
-13.976035,3.942095,-7.701412,-1.467907,-0.187614,0.461124,41.273232,-22.158354,-1.960246,4.63583E+18,0.499655,-0.48151,0.484062,0.533082,-2.445891,124.637945,-28.235872,2.389202,-3.774601,-0.106786,35.255491,-27.909383,-4.718854,4.63583E+18,0.168296,0.818533,-0.205952,-0.50918,-4.570447,-15.097099,6.331237,-0.678831,-1.445677,-3.154424,2.07003,-31.030015,34.506016,4.63583E+18,0.363525,0.453026,0.682528,0.44359,0
-33.081953,3.024738,-2.162305,2.004957,-15.463548,1.962609,40.456216,-22.825273,-5.138672,4.63583E+18,0.529403,-0.438031,0.459252,0.562982,-2.463576,230.077981,-27.707717,7.303049,-5.123769,5.208595,33.800678,-29.317088,-4.695787,4.63583E+18,0.150088,0.807601,-0.242375,-0.516246,-3.611799,-13.380986,7.357478,-0.409913,-2.073179,-4.309832,3.592458,-31.154873,34.344941,4.63583E+18,0.378131,0.443999,0.68658,0.434155,0
-29.902693,20.291604,15.278311,-0.55101,-20.011718,1.171838,38.759587,-23.375618,-10.55558,4.63583E+18,0.562044,-0.388592,0.414418,0.601133,-71.423567,107.52568,36.839768,-6.630947,6.350362,-3.187289,33.312693,-29.831129,-3.657356,4.63583E+18,0.172017,0.819698,-0.212999,-0.503127,-4.461927,-10.189453,8.285258,0.161845,-2.975696,-5.433784,5.57866,-30.971379,34.286662,4.63583E+18,0.396079,0.43404,0.691969,0.419415,0
-18.881718,8.144954,70.134697,-1.66341,-3.249425,-1.145329,37.562986,-23.192746,-14.707852,4.63583E+18,0.567748,-0.386279,0.40075,0.606506,-102.369589,-72.578707,-42.966023,-17.844281,14.895561,-6.895596,35.375401,-27.475309,-2.916881,4.63583E+18,0.230939,0.840033,-0.140169,-0.470494,-2.81422,-7.229777,6.79354,0.580183,-4.146597,-6.482388,8.122975,-30.619783,34.199256,4.63583E+18,0.418125,0.423411,0.697479,0.399271,0
-20.759367,-28.059422,41.50958,0.286323,5.253528,-2.650819,38.453568,-22.323378,-14.37759,4.63583E+18,0.565953,-0.403189,0.409528,0.591119,-114.705049,-211.277846,-47.769919,1.284778,-7.151704,-7.716856,37.475211,-24.50122,-3.996708,4.63583E+18,0.207128,0.830929,-0.122204,-0.501718,1.854198,-6.900992,3.719769,0.901748,-5.375134,-7.590647,11.36637,-29.905472,34.009064,4.63583E+18,0.44447,0.411615,0.702459,0.373591,0
-15.962369,-45.400222,8.888165,3.992068,0.287833,-1.636968,39.658012,-21.701619,-12.533748,4.63583E+18,0.576097,-0.397215,0.417237,0.579867,-56.01418,-38.881114,64.889218,9.299505,-3.523626,-8.614017,38.635151,-22.457861,-5.404097,4.63583E+18,0.155053,0.834719,-0.114457,-0.515851,0.379673,-8.383955,1.413928,1.510649,-6.5146,-8.995745,15.118175,-28.648209,33.682237,4.63583E+18,0.474453,0.397832,0.7074,0.340894,0
-0.460645,-41.236604,-5.267654,5.454281,-5.772196,-0.214322,39.310248,-21.935299,-12.873318,4.63583E+18,0.595347,-0.37034,0.415991,0.579105,-9.760957,34.343104,25.887127,5.462616,-0.50442,-3.964912,39.507405,-21.106542,-4.902695,4.63583E+18,0.127443,0.838724,-0.112455,-0.517353,-6.80657,-11.638683,-3.27307,2.674231,-7.533905,-10.626075,19.29543,-26.696162,33.217657,4.63583E+18,0.506562,0.381926,0.712838,0.298982,0
11.484777,-22.171427,0.244732,4.362891,-5.840247,-0.982814,38.373751,-22.556946,-14.238459,4.63583E+18,0.614281,-0.346961,0.410335,0.577843,2.340186,17.166062,10.68179,0.493141,1.144244,-5.518219,40.39087,-19.528642,-3.905547,4.63583E+18,0.114537,0.843804,-0.093359,-0.515907,-10.909515,-15.123601,-9.048009,4.470482,-8.413608,-11.499176,23.912589,-23.646863,32.435661,4.63583E+18,0.537743,0.366979,0.717577,0.247472,0
11.085493,-9.33332,6.760381,4.38051,0.585341,-2.457309,38.4351,-22.693563,-14.237573,4.63583E+18,0.625381,-0.341287,0.41875,0.563089,-0.783814,36.81671,-8.624377,-0.077405,-0.187209,-4.823158,41.179623,-17.479645,-3.71694,4.63583E+18,0.104562,0.845066,-0.076066,-0.518791,-14.962454,-12.131739,-14.173056,5.36942,-9.141084,-11.623029,28.349282,-19.875038,31.355221,4.63583E+18,0.56765,0.352917,0.718877,0.190889,0
1.870206,-2.755872,7.835086,5.030275,5.227192,-3.316803,39.552376,-21.944791,-12.011513,4.63583E+18,0.630839,-0.346045,0.439236,0.537929,7.253412,15.405862,-20.968936,0.063537,0.241774,-4.509878,42.069108,-15.636267,-3.647129,4.63583E+18,0.094866,0.846888,-0.059963,-0.519793,-25.810901,-8.704746,-13.510994,5.465946,-9.106988,-11.56457,32.424572,-15.659047,29.855283,4.63583E+18,0.594834,0.337716,0.717167,0.13339,0
-11.022582,7.92455,11.633937,5.124763,4.462273,-3.632854,40.68591,-21.131311,-9.372274,4.63583E+18,0.637867,-0.34905,0.456998,0.512292,9.741024,1.673276,-19.966012,0.818193,0.674736,-4.542769,42.740994,-14.158716,-3.328025,4.63583E+18,0.082511,0.849638,-0.045182,-0.518909,-28.869715,-7.982701,-14.718956,5.871582,-8.437186,-11.250846,35.974695,-11.148501,27.922748,4.63583E+18,0.616804,0.322687,0.713915,0.075837,0
-18.113059,12.911167,7.681352,5.240603,3.926082,-3.087284,41.577806,-20.554287,-7.185473,4.63583E+18,0.644301,-0.349226,0.473932,0.488166,9.935272,-3.542388,-20.144652,2.655261,0.592063,-3.18403,43.089524,-13.007513,-3.110047,4.63583E+18,0.066549,0.852291,-0.039193,-0.517334,-30.634966,-2.248875,-20.115493,6.29344,-8.537332,-10.788075,38.657892,-6.620046,25.808268,4.63583E+18,0.635891,0.308847,0.707064,0.01779,0
-14.229867,11.491769,-0.918554,4.024733,3.752394,-2.544202,42.215946,-19.971052,-5.197758,4.63583E+18,0.647705,-0.35097,0.488351,0.467772,-2.845932,-16.648703,-10.537118,2.646198,0.542718,-3.046942,43.438419,-11.882794,-2.676134,4.63583E+18,0.050887,0.854562,-0.03367,-0.515753,-32.689027,7.392255,-24.08257,7.668039,-8.753644,-9.80902,40.665207,-1.843766,23.037849,4.63583E+18,0.651237,0.300311,0.695655,-0.042057,0
-10.288395,11.788566,-2.892709,3.147397,3.224644,-1.812761,42.743572,-19.37289,-3.455958,4.63583E+18,0.649135,-0.352382,0.50045,0.451663,-8.583427,-8.470781,-2.904096,2.815516,0.036244,-3.000339,43.90741,-10.675931,-2.073302,4.63583E+18,0.034637,0.855526,-0.028771,-0.515799,-26.866538,14.771087,-27.936384,8.788087,-9.002039,-8.780013,42.166809,2.871426,19.514577,4.63583E+18,0.663443,0.296547,0.679261,-0.102508,0
-9.335027,8.140486,-1.401033,2.71719,3.1038,-1.276232,43.052133,-18.716399,-1.917157,4.63583E+18,0.648938,-0.353482,0.512017,0.437913,-1.491357,-13.735841,0.562434,2.76729,0.480654,-2.479479,44.120939,-9.633695,-1.609463,4.63583E+18,0.019723,0.857147,-0.025551,-0.51406,-24.629064,15.046604,-27.687637,9.29071,-9.168704,-7.769854,43.186293,7.049341,15.684131,4.63583E+18,0.673249,0.295765,0.658189,-0.161386,0
-8.030951,4.820685,-2.335165,1.748919,3.564386,-1.605563,43.308464,-18.103377,-0.571314,4.63583E+18,0.646724,-0.35863,0.522413,0.424519,-1.164565,-14.840808,2.241167,3.184601,0.530677,-2.31443,44.107848,-8.768588,-1.145581,4.63583E+18,0.003673,0.858672,-0.023801,-0.511959,-28.456048,11.755517,-32.970884,9.227648,-9.142573,-6.796935,43.57294,10.763069,11.528074,4.63583E+18,0.681109,0.296357,0.633479,-0.216719,0
-6.869547,-1.364524,-1.682108,1.287818,4.704926,-2.187195,43.564789,-17.505286,0.948535,4.63583E+18,0.642104,-0.368157,0.533984,0.408685,-1.886157,-12.645171,2.82639,3.539118,0.644039,-2.035727,44.207122,-8.062194,-0.702302,4.63583E+18,-0.013041,0.860176,-0.023791,-0.509275,-32.861235,15.164809,-46.226267,9.31688,-8.763812,-5.881741,43.443524,13.859128,7.443693,4.63583E+18,0.686241,0.298901,0.606354,-0.268452,0
-5.632597,-7.771346,-0.864596,1.812571,5.868274,-2.690081,43.63649,-16.576711,3.057766,4.63583E+18,0.636147,-0.379145,0.548447,0.388293,-0.618741,-9.971695,1.6719,3.638861,0.760727,-1.795472,44.467986,-7.476309,-0.279821,4.63583E+18,-0.029588,0.861649,-0.024851,-0.506032,-32.895226,22.087858,-56.583892,10.181775,-7.681119,-4.620872,43.032758,16.157183,3.327458,4.63583E+18,0.686715,0.307282,0.577787,-0.316484,0
