Accelerometer-X,Accelerometer-Y,Accelerometer-Z,Gyroscope-X,Gyroscope-Y,Gyroscope-Z,Magnetometer-X,Magnetometer-Y,Magnetometer-Z,Barometer-pressure,Orientation-S,Orientation-X,Orientation-Y,Orientation-Z,Accelerometer-X,Accelerometer-Y,Accelerometer-Z,Gyroscope-X,Gyroscope-Y,Gyroscope-Z,Magnetometer-X,Magnetometer-Y,Magnetometer-Z,Barometer-pressure,Orientation-S,Orientation-X,Orientation-Y,Orientation-Z,Accelerometer-X,Accelerometer-Y,Accelerometer-Z,Gyroscope-X,Gyroscope-Y,Gyroscope-Z,Magnetometer-X,Magnetometer-Y,Magnetometer-Z,Barometer-pressure,Orientation-S,Orientation-X,Orientation-Y,Orientation-Z,jump
-9.190695,0.550936,3.285271,0.058219,-0.074781,-0.023488,33.852856,-20.552582,-24.104936,4.63583E+18,0.285777,-0.510529,0.233826,0.776541,-9.181677,2.816809,-0.455531,-0.100312,0.008329,-0.113561,43.439826,-3.130026,-15.526743,4.63583E+18,0.242289,0.706281,0.119723,-0.654316,-9.63529,-1.115955,-0.625271,0.04124,0.024678,0.132838,41.076478,-3.428064,20.850245,4.63583E+18,0.637269,-0.1653,0.738692,0.144563,0
-9.181448,0.596682,3.233361,0.059816,-0.072624,-0.018288,33.919811,-20.574157,-24.073,4.63583E+18,0.286182,-0.510231,0.233919,0.77656,-9.316276,2.675569,-0.380895,-0.106178,0.014711,-0.107274,43.598521,-2.968865,-15.602135,4.63583E+18,0.242316,0.706165,0.120382,-0.654311,-9.689981,-1.320292,-0.610843,0.002401,0.00838,0.118995,40.923663,-3.491317,20.828054,4.63583E+18,0.637203,-0.164979,0.738769,0.144827,0
-9.152473,0.640943,3.195261,0.059816,-0.068092,-0.015753,33.81737,-20.606096,-24.073,4.63583E+18,0.286574,-0.509945,0.234023,0.776572,-9.521774,2.480256,-0.298228,-0.089885,0.012087,-0.101203,43.758604,-2.912634,-15.525349,4.63583E+18,0.242312,0.70606,0.120976,-0.654315,-9.720264,-1.407826,-0.681864,-0.022042,-0.00455,0.107759,40.841524,-3.491317,20.786984,4.63583E+18,0.637166,-0.164749,0.73879,0.145145,0
-9.15863,0.682128,3.140276,0.058479,-0.072643,-0.010942,33.707615,-20.651952,-24.126498,4.63583E+18,0.286798,-0.509687,0.234027,0.776658,-9.523163,2.301644,-0.24137,-0.062336,0.005801,-0.089577,43.91003,-3.054336,-15.612173,4.63583E+18,0.242263,0.705972,0.121454,-0.65434,-9.73247,-1.191269,-0.771764,-0.03866,-0.006728,0.094664,41.009252,-3.491317,20.850245,4.63583E+18,0.637133,-0.164602,0.738785,0.14548,0
-9.129547,0.703465,3.12053,0.057011,-0.081188,-0.007208,33.726082,-20.633485,-24.219593,4.63583E+18,0.287015,-0.5094,0.234024,0.776767,-9.531202,2.26532,-0.214173,-0.028396,0.000338,-0.078773,43.841917,-2.903543,-15.68065,4.63583E+18,0.242146,0.705909,0.121801,-0.654387,-9.754182,-0.999605,-0.712965,-0.059743,-0.012068,0.081334,41.123574,-3.529341,20.802714,4.63583E+18,0.637109,-0.164549,0.738744,0.145848,0
-9.083795,0.7386,3.125095,0.053268,-0.090402,-0.007746,33.753471,-20.552598,-24.317252,4.63583E+18,0.287234,-0.509087,0.233996,0.776899,-9.505401,2.349956,-0.165349,0.00158,-0.005705,-0.067146,43.217442,-2.263862,-15.509475,4.63583E+18,0.241976,0.705865,0.122027,-0.654455,-9.771326,-0.906984,-0.609903,-0.078652,-0.016854,0.069861,41.076508,-3.682168,20.692483,4.63583E+18,0.637094,-0.164582,0.738671,0.14625,0
-9.047173,0.756859,3.125095,0.048596,-0.099347,-0.009883,33.806968,-20.574143,-24.292629,4.63583E+18,0.287458,-0.508754,0.233939,0.777052,-9.453523,2.608779,-0.140109,0.011458,-0.00636,-0.057073,42.473438,-1.840822,-15.292271,4.63583E+18,0.241805,0.705834,0.122194,-0.65452,-9.68541,-1.006039,-0.580085,-0.088893,-0.018395,0.060289,40.949035,-3.786532,20.79014,4.63583E+18,0.637082,-0.16467,0.738581,0.146659,0
-9.033479,0.764501,3.125095,0.038975,-0.105885,-0.012019,33.938265,-20.758931,-24.194977,4.63583E+18,0.288086,-0.50829,0.234108,0.777072,-9.304816,2.754431,-0.290483,-0.010634,0.012867,-0.051611,42.371058,-1.898525,-15.47816,4.63583E+18,0.241705,0.705837,0.122425,-0.654512,-9.579183,-1.175539,-0.598163,-0.083749,-0.014359,0.056098,40.932809,-3.704255,20.859284,4.63583E+18,0.637064,-0.164759,0.738501,0.147036,0
-9.04112,0.761425,3.178583,0.028163,-0.107883,-0.016829,33.898283,-20.75091,-24.28071,4.63583E+18,0.288451,-0.507915,0.234061,0.777196,-9.338954,2.599597,-0.360668,-0.035856,0.030394,-0.045809,42.010877,-1.692602,-15.663487,4.63583E+18,0.241685,0.705864,0.122726,-0.654433,-9.527648,-1.211239,-0.594996,-0.07279,-0.008505,0.057957,41.082464,-3.669017,20.777399,4.63583E+18,0.637035,-0.164816,0.738445,0.147381,0
-9.045686,0.772141,3.256394,0.019219,-0.10454,-0.021232,33.731945,-20.538726,-24.414899,4.63583E+18,0.288654,-0.507612,0.233879,0.777374,-9.434936,2.397922,-0.309069,-0.040347,0.032845,-0.044862,41.49879,-1.174407,-15.653496,4.63583E+18,0.24168,0.705894,0.123038,-0.654343,-9.509567,-1.18095,-0.585955,-0.061871,-0.004232,0.059025,41.177807,-3.723258,20.569475,4.63583E+18,0.636998,-0.164846,0.738408,0.147693,0
-9.022762,0.796556,3.27615,0.005993,-0.098531,-0.025106,33.721507,-20.592582,-24.268041,4.63583E+18,0.28905,-0.507284,0.233793,0.777466,-9.40608,2.366018,-0.241373,-0.039424,0.022067,-0.044862,41.743502,-1.16387,-15.477322,4.63583E+18,0.241679,0.705896,0.123337,-0.654286,-9.519082,-1.181426,-0.589127,-0.052769,0.000042,0.060371,41.076473,-3.704228,20.620221,4.63583E+18,0.636954,-0.16485,0.738388,0.147976,0
-8.993783,0.790408,3.241023,-0.005348,-0.085437,-0.028041,33.654146,-20.732823,-24.150811,4.63583E+18,0.289358,-0.507032,0.233641,0.777562,-9.250161,2.565496,-0.229443,-0.049911,0.020562,-0.045105,42.650721,-1.765353,-15.364959,4.63583E+18,0.241708,0.705882,0.123664,-0.654228,-9.565219,-1.214876,-0.604506,-0.043475,0.003482,0.060843,40.949015,-3.691245,20.790166,4.63583E+18,0.636906,-0.164828,0.738384,0.148229,0
-9.03812,0.796551,3.207477,-0.007208,-0.083053,-0.026166,33.495469,-20.711321,-24.207354,4.63583E+18,0.289499,-0.506835,0.233389,0.777713,-9.139453,2.786325,-0.309343,-0.076514,0.030976,-0.047969,43.418107,-2.545744,-15.320026,4.63583E+18,0.241802,0.705869,0.124081,-0.654129,-9.638461,-1.258318,-0.616235,-0.036747,0.003718,0.059067,40.936028,-3.887991,20.814883,4.63583E+18,0.636862,-0.164796,0.738383,0.148458,0
-9.16176,0.836242,3.213616,-0.005072,-0.101492,-0.022562,33.535374,-20.526577,-24.312647,4.63583E+18,0.289651,-0.506572,0.23313,0.777906,-9.205768,2.93585,-0.345965,-0.112514,0.031219,-0.056878,43.579043,-2.970291,-15.212931,4.63583E+18,0.241978,0.705815,0.124624,-0.654019,-9.711699,-1.40352,-0.598163,-0.025511,0.002691,0.063298,41.11373,-4.091704,20.701532,4.63583E+18,0.636826,-0.164724,0.738388,0.148667,0
-9.21659,0.907986,3.253307,-0.015634,-0.111756,-0.022031,33.640603,-20.389364,-24.300302,4.63583E+18,0.290064,-0.506206,0.233005,0.778028,-9.224904,3.20441,-0.399215,-0.164899,0.034204,-0.067536,43.586236,-2.866563,-15.170436,4.63583E+18,0.242277,0.705711,0.125343,-0.653883,-9.756412,-1.627228,-0.604503,-0.013248,0.006769,0.065476,41.285439,-4.009422,20.786984,4.63583E+18,0.636785,-0.164614,0.738413,0.14884,0
-9.208951,0.955247,3.256308,-0.034461,-0.112156,-0.021763,33.599274,-20.423054,-24.375254,4.63583E+18,0.290311,-0.505898,0.232736,0.778216,-9.299525,3.412031,-0.572616,-0.232625,0.046239,-0.069551,43.726917,-2.563555,-15.430158,4.63583E+18,0.242764,0.705569,0.126264,-0.653679,-9.73247,-1.59,-0.622578,-0.003399,0.014163,0.071926,41.26642,-3.955199,20.850245,4.63583E+18,0.636724,-0.164462,0.738468,0.148994,0
-9.257843,0.972022,3.30063,-0.055023,-0.117502,-0.020695,33.504689,-20.566531,-24.61488,4.63583E+18,0.290366,-0.505642,0.2323,0.778493,-9.393283,3.129625,-0.62459,-0.28492,0.076125,-0.070377,43.718611,-2.582936,-15.419083,4.63583E+18,0.243386,0.705454,0.12736,-0.653359,-9.744676,-1.351853,-0.606734,0.004077,0.013845,0.080152,41.171,-3.996392,20.805883,4.63583E+18,0.636664,-0.164265,0.738533,0.149146,0
-9.289834,0.923135,3.378442,-0.071708,-0.118696,-0.020963,33.526156,-20.676333,-24.719992,4.63583E+18,0.290387,-0.505401,0.231808,0.778787,-9.539519,2.766677,-0.338788,-0.314839,0.095792,-0.068945,43.67167,-2.734458,-15.321425,4.63583E+18,0.24409,0.705361,0.128553,-0.652962,-9.734703,-1.418863,-0.577384,0.015436,0.009572,0.086088,41.012305,-4.094883,20.67934,4.63583E+18,0.636621,-0.164019,0.738597,0.149284,0
-9.289834,0.86823,3.421139,-0.082252,-0.112819,-0.021363,33.558151,-20.657936,-24.666535,4.63583E+18,0.290382,-0.505193,0.231288,0.779079,-9.57728,2.611907,-0.212819,-0.301155,0.100748,-0.065036,43.830348,-2.705417,-15.256966,4.63583E+18,0.244761,0.705297,0.129702,-0.652554,-9.664629,-1.661138,-0.654261,0.042579,0.008904,0.097046,40.875792,-4.021641,20.704687,4.63583E+18,0.636592,-0.163666,0.738684,0.149366,0
-9.274562,0.816339,3.468459,-0.088124,-0.10601,-0.01869,33.611603,-20.577061,-24.512367,4.63583E+18,0.290686,-0.504911,0.230982,0.779239,-9.528451,2.421214,-0.149017,-0.270501,0.09325,-0.064331,43.951707,-2.468424,-15.430158,4.63583E+18,0.245347,0.705242,0.130758,-0.652182,-9.609932,-1.742953,-0.744652,0.083442,0.019348,0.108241,40.84056,-3.964239,20.726325,4.63583E+18,0.636552,-0.163176,0.738831,0.149344,0
-9.273054,0.732399,3.498953,-0.091729,-0.101606,-0.015754,33.643604,-20.545059,-24.439222,4.63583E+18,0.290784,-0.5047,0.230556,0.779465,-9.479627,2.482695,-0.08982,-0.229511,0.077713,-0.066588,43.791875,-2.384363,-15.419107,4.63583E+18,0.245815,0.705184,0.131693,-0.651879,-9.608149,-1.763739,-0.725648,0.119834,0.029117,0.115083,40.935976,-3.996373,20.60702,4.63583E+18,0.636502,-0.162576,0.739031,0.149222,0
-9.323433,0.642381,3.511159,-0.087585,-0.098402,-0.013618,33.506185,-20.430543,-24.691157,4.63583E+18,0.290877,-0.504493,0.230149,0.779685,-9.425282,2.729365,-0.230774,-0.219797,0.069467,-0.070033,43.717257,-2.319407,-15.311796,4.63583E+18,0.24625,0.705112,0.132602,-0.651609,-9.702638,-1.669655,-0.665073,0.137317,0.029908,0.116509,41.034496,-4.094894,20.777512,4.63583E+18,0.636461,-0.161926,0.739244,0.14905,0
-9.373775,0.61037,3.531002,-0.073027,-0.113234,-0.01215,33.46968,-20.31614,-24.964222,4.63583E+18,0.29086,-0.504263,0.229678,0.779979,-9.3359,2.886473,-0.318774,-0.217781,0.088575,-0.075133,43.651138,-2.337365,-15.170109,4.63583E+18,0.246654,0.705089,0.133541,-0.651289,-9.788083,-1.398863,-0.634329,0.140956,0.031293,0.123391,41.002412,-4.01849,21.07993,4.63583E+18,0.636414,-0.161243,0.739468,0.148882,0
-9.395126,0.61037,3.532514,-0.064221,-0.135528,-0.014421,33.497116,-20.334505,-25.037384,4.63583E+18,0.29089,-0.503952,0.229205,0.780308,-9.330822,2.928396,-0.333743,-0.219251,0.104558,-0.077975,43.744872,-2.478103,-15.343547,4.63583E+18,0.247046,0.705106,0.134508,-0.650923,-9.835546,-1.270481,-0.591831,0.140007,0.036911,0.126635,41.081534,-3.936204,21.07041,4.63583E+18,0.636347,-0.160555,0.739708,0.14872,0
-9.361538,0.595105,3.520307,-0.056342,-0.141128,-0.017358,33.497116,-20.415375,-24.968692,4.63583E+18,0.290951,-0.503616,0.228744,0.780638,-9.469009,2.891374,-0.367601,-0.239162,0.103852,-0.078095,43.895267,-2.458801,-15.430158,4.63583E+18,0.247497,0.7051,0.135528,-0.650547,-9.76818,-1.368137,-0.599071,0.149937,0.043874,0.134429,41.152066,-3.942096,20.884609,4.63583E+18,0.636259,-0.159822,0.739977,0.148545,0
-9.338663,0.624117,3.492835,-0.049668,-0.144602,-0.017491,33.397893,-20.393974,-24.813031,4.63583E+18,0.291361,-0.503163,0.228514,0.780844,-9.532602,2.655269,-0.37567,-0.244931,0.105626,-0.079647,43.951746,-2.2796,-15.430158,4.63583E+18,0.24796,0.70509,0.136569,-0.650163,-9.692228,-1.424652,-0.699886,0.161607,0.049372,0.143409,41.205414,-4.113895,20.998533,4.63583E+18,0.636157,-0.159036,0.740272,0.148355,0
-9.331031,0.685154,3.433316,-0.05007,-0.154751,-0.01709,33.284992,-20.316154,-24.805465,4.63583E+18,0.291596,-0.50273,0.228154,0.78114,-9.513495,2.408787,-0.351255,-0.226977,0.104075,-0.084142,43.780846,-2.063051,-15.420499,4.63583E+18,0.248359,0.705091,0.137573,-0.649798,-9.643401,-1.357289,-0.76229,0.168331,0.050044,0.146415,41.147994,-4.113895,21.117911,4.63583E+18,0.636054,-0.158222,0.740575,0.148152,0
-9.303562,0.708029,3.37534,-0.053274,-0.16049,-0.023768,33.252968,-20.235284,-24.964169,4.63583E+18,0.291702,-0.502333,0.227666,0.781499,-9.44026,2.342443,-0.3296,-0.194833,0.09789,-0.082609,43.629261,-2.0727,-15.322652,4.63583E+18,0.248671,0.705109,0.138478,-0.649467,-9.613552,-1.284496,-0.695378,0.178182,0.058195,0.153852,41.097833,-4.113895,20.99812,4.63583E+18,0.635928,-0.157365,0.74091,0.147932,0
-9.244043,0.708029,3.379931,-0.061821,-0.162626,-0.03445,33.298757,-20.157462,-25.159493,4.63583E+18,0.291826,-0.501949,0.227126,0.781856,-9.379417,2.345385,-0.3296,-0.171112,0.083267,-0.085452,43.6389,-2.148503,-15.127355,4.63583E+18,0.248915,0.70511,0.139311,-0.649195,-9.64113,-1.222571,-0.640223,0.181507,0.055505,0.158401,40.961275,-4.155012,20.887754,4.63583E+18,0.635809,-0.156484,0.741241,0.147717,0
-9.170806,0.71566,3.41655,-0.070231,-0.162091,-0.04513,33.227014,-20.130009,-25.232702,4.63583E+18,0.291966,-0.501586,0.226536,0.782208,-9.409154,2.46608,-0.339238,-0.155468,0.056234,-0.08509,43.71471,-2.140242,-14.943054,4.63583E+18,0.24913,0.705053,0.140072,-0.64901,-9.668263,-1.100941,-0.585955,0.171579,0.052616,0.164572,40.907009,-4.253614,20.960112,4.63583E+18,0.635688,-0.15561,0.741562,0.147552,0
-9.051803,0.773636,3.407395,-0.075304,-0.156618,-0.05314,33.121743,-20.229179,-25.164045,4.63583E+18,0.292116,-0.501255,0.22592,0.782542,-9.383366,2.562179,-0.426056,-0.150955,0.044983,-0.082247,43.722964,-2.046371,-14.878419,4.63583E+18,0.249346,0.704972,0.140801,-0.648858,-9.655614,-1.069254,-0.585955,0.161844,0.053407,0.172011,40.925983,-4.17721,20.934812,4.63583E+18,0.635554,-0.154738,0.741883,0.147435,0
-8.981599,0.859091,3.401287,-0.068229,-0.160489,-0.056211,33.140043,-20.38788,-25.122835,4.63583E+18,0.292294,-0.500905,0.225316,0.782874,-9.361876,2.548596,-0.507209,-0.14274,0.044727,-0.081886,43.796209,-1.809274,-15.051728,4.63583E+18,0.24954,0.704898,0.141505,-0.64871,-9.606788,-1.162865,-0.611246,0.16315,0.054514,0.176006,40.961284,-4.136024,20.887743,4.63583E+18,0.635414,-0.15385,0.74221,0.147323,0
-8.957186,0.952161,3.382983,-0.059016,-0.181848,-0.05461,33.266673,-20.294849,-25.244878,4.63583E+18,0.292953,-0.500344,0.225005,0.783075,-9.445779,2.53656,-0.455629,-0.122235,0.034888,-0.079043,43.870827,-1.733451,-15.040725,4.63583E+18,0.249687,0.70482,0.142134,-0.6486,-9.58325,-1.181395,-0.674131,0.166231,0.06017,0.1817,40.91017,-4.237283,21.010693,4.63583E+18,0.635255,-0.15294,0.742556,0.147214,0
-8.887007,1.011682,3.315851,-0.065955,-0.18893,-0.053407,33.356721,-20.012567,-25.447821,4.63583E+18,0.293298,-0.499854,0.224472,0.783412,-9.406252,2.622003,-0.386515,-0.11954,0.036012,-0.078442,43.937032,-1.715588,-14.955443,4.63583E+18,0.249828,0.704749,0.142755,-0.648487,-9.644721,-1.278074,-0.646992,0.180632,0.067017,0.193135,40.90025,-4.367962,21.180718,4.63583E+18,0.635076,-0.151962,0.742935,0.147086,0
-8.819859,1.002541,3.291419,-0.082911,-0.177583,-0.05274,33.275888,-20.004847,-25.57907,4.63583E+18,0.29345,-0.499463,0.223807,0.783795,-9.270915,2.688218,-0.352641,-0.137097,0.069457,-0.073101,43.843337,-1.582999,-14.977268,4.63583E+18,0.250016,0.704752,0.143442,-0.64826,-9.720253,-1.461296,-0.650152,0.19013,0.063737,0.199505,40.84597,-4.431287,21.25309,4.63583E+18,0.634908,-0.150936,0.743314,0.146948,0
-8.809163,0.920169,3.31125,-0.097731,-0.16263,-0.051005,33.117211,-20.221484,-25.656885,4.63583E+18,0.29355,-0.499136,0.223114,0.784163,-9.329348,2.601403,-0.339062,-0.148593,0.08652,-0.068121,43.702503,-1.667217,-15.062563,4.63583E+18,0.250241,0.704792,0.144163,-0.64797,-9.7293,-1.337062,-0.6592,0.188748,0.055782,0.202433,40.86493,-4.450247,21.25309,4.63583E+18,0.634762,-0.149901,0.743672,0.146826,0
-8.844245,0.848433,3.320414,-0.107213,-0.14701,-0.050203,33.057648,-20.31312,-25.684376,4.63583E+18,0.293613,-0.498871,0.222412,0.784507,-9.462257,2.509234,-0.310529,-0.149781,0.083277,-0.065505,43.710739,-1.799686,-15.04212,4.63583E+18,0.250479,0.704823,0.144875,-0.647685,-9.73562,-1.0698,-0.649721,0.177602,0.050919,0.203187,40.900259,-4.526648,21.230973,4.63583E+18,0.634623,-0.14889,0.74401,0.146745,0
-8.85495,0.799603,3.343289,-0.112688,-0.132989,-0.053539,33.156773,-20.206369,-25.516625,4.63583E+18,0.293988,-0.49857,0.221908,0.784702,-9.580213,2.490603,-0.257728,-0.151557,0.052275,-0.060777,43.783985,-1.620546,-14.977257,4.63583E+18,0.250753,0.704771,0.145545,-0.647485,-9.7853,-0.98692,-0.619419,0.148174,0.038543,0.201088,40.804911,-4.589983,21.12026,4.63583E+18,0.634505,-0.147958,0.744294,0.146759,0
-8.87324,0.77365,3.311291,-0.11229,-0.130846,-0.058212,33.162976,-20.043101,-25.415813,4.63583E+18,0.294201,-0.498329,0.221287,0.78495,-9.636841,2.722686,-0.285033,-0.153971,0.009854,-0.067521,43.859971,-1.431301,-15.052955,4.63583E+18,0.251043,0.704598,0.146196,-0.647415,-9.844205,-1.127518,-0.641954,0.117586,0.02267,0.196905,40.706226,-4.608934,20.981367,4.63583E+18,0.63442,-0.14711,0.744514,0.146866,0
-8.95561,0.784315,3.276167,-0.11509,-0.126446,-0.061818,32.993652,-19.922523,-25.659797,4.63583E+18,0.294266,-0.498151,0.22056,0.785243,-9.460471,3.038539,-0.443847,-0.185316,0.014149,-0.060884,43.938425,-1.686393,-14.942966,4.63583E+18,0.251441,0.704406,0.146917,-0.647306,-9.756873,-1.181994,-0.767183,0.101161,0.017255,0.180719,40.823682,-4.663228,21.044954,4.63583E+18,0.63435,-0.146352,0.744699,0.146985,0
-9.042601,0.785857,3.347825,-0.12817,-0.106159,-0.066356,32.964529,-19.939229,-25.867443,4.63583E+18,0.294299,-0.498059,0.219805,0.7855,-9.285987,3.196702,-0.661809,-0.225882,0.037192,-0.060884,43.872038,-1.951413,-14.749153,4.63583E+18,0.251944,0.704234,0.14777,-0.647103,-9.788021,-0.985222,-0.876197,0.095268,0.007716,0.173243,40.985727,-4.644286,21.278345,4.63583E+18,0.634312,-0.145625,0.74485,0.147106,0
-9.131082,0.71267,3.408903,-0.145258,-0.093465,-0.065027,33.04997,-19.917953,-25.78977,4.63583E+18,0.29428,-0.498028,0.219013,0.785748,-9.459497,2.972993,-0.562651,-0.248421,0.072908,-0.061484,43.859828,-1.610986,-14.663703,4.63583E+18,0.252489,0.704134,0.148722,-0.646782,-9.857689,-0.9084,-0.871778,0.090277,0.006998,0.166318,40.909324,-4.589983,21.350748,4.63583E+18,0.634277,-0.144932,0.744992,0.147224,0
-9.198249,0.633297,3.509538,-0.155012,-0.082524,-0.053684,33.059196,-19.84775,-25.713377,4.63583E+18,0.294514,-0.497946,0.218429,0.785876,-9.543452,2.814328,-0.377061,-0.262295,0.101244,-0.066944,43.858571,-1.3184,-14.587847,4.63583E+18,0.253044,0.70409,0.149757,-0.646373,-9.85685,-0.839992,-0.749708,0.093794,0.012854,0.162082,40.827031,-4.631019,21.353905,4.63583E+18,0.634228,-0.144245,0.745148,0.147316,0
-9.254705,0.541763,3.617923,-0.151682,-0.068902,-0.03606,32.946342,-19.771461,-25.83076,4.63583E+18,0.294363,-0.497977,0.217707,0.786113,-9.514926,2.640548,-0.341567,-0.2644,0.108003,-0.073353,43.944033,-1.327988,-14.597435,4.63583E+18,0.253583,0.704058,0.150823,-0.64595,-9.767834,-0.906503,-0.652889,0.102099,0.017679,0.162947,40.772728,-4.789702,21.337711,4.63583E+18,0.634168,-0.143539,0.745322,0.147383,0
-9.323362,0.470013,3.634768,-0.133132,-0.071426,-0.018835,32.93248,-19.73937,-26.026073,4.63583E+18,0.294196,-0.49796,0.217078,0.786359,-9.445672,2.373596,-0.150598,-0.239823,0.109071,-0.079402,44.01031,-1.394264,-14.674668,4.63583E+18,0.254033,0.704049,0.151841,-0.645543,-9.636708,-0.931333,-0.631629,0.109191,0.021327,0.168251,40.794816,-4.885288,21.287385,4.63583E+18,0.634097,-0.142802,0.745513,0.147441,0
-9.312765,0.436432,3.617978,-0.104566,-0.087842,-0.004816,33.112412,-19.640295,-26.107049,4.63583E+18,0.294057,-0.497842,0.216552,0.786631,-9.333297,2.315302,-0.203635,-0.207312,0.106308,-0.083085,43.923498,-1.291034,-14.67456,4.63583E+18,0.254379,0.704064,0.152779,-0.645169,-9.536724,-0.982902,-0.628888,0.110404,0.018435,0.17094,40.877108,-4.799838,21.325507,4.63583E+18,0.634035,-0.142049,0.745697,0.147503,0
-9.22124,0.472989,3.621013,-0.082926,-0.093064,0.003334,33.204136,-19.580675,-26.050663,4.63583E+18,0.294255,-0.497587,0.216306,0.786786,-9.383389,2.289625,-0.364854,-0.181097,0.074153,-0.089964,43.836784,-1.055098,-14.598792,4.63583E+18,0.254652,0.704016,0.153631,-0.644912,-9.528491,-1.004161,-0.662763,0.12484,0.021159,0.174108,40.931423,-4.777475,21.205779,4.63583E+18,0.63397,-0.141251,0.7459,0.147526,0
-9.103764,0.546225,3.564636,-0.084908,-0.089194,0.002674,33.05173,-19.679738,-26.067319,4.63583E+18,0.294133,-0.497433,0.215859,0.787052,-9.346771,2.36159,-0.384084,-0.169844,0.051382,-0.091741,43.854553,-0.903348,-14.685506,4.63583E+18,0.254901,0.703916,0.154434,-0.644731,-9.608041,-0.991139,-0.723798,0.139758,0.028911,0.173832,40.931423,-4.895169,21.069979,4.63583E+18,0.633889,-0.14042,0.74613,0.1475,0
-8.943592,0.588988,3.474599,-0.106393,-0.070252,-0.006266,32.906649,-19.846052,-26.152768,4.63583E+18,0.293979,-0.497376,0.215346,0.787286,-9.300583,2.520284,-0.634877,-0.181609,0.047381,-0.091151,44.005046,-0.912914,-14.66364,4.63583E+18,0.255188,0.703793,0.155263,-0.644552,-9.696231,-0.889936,-0.762762,0.148748,0.036904,0.174971,40.931423,-4.895169,21.120414,4.63583E+18,0.633788,-0.139567,0.746387,0.147443,0
-8.821438,0.628645,3.427246,-0.130431,-0.045813,-0.01735,32.927881,-19.803585,-26.192501,4.63583E+18,0.293789,-0.497439,0.214761,0.787477,-9.199002,2.64483,-0.714695,-0.209371,0.077989,-0.094475,44.071375,-0.979242,-14.490188,4.63583E+18,0.255529,0.70372,0.156208,-0.644269,-9.732054,-0.756065,-0.719443,0.148989,0.043312,0.179966,40.934574,-4.895169,21.312563,4.63583E+18,0.633664,-0.1387,0.746664,0.147394,0
-8.78933,0.654611,3.471405,-0.134859,-0.037385,-0.028029,32.906657,-19.586995,-26.204707,4.63583E+18,0.293617,-0.497543,0.21415,0.787642,-9.279153,2.494245,-0.545076,-0.224894,0.094109,-0.098867,43.985923,-0.893791,-14.50111,4.63583E+18,0.255892,0.703669,0.157224,-0.643933,-9.698583,-0.686766,-0.637539,0.147956,0.046964,0.179484,40.902666,-4.917226,21.473617,4.63583E+18,0.633528,-0.137839,0.746948,0.147344,0
-8.812184,0.697288,3.541613,-0.113787,-0.045384,-0.034044,32.927861,-19.495224,-26.148353,4.63583E+18,0.293515,-0.497601,0.213586,0.787796,-9.491979,2.323422,-0.309201,-0.208977,0.084609,-0.103371,43.929145,-0.808339,-14.598769,4.63583E+18,0.256203,0.703606,0.1582,-0.643639,-9.67732,-0.724179,-0.613521,0.149541,0.04407,0.184859,40.784935,-4.999525,21.498805,4.63583E+18,0.633398,-0.136956,0.747229,0.147306,0
-8.909747,0.712619,3.549326,-0.084545,-0.069533,-0.031916,33.013312,-19.601871,-26.16496,4.63583E+18,0.29391,-0.497428,0.213359,0.78782,-9.535267,2.250178,-0.248244,-0.174902,0.069071,-0.101474,44.089125,-0.732444,-14.663661,4.63583E+18,0.256429,0.703539,0.159063,-0.64341,-9.687161,-0.843484,-0.609979,0.151194,0.042106,0.193954,40.803832,-5.053865,21.337758,4.63583E+18,0.633269,-0.13604,0.747509,0.147288,0
-9.013552,0.73088,3.555381,-0.067037,-0.098507,-0.029908,32.992122,-19.559492,-26.318957,4.63583E+18,0.293938,-0.49725,0.212893,0.788048,-9.45945,2.2056,-0.279405,-0.12482,0.065031,-0.100399,44.144623,-0.724254,-14.469713,4.63583E+18,0.256514,0.703514,0.159784,-0.643225,-9.791902,-0.983674,-0.573748,0.156225,0.030047,0.201053,40.858177,-5.053865,21.265297,4.63583E+18,0.633176,-0.135082,0.747763,0.147281,0
-9.022834,0.737034,3.534093,-0.072352,-0.09962,-0.033241,32.952371,-19.34288,-26.400023,4.63583E+18,0.293967,-0.497078,0.2124,0.788278,-9.55709,2.387312,-0.276738,-0.080464,0.056021,-0.090907,44.059188,-0.649662,-14.317977,4.63583E+18,0.2565,0.703518,0.160348,-0.643085,-9.968315,-1.001827,-0.602088,0.153987,0.016505,0.197022,40.839284,-5.034972,21.337721,4.63583E+18,0.633125,-0.134132,0.747978,0.147276,0
-8.97098,0.69436,3.515732,-0.102634,-0.065339,-0.046579,33.100117,-19.35771,-26.343678,4.63583E+18,0.294199,-0.497,0.211982,0.788354,-9.656123,2.540504,-0.35681,-0.074412,0.059578,-0.081287,43.99282,-0.573748,-14.404736,4.63583E+18,0.256492,0.703545,0.160872,-0.642929,-10.084077,-0.765157,-0.708791,0.139761,0.009822,0.190064,40.74717,-5.021532,21.549213,4.63583E+18,0.633092,-0.133236,0.748161,0.1473,0
-8.940411,0.62571,3.515732,-0.142154,-0.008748,-0.064737,33.245243,-19.467677,-26.367884,4.63583E+18,0.294252,-0.497201,0.211399,0.788364,-9.756443,2.544529,-0.491089,-0.069776,0.056606,-0.064322,44.068726,-0.573748,-14.393826,4.63583E+18,0.256518,0.703579,0.161329,-0.642765,-10.159708,-0.705652,-0.768681,0.119222,0.00565,0.181793,40.59752,-5.199132,21.489014,4.63583E+18,0.633064,-0.13242,0.748316,0.14737,0
-8.920587,0.522,3.629976,-0.162349,0.050941,-0.073565,33.170753,-19.396212,-26.526474,4.63583E+18,0.294093,-0.497669,0.210712,0.788312,-9.754969,2.501209,-0.604921,-0.055663,0.049974,-0.056846,44.078263,-0.583285,-14.317976,4.63583E+18,0.256528,0.703616,0.16172,-0.642623,-10.153028,-0.77851,-0.732444,0.100513,0.009062,0.174041,40.539556,-5.352371,21.261381,4.63583E+18,0.63302,-0.131682,0.748462,0.147478,0
-8.911405,0.377077,3.858785,-0.140239,0.089961,-0.068106,33.007465,-19.336527,-26.478072,4.63583E+18,0.293927,-0.498233,0.210157,0.788165,-9.561067,2.605681,-0.557453,-0.060427,0.066707,-0.051037,44.163715,-0.667374,-14.425172,4.63583E+18,0.256555,0.703696,0.162124,-0.642422,-10.07941,-0.774222,-0.704124,0.081322,0.006926,0.167424,40.771477,-5.275986,21.201871,4.63583E+18,0.632976,-0.131013,0.748587,0.147629,0
-8.941866,0.233624,4.023737,-0.080995,0.104404,-0.04743,33.001089,-19.28322,-26.290383,4.63583E+18,0.293804,-0.498754,0.209858,0.787962,-9.481064,2.726225,-0.508566,-0.09282,0.07952,-0.058753,44.22055,-0.70519,-14.567406,4.63583E+18,0.256649,0.703771,0.162652,-0.64217,-9.960103,-0.667881,-0.609991,0.066126,0.005341,0.167457,40.90587,-5.253468,21.293617,4.63583E+18,0.632928,-0.130382,0.748699,0.147828,0
-8.975462,0.167883,4.065065,-0.020499,0.092158,-0.018731,33.033234,-19.197778,-26.282414,4.63583E+18,0.293723,-0.499135,0.209802,0.787766,-9.463549,2.541709,-0.347027,-0.110863,0.082718,-0.069085,44.059168,-0.470547,-14.384256,4.63583E+18,0.256765,0.703827,0.163261,-0.641907,-9.785302,-0.660333,-0.576894,0.057162,0.005616,0.171487,40.75624,-5.41216,21.400334,4.63583E+18,0.632872,-0.129764,0.748807,0.148065,0
-8.961809,0.16631,3.950865,0.011325,0.062664,-0.001482,33.078912,-19.173236,-26.440975,4.63583E+18,0.293676,-0.499365,0.20985,0.787624,-9.569158,2.327276,-0.088102,-0.123772,0.077377,-0.084391,43.991465,-0.337792,-14.221624,4.63583E+18,0.256882,0.703844,0.163943,-0.641667,-9.566712,-0.800519,-0.592246,0.063977,0.007785,0.180097,40.660463,-5.529953,21.494839,4.63583E+18,0.632807,-0.129102,0.748929,0.148303,0
-8.856677,0.148066,3.83628,0.018825,0.049537,0.000804,33.060803,-19.276792,-26.445969,4.63583E+18,0.29365,-0.499541,0.209912,0.787506,-9.44572,1.982902,-0.023129,-0.100132,0.071081,-0.093168,44.066075,-0.393288,-14.221624,4.63583E+18,0.256911,0.703864,0.164582,-0.641471,-9.491443,-0.862833,-0.613515,0.084272,0.013126,0.194776,40.723896,-5.489065,21.533112,4.63583E+18,0.632727,-0.128343,0.749085,0.148513,0
-8.710185,0.080992,3.801097,0.017228,0.071117,-0.005995,33.033234,-19.283238,-26.351324,4.63583E+18,0.293623,-0.499795,0.209981,0.787336,-9.321001,1.863843,-0.115322,-0.05435,0.05839,-0.094707,44.132424,-0.309209,-14.210713,4.63583E+18,0.25681,0.703897,0.165088,-0.641345,-9.500133,-0.75297,-0.616288,0.101264,0.01709,0.207836,40.683013,-5.393271,21.46376,4.63583E+18,0.632636,-0.1275,0.749269,0.148701,0
-8.578925,-0.01207,3.766053,0.019353,0.113025,-0.019605,33.086521,-19.197788,-26.319162,4.63583E+18,0.293608,-0.500196,0.210081,0.78706,-9.269443,2.136363,-0.173699,-0.045459,0.056498,-0.092696,44.066066,-0.261878,-14.123965,4.63583E+18,0.25669,0.703936,0.165563,-0.641228,-9.450939,-0.649401,-0.601307,0.109015,0.017916,0.215491,40.587208,-5.516441,21.472822,4.63583E+18,0.632541,-0.126614,0.749463,0.148885,0
-8.51014,-0.071665,3.770508,0.038014,0.150295,-0.027634,33.111073,-19.119952,-26.380057,4.63583E+18,0.293626,-0.500704,0.21027,0.78668,-9.216655,2.231227,-0.299796,-0.051277,0.063134,-0.099099,44.141972,-0.393298,-14.134875,4.63583E+18,0.256565,0.703982,0.16608,-0.641095,-9.362343,-0.54823,-0.619801,0.118661,0.02112,0.217724,40.669516,-5.68865,21.447672,4.63583E+18,0.632438,-0.125699,0.749671,0.149044,0
-8.465909,0.066767,3.799517,0.065382,0.169018,-0.02884,33.213031,-19.191322,-26.355934,4.63583E+18,0.293688,-0.50124,0.21057,0.786236,-9.322423,2.189104,-0.359464,-0.060055,0.055067,-0.096129,44.131072,-0.28197,-14.232524,4.63583E+18,0.256479,0.703998,0.166602,-0.640975,-9.274117,-0.417463,-0.67214,0.129003,0.02515,0.227548,40.701893,-5.666646,21.328013,4.63583E+18,0.632322,-0.124729,0.749901,0.149195,0
-8.439913,0.211969,3.778268,0.086493,0.179699,-0.026842,33.376316,-19.304348,-26.197395,4.63583E+18,0.293778,-0.501783,0.210956,0.785752,-9.383406,2.019618,-0.401482,-0.060641,0.051986,-0.086635,44.034776,0.008173,-14.319284,4.63583E+18,0.256422,0.704012,0.167094,-0.640854,-9.235082,-0.350872,-0.772932,0.132482,0.030183,0.231545,40.641589,-5.644048,21.24233,4.63583E+18,0.63219,-0.12374,0.750148,0.149342,0
-8.442926,0.305031,3.729439,0.084938,0.17906,-0.03629,33.443687,-19.382189,-26.06296,4.63583E+18,0.293896,-0.502333,0.211316,0.785259,-9.354954,1.943617,-0.387915,-0.04794,0.057204,-0.077614,43.968385,0.056913,-14.308397,4.63583E+18,0.256349,0.70406,0.167532,-0.640717,-9.246928,-0.332381,-0.85766,0.13593,0.032351,0.233924,40.631802,-5.802739,21.412506,4.63583E+18,0.63205,-0.122736,0.750402,0.149485,0
-8.35622,0.318982,3.688225,0.064799,0.156938,-0.063364,33.448284,-19.36412,-26.026184,4.63583E+18,0.29408,-0.50286,0.211527,0.784796,-9.398381,1.749659,-0.3635,-0.02443,0.048882,-0.064677,44.063364,-0.073244,-14.221624,4.63583E+18,0.256247,0.704119,0.16786,-0.640607,-9.241359,-0.27378,-0.866726,0.135624,0.035218,0.2331,40.558566,-5.942574,21.510153,4.63583E+18,0.631901,-0.121738,0.750662,0.149625,0
-8.240174,0.054139,3.674428,0.06686,0.144602,-0.084492,33.395033,-19.32892,-25.965324,4.63583E+18,0.294348,-0.503362,0.211685,0.784331,-9.485152,1.593767,-0.343168,0.022561,0.009603,-0.050553,44.215214,-0.065079,-14.210737,4.63583E+18,0.256073,0.704133,0.167979,-0.640629,-9.318443,-0.167412,-0.857306,0.126681,0.029297,0.229346,40.501026,-5.984064,21.507335,4.63583E+18,0.631768,-0.120772,0.750898,0.149786,0
-8.271834,-0.234577,3.697248,0.107646,0.146197,-0.085065,33.317195,-19.32432,-25.814426,4.63583E+18,0.294701,-0.503819,0.211978,0.783826,-9.456579,1.686096,-0.367621,0.047706,-0.013522,-0.034769,44.20569,0,-14.11308,4.63583E+18,0.255883,0.704124,0.16796,-0.64072,-9.470872,-0.122074,-0.814399,0.104523,0.020538,0.221806,40.532789,-5.901745,21.289711,4.63583E+18,0.631655,-0.119882,0.751093,0.150001,0
-8.533842,-0.271751,3.650195,0.15214,0.139417,-0.06361,33.388478,-19.377568,-25.684558,4.63583E+18,0.295084,-0.50418,0.212452,0.783321,-9.235588,2.008821,-0.488312,0.034891,0.007954,-0.021005,44.139271,-0.017656,-14.026306,4.63583E+18,0.255753,0.704168,0.167958,-0.640725,-9.605149,-0.134636,-0.769066,0.085084,0.016785,0.206822,40.62867,-5.847346,21.314835,4.63583E+18,0.631553,-0.119086,0.751257,0.150238,0
-8.895453,-0.069197,3.636211,0.178611,0.13259,-0.030375,33.600415,-19.409771,-25.647755,4.63583E+18,0.296373,-0.504197,0.213689,0.782487,-9.310224,2.156632,-0.565566,0.022072,0.021484,-0.008543,44.205699,-0.158696,-14.015432,4.63583E+18,0.255684,0.704243,0.167967,-0.640667,-9.726861,-0.126952,-0.772206,0.069551,0.013092,0.188116,40.530668,-5.906995,21.437601,4.63583E+18,0.631467,-0.118387,0.751393,0.150475,0
-9.177993,0.188742,3.627196,0.185192,0.110751,-0.001783,33.692432,-19.356529,-25.647755,4.63583E+18,0.296787,-0.504329,0.214456,0.782035,-9.479735,2.125446,-0.393338,0.010563,0.031927,0,44.120258,-0.14919,-13.928647,4.63583E+18,0.255664,0.704339,0.167994,-0.640562,-9.818592,0.056509,-0.753019,0.044586,0.014435,0.166997,40.43092,-6.120099,21.560713,4.63583E+18,0.631377,-0.117822,0.751505,0.150736,0
-9.29584,0.394847,3.613391,0.166157,0.06899,0.024779,33.593567,-19.377555,-25.708595,4.63583E+18,0.296972,-0.504363,0.215076,0.781773,-9.544846,2.13358,-0.31196,0.011752,0.039521,-0.000119,44.063323,-0.073244,-13.939511,4.63583E+18,0.255636,0.704457,0.168026,-0.640435,-9.915899,0.226011,-0.649434,0.007782,0.014374,0.144047,40.468588,-6.197176,21.494097,4.63583E+18,0.631284,-0.117426,0.751582,0.151053,0
-9.344667,0.501904,3.6286,0.1276,0.041956,0.04523,33.579363,-19.409771,-25.745413,4.63583E+18,0.297033,-0.504337,0.215579,0.781627,-9.635715,2.132251,-0.250909,0.030504,0.039046,-0.0019,44.242374,-0.08275,-14.03717,4.63583E+18,0.255547,0.704593,0.168012,-0.640325,-9.920448,0.209631,-0.582817,-0.022612,0.010986,0.121863,40.536615,-6.038494,21.510133,4.63583E+18,0.6312,-0.117176,0.75162,0.151405,0
-9.431511,0.593351,3.622599,0.080483,0.030329,0.050606,33.561359,-19.462997,-25.676981,4.63583E+18,0.296988,-0.504328,0.215927,0.781554,-9.657401,2.299065,-0.124803,0.0432,0.033467,-0.009377,44.449857,-0.149191,-14.123965,4.63583E+18,0.255406,0.704722,0.16798,-0.640248,-9.768028,0.109867,-0.561196,-0.046051,0.01468,0.098943,40.37792,-5.942556,21.582689,4.63583E+18,0.631109,-0.117059,0.751642,0.151767,0
-9.419724,0.77164,3.590582,0.028024,0.000093,0.038228,33.427295,-19.442002,-25.64315,4.63583E+18,0.2969,-0.504295,0.21604,0.781577,-9.570604,2.315336,-0.252287,0.040234,0.018633,-0.015666,44.364417,-0.04747,-14.113113,4.63583E+18,0.255267,0.704803,0.167959,-0.640219,-9.649438,0.131829,-0.48413,-0.061493,0.012513,0.081883,40.28198,-6.04683,21.535626,4.63583E+18,0.631027,-0.117036,0.75164,0.152135,0
-9.273447,0.831709,3.629991,-0.021795,-0.028662,0.019667,33.416055,-19.409771,-25.700976,4.63583E+18,0.296794,-0.504248,0.215916,0.781683,-9.581457,2.190551,-0.325532,0.056849,0.0108,-0.012343,44.278964,0.158696,-14.01681,4.63583E+18,0.255094,0.704884,0.167875,-0.640221,-9.623247,0.195318,-0.359949,-0.074095,0.00635,0.067175,40.386241,-6.202376,21.399578,4.63583E+18,0.630967,-0.117091,0.751606,0.152508,0
-9.173974,0.673455,3.761049,-0.050164,-0.03033,0.012153,33.5015,-19.356556,-25.740808,4.63583E+18,0.296654,-0.504237,0.215683,0.781807,-9.657414,2.262435,-0.409624,0.07477,-0.014242,-0.008071,44.19487,0.141065,-13.961198,4.63583E+18,0.254897,0.70492,0.167705,-0.640305,-9.698613,0.132589,-0.363762,-0.084569,0,0.051731,40.485347,-6.311227,21.471716,4.63583E+18,0.630932,-0.117219,0.75154,0.152877,0
-9.23918,0.532738,3.843725,-0.056612,-0.014065,0.016406,33.533737,-19.32432,-25.623773,4.63583E+18,0.296472,-0.504282,0.215457,0.781909,-9.540821,2.486249,-0.569663,0.06433,-0.014484,-0.003799,44.139241,0,-14.123965,4.63583E+18,0.254742,0.704947,0.167549,-0.640377,-9.639702,-0.077054,-0.464892,-0.068704,0.00247,0.042696,40.434056,-6.351996,21.705436,4.63583E+18,0.630903,-0.117333,0.751487,0.153171,0
-9.343056,0.462488,3.83473,-0.054616,0.001574,0.025214,33.533737,-19.377541,-25.489271,4.63583E+18,0.296721,-0.504239,0.21558,0.781809,-9.314237,2.418456,-0.626655,0.049491,0.006053,0.000119,44.213859,0.027102,-14.12532,4.63583E+18,0.254627,0.705016,0.167444,-0.640375,-9.521774,-0.117941,-0.589423,-0.043952,0.013454,0.037601,40.421181,-6.451114,21.730983,4.63583E+18,0.630854,-0.117407,0.751476,0.153369,0
-9.428501,0.393854,3.782906,-0.054738,0.015722,0.034827,33.579349,-19.409771,-25.513253,4.63583E+18,0.296592,-0.504325,0.215525,0.781817,-9.411908,2.106491,-0.541219,0.055421,0.002967,0.001542,44.204361,0.217053,-14.134818,4.63583E+18,0.2545,0.705084,0.167314,-0.640384,-9.534314,0.015675,-0.63165,-0.034788,0.02155,0.028753,40.373349,-6.337115,21.566681,4.63583E+18,0.630791,-0.117489,0.751488,0.15351,0
-9.422734,0.252212,3.638269,-0.058869,0.017373,0.044439,33.660185,-19.356567,-25.550095,4.63583E+18,0.296421,-0.504414,0.215478,0.781838,-9.397034,1.879902,-0.373021,0.083779,-0.00118,0.005696,44.207101,-0.036508,-14.113148,4.63583E+18,0.254305,0.705174,0.167093,-0.64042,-9.580008,0.001479,-0.638251,-0.04684,0.007332,0.01429,40.481405,-6.221162,21.485029,4.63583E+18,0.630775,-0.117638,0.751447,0.153657,0
-9.354094,0.137505,3.526557,-0.054234,0.025596,0.048067,33.593619,-19.271112,-25.436079,4.63583E+18,0.29624,-0.50452,0.215465,0.781842,-9.26681,2.010047,-0.340416,0.111922,-0.020291,0.008427,44.150083,-0.320136,-14.01549,4.63583E+18,0.254047,0.705245,0.166768,-0.64053,-9.572758,-0.214773,-0.730617,-0.051619,-0.007174,-0.00329,40.603324,-6.365671,21.510098,4.63583E+18,0.630814,-0.117847,0.751357,0.153782,0
-9.288457,0.102267,3.533924,-0.044883,0.02473,0.044077,33.533737,-19.390863,-25.359384,4.63583E+18,0.296094,-0.504615,0.215473,0.781834,-9.20563,2.294889,-0.436714,0.099819,-0.029195,0.007359,44.205759,-0.234693,-13.928647,4.63583E+18,0.253828,0.705278,0.166469,-0.640658,-9.510547,-0.313606,-0.957598,-0.02796,-0.004301,-0.016108,40.139502,-6.038611,21.588956,4.63583E+18,0.630864,-0.118031,0.751283,0.153793,0
-9.14384,0.105258,3.537157,-0.037668,0.005667,0.031684,33.579328,-19.589397,-25.590335,4.63583E+18,0.295883,-0.504687,0.215368,0.781896,-9.438922,2.511921,-0.512711,0.082029,-0.03039,0.006409,44.131115,-0.168151,-13.950258,4.63583E+18,0.25366,0.705289,0.166219,-0.640778,-9.697762,-0.260139,-1.223873,-0.019501,-0.007751,-0.030296,39.110776,-5.054928,21.632169,4.63583E+18,0.630942,-0.118222,0.751201,0.153731,0
-9.001704,0.109867,3.51274,-0.027269,-0.009854,0.018321,33.606979,-19.653919,-25.794003,4.63583E+18,0.295751,-0.504708,0.215249,0.781965,-9.654706,2.665368,-0.515412,0.044512,-0.014845,0.006882,44.132517,-0.225239,-14.145576,4.63583E+18,0.253593,0.705301,0.166084,-0.640825,-9.949675,-0.354336,-1.207891,-0.020295,-0.010464,-0.046535,38.719469,-4.589418,21.726688,4.63583E+18,0.631039,-0.118458,0.751104,0.153624,0
-8.907039,0.102267,3.556719,-0.012457,-0.01854,0.011226,33.462596,-19.501934,-25.656083,4.63583E+18,0.295681,-0.504689,0.215153,0.78203,-9.656003,2.499817,-0.515517,0.031931,0.004268,0.010681,44.064622,-0.055688,-14.30848,4.63583E+18,0.253559,0.705354,0.165991,-0.640804,-10.003488,-0.374978,-1.094577,-0.022761,-0.0152,-0.057764,39.343627,-5.083708,21.740108,4.63583E+18,0.631156,-0.118738,0.750986,0.153503,0
-8.874783,0.074866,3.604172,0.003563,-0.022693,0.011608,33.420627,-19.409771,-25.489313,4.63583E+18,0.295647,-0.504637,0.215105,0.78209,-9.737527,2.461914,-0.335062,0.022549,0.013644,0.010681,44.129765,0.084103,-14.201389,4.63583E+18,0.253547,0.705422,0.165933,-0.640749,-9.914601,-0.270126,-0.93903,-0.037303,-0.013092,-0.069211,40.086614,-5.838587,21.544813,4.63583E+18,0.631264,-0.119106,0.750857,0.153407,0
-8.950764,0.068635,3.582999,0.018921,-0.02217,0.020131,33.600247,-19.356585,-25.513221,4.63583E+18,0.295933,-0.504472,0.21533,0.782026,-9.604531,2.307352,-0.28077,0.026094,0.019233,0.009502,44.120329,0.065157,-14.027731,4.63583E+18,0.253518,0.705508,0.165875,-0.640681,-9.79598,-0.072629,-0.78943,-0.067782,-0.015802,-0.077234,40.522938,-6.237983,21.374548,4.63583E+18,0.631369,-0.119584,0.750696,0.153391,0
-9.01965,0.096038,3.57216,0.026562,-0.003413,0.040523,33.692432,-19.217951,-25.496911,4.63583E+18,0.295969,-0.504391,0.215528,0.78201,-9.582811,2.124022,-0.264582,0.048887,0.008911,-0.000472,44.053755,-0.008094,-13.950298,4.63583E+18,0.253402,0.705584,0.165775,-0.640669,-9.735252,-0.053177,-0.643255,-0.101661,-0.0241,-0.086026,40.539872,-6.237983,21.351967,4.63583E+18,0.631488,-0.120174,0.750487,0.153462,0
-9.025881,0.193436,3.576769,0.027772,0.026755,0.063498,33.692432,-19.312957,-25.457046,4.63583E+18,0.295907,-0.504386,0.215816,0.781958,-9.563943,2.243311,-0.158541,0.064443,-0.006284,-0.004155,44.129765,-0.073244,-14.026306,4.63583E+18,0.253241,0.705633,0.165627,-0.640717,-9.695192,-0.22317,-0.570927,-0.130476,-0.032044,-0.091066,40.449693,-6.237983,21.519138,4.63583E+18,0.631621,-0.12085,0.750235,0.153614,0
-8.952896,0.365703,3.538783,0.025113,0.039783,0.078213,33.745614,-19.614895,-25.566395,4.63583E+18,0.29578,-0.504413,0.216144,0.781898,-9.395737,2.418413,-0.372881,0.066822,-0.012589,-0.003558,44.139197,-0.082678,-14.026306,4.63583E+18,0.253079,0.705668,0.165465,-0.640784,-9.622258,-0.284201,-0.58878,-0.150635,-0.032044,-0.089124,40.544825,-6.21609,21.557668,4.63583E+18,0.631742,-0.121572,0.749972,0.153832,0
-8.850634,0.51543,3.546117,0.025493,0.035272,0.0869,33.671536,-19.633023,-25.635548,4.63583E+18,0.295494,-0.504454,0.216398,0.781909,-9.274843,2.434659,-0.543766,0.061489,-0.001547,-0.005702,44.224638,-0.176198,-14.026306,4.63583E+18,0.25292,0.705726,0.165335,-0.640818,-9.591892,-0.407791,-0.567796,-0.148066,-0.029581,-0.078169,40.662861,-6.152531,21.485029,4.63583E+18,0.63185,-0.122254,0.749722,0.15407,0
-8.783366,0.569135,3.610131,0.034014,0.038025,0.091718,33.561412,-19.469735,-25.582383,4.63583E+18,0.295208,-0.504489,0.216694,0.781913,-9.362988,2.459255,-0.701207,0.048899,0.002262,0.000942,44.308745,-0.299891,-14.026306,4.63583E+18,0.252813,0.705785,0.165223,-0.640824,-9.598448,-0.662931,-0.585955,-0.122626,-0.0186,-0.065872,40.64097,-6.152531,21.485029,4.63583E+18,0.631928,-0.122838,0.749522,0.154255,0
-8.795293,0.581342,3.652995,0.043769,0.036342,0.088277,33.533737,-19.455336,-25.489341,4.63583E+18,0.294955,-0.504509,0.217012,0.781907,-9.470161,2.291044,-0.728496,0.048412,-0.005812,0.009016,44.356411,-0.141195,-14.037076,4.63583E+18,0.252734,0.705827,0.16508,-0.640845,-9.662604,-0.707142,-0.58283,-0.090364,-0.005289,-0.049526,40.558653,-6.152531,21.463149,4.63583E+18,0.63197,-0.123294,0.749387,0.154375,0
-8.798559,0.585955,3.685001,0.046999,0.027133,0.073492,33.480583,-19.589323,-25.50559,4.63583E+18,0.294765,-0.504509,0.217299,0.781899,-9.551574,2.156672,-0.583355,0.062643,-0.012322,0.013053,44.205791,-0.0175,-14.123965,4.63583E+18,0.252629,0.70587,0.16488,-0.640891,-9.717093,-0.585662,-0.564373,-0.064482,0.000795,-0.026849,40.48229,-6.174407,21.399578,4.63583E+18,0.631991,-0.123617,0.749296,0.154472,0
-8.781737,0.547991,3.820328,0.054307,0.03878,0.054266,33.402729,-19.653919,-25.537888,4.63583E+18,0.294642,-0.504555,0.217584,0.781836,-9.581571,2.124088,-0.454468,0.087688,-0.034887,0.01566,44.148592,-0.16811,-14.113207,4.63583E+18,0.252473,0.70588,0.164582,-0.641017,-9.732722,-0.605598,-0.546503,-0.04481,0.002462,-0.007647,40.403083,-6.297374,21.424584,4.63583E+18,0.632005,-0.12383,0.749231,0.154558,0
-8.784716,0.464176,4.000461,0.066056,0.074642,0.026403,33.420597,-19.60077,-25.477144,4.63583E+18,0.294602,-0.504729,0.217893,0.781653,-9.462187,2.134847,-0.383809,0.107394,-0.042002,0.021245,44.308736,-0.234734,-14.026306,4.63583E+18,0.252278,0.705897,0.164207,-0.641172,-9.796878,-0.765942,-0.576873,-0.040641,0.010707,0.007827,40.398296,-6.469924,21.497236,4.63583E+18,0.631985,-0.123991,0.749199,0.154669,0
-8.766555,0.3893,4.087841,0.072491,0.108064,-0.006707,33.501428,-19.568468,-25.379493,4.63583E+18,0.294653,-0.505033,0.218194,0.781353,-9.368563,2.239228,-0.425914,0.119053,-0.052937,0.020412,44.337607,-0.158696,-14.015549,4.63583E+18,0.252055,0.705895,0.163791,-0.641368,-9.866998,-0.722487,-0.58908,-0.0511,0.011425,0.02226,40.550745,-6.407429,21.444116,4.63583E+18,0.631948,-0.124135,0.749169,0.15485,0
-8.737524,0.221969,4.185202,0.089646,0.151781,-0.036499,33.586884,-19.667167,-25.342569,4.63583E+18,0.294797,-0.505486,0.218542,0.780909,-9.304847,2.381787,-0.420424,0.104101,-0.047372,0.021598,44.036252,-0.158696,-13.939393,4.63583E+18,0.251875,0.705894,0.163418,-0.641535,-9.890544,-0.628826,-0.613783,-0.065754,0.003726,0.038008,40.63191,-6.2289,21.267843,4.63583E+18,0.631918,-0.124262,0.749117,0.15512,0
-8.743477,-0.055516,4.304296,0.135874,0.197879,-0.062277,33.566046,-19.727163,-25.403304,4.63583E+18,0.29508,-0.506054,0.219043,0.780293,-9.240875,2.364468,-0.458513,0.090558,-0.03276,0.022795,44.007301,-0.158696,-14.026306,4.63583E+18,0.251728,0.705918,0.163093,-0.64165,-9.805104,-0.703192,-0.699788,-0.068512,0.004868,0.052686,40.539942,-6.278572,21.254215,4.63583E+18,0.631873,-0.124351,0.749074,0.155437,0
-8.752708,-0.254409,4.414158,0.219861,0.204994,-0.082858,33.586877,-19.628476,-25.387088,4.63583E+18,0.2956,-0.506561,0.219782,0.779559,-9.360154,2.117491,-0.39759,0.091359,-0.030848,0.016738,44.299324,-0.149294,-14.026306,4.63583E+18,0.251561,0.705943,0.162785,-0.641765,-9.766494,-0.922944,-0.839759,-0.047395,0.013091,0.066027,40.41218,-6.415419,21.44955,4.63583E+18,0.631805,-0.124349,0.749074,0.15572,0
-8.722343,-0.305185,4.478476,0.315213,0.197751,-0.095703,33.717877,-19.614016,-25.172583,4.63583E+18,0.296369,-0.506937,0.220794,0.778736,-9.53935,1.984178,-0.253672,0.116629,-0.038923,0.014121,44.271015,-0.082638,-14.037041,4.63583E+18,0.251318,0.705972,0.162409,-0.641923,-9.88601,-1.073967,-0.890856,-0.02499,0.013339,0.078869,40.398272,-6.469924,21.591774,4.63583E+18,0.631739,-0.124247,0.749095,0.155965,0
-8.681107,-0.320366,4.431601,0.397508,0.195211,-0.108636,33.785476,-19.793521,-24.993485,4.63583E+18,0.297355,-0.507214,0.222043,0.777824,-9.577444,2.144347,-0.24536,0.147018,-0.042608,0.016609,44.139158,-0.168089,-14.1347,4.63583E+18,0.250995,0.706024,0.161941,-0.642111,-10.019156,-1.009533,-0.842031,-0.006584,0.01175,0.095709,40.516373,-6.469924,21.560836,4.63583E+18,0.631677,-0.124044,0.749133,0.156199,0
-8.712795,-0.276471,4.341536,0.470687,0.198388,-0.125582,33.790092,-19.88586,-24.951933,4.63583E+18,0.298547,-0.507424,0.223496,0.776814,-9.533982,2.208198,-0.366089,0.172066,-0.04154,0.023006,44.207165,-0.244148,-14.232357,4.63583E+18,0.250615,0.70611,0.161387,-0.642305,-9.978853,-0.912154,-0.79008,0.011623,0.014208,0.115482,40.516373,-6.510507,21.497236,4.63583E+18,0.631603,-0.123733,0.749199,0.156426,0
-8.7405,-0.115135,4.233324,0.535607,0.207452,-0.141083,33.888749,-19.787203,-24.838098,4.63583E+18,0.299916,-0.507595,0.225136,0.775701,-9.542016,2.200011,-0.467898,0.192005,-0.041058,0.038074,44.123226,-0.244148,-14.329996,4.63583E+18,0.250216,0.706227,0.160736,-0.642494,-9.859904,-0.863604,-0.722802,0.036463,0.023548,0.136025,40.556951,-6.647349,21.497236,4.63583E+18,0.6315,-0.1233,0.749315,0.156627,0
-8.694954,-0.066987,4.103637,0.597166,0.2188,-0.160949,33.948788,-19.77271,-24.708092,4.63583E+18,0.301467,-0.50774,0.226947,0.774476,-9.620616,2.203002,-0.499165,0.211556,-0.049197,0.053862,43.972404,-0.261555,-14.415605,4.63583E+18,0.249807,0.706353,0.159978,-0.642704,-9.759408,-0.817074,-0.652959,0.059639,0.030727,0.154728,40.675068,-6.6613,21.472274,4.63583E+18,0.631373,-0.122752,0.749475,0.156801,0
-8.765939,-0.024724,3.931402,0.648491,0.227892,-0.17847,33.903243,-19.952227,-24.663571,4.63583E+18,0.303172,-0.507863,0.228895,0.773155,-9.730639,2.053521,-0.496329,0.249202,-0.085789,0.068099,44.000677,-0.421588,-14.394025,4.63583E+18,0.249349,0.70643,0.159039,-0.643031,-9.701765,-0.695548,-0.631665,0.0773,0.033386,0.175842,40.572097,-6.546288,21.402698,4.63583E+18,0.631234,-0.122092,0.749665,0.156972,0
-8.939815,0.186796,3.682951,0.684054,0.203488,-0.184386,34.027362,-20.097692,-24.42364,4.63583E+18,0.304992,-0.507863,0.230913,0.771838,-9.716095,2.075258,-0.558866,0.270578,-0.094978,0.086358,44.124584,-0.573748,-14.285677,4.63583E+18,0.248883,0.706515,0.157979,-0.643379,-9.658359,-0.66544,-0.631937,0.100822,0.035273,0.198522,40.253504,-6.595935,21.436745,4.63583E+18,0.631086,-0.121301,0.749885,0.157128,0
-9.10016,0.444805,3.462899,0.710642,0.157035,-0.181468,34.324659,-20.122416,-24.045193,4.63583E+18,0.306901,-0.507673,0.232961,0.77059,-9.520267,2.068571,-0.522413,0.283746,-0.07679,0.113311,43.983273,-0.573748,-14.111758,4.63583E+18,0.248438,0.706679,0.156823,-0.643654,-9.524089,-0.658664,-0.677913,0.122884,0.038726,0.218269,40.220811,-6.751498,21.484494,4.63583E+18,0.630924,-0.120393,0.750138,0.157267,0
-9.231448,0.696506,3.317763,0.72458,0.110304,-0.176128,34.502419,-20.224054,-23.83379,4.63583E+18,0.309729,-0.50704,0.235574,0.769079,-9.607226,2.022245,-0.393483,0.298013,-0.076424,0.13302,44.001996,-0.583109,-14.122457,4.63583E+18,0.248003,0.706871,0.155571,-0.643914,-9.452185,-0.542291,-0.760514,0.126244,0.03652,0.233971,40.284431,-6.86056,21.411785,4.63583E+18,0.63076,-0.119428,0.750395,0.157438,0
-9.368698,0.9225,3.233637,0.710807,0.075663,-0.165475,34.436084,-20.33424,-23.792229,4.63583E+18,0.311659,-0.506561,0.237548,0.768008,-9.604554,2.114187,-0.317392,0.295792,-0.082348,0.147038,44.154179,-0.676568,-14.209417,4.63583E+18,0.247616,0.707052,0.154277,-0.644175,-9.555812,-0.386985,-0.86414,0.114495,0.027226,0.24006,40.306261,-6.901101,21.436733,4.63583E+18,0.630614,-0.118467,0.750621,0.157667,0
-9.507604,1.145215,3.149828,0.670156,0.040585,-0.157566,34.277379,-20.468207,-23.723919,4.63583E+18,0.313511,-0.50601,0.23936,0.767054,-9.560099,2.366351,-0.316056,0.272341,-0.089172,0.153213,44.146162,-0.827248,-14.229458,4.63583E+18,0.247318,0.707194,0.153021,-0.644434,-9.638138,-0.295833,-0.949584,0.103292,0.023999,0.238447,40.413528,-7.037961,21.556206,4.63583E+18,0.630474,-0.11754,0.75083,0.157928,0
-9.558396,1.346782,3.120477,0.613056,0.009699,-0.153957,34.270474,-20.730166,-23.492638,4.63583E+18,0.315259,-0.505428,0.240956,0.766221,-9.355248,2.65435,-0.309193,0.222155,-0.062033,0.157368,44.071581,-0.912699,-14.413902,4.63583E+18,0.247162,0.707359,0.151914,-0.644575,-9.702031,-0.243624,-1.035036,0.093133,0.01759,0.234424,40.518965,-7.092501,21.692556,4.63583E+18,0.630351,-0.116647,0.751012,0.158213,0
-9.565985,1.499531,3.087153,0.550442,0,-0.148097,34.355923,-20.850245,-23.202644,4.63583E+18,0.316864,-0.504888,0.24235,0.765475,-9.202851,2.672479,-0.340473,0.164347,-0.017241,0.159872,43.99548,-0.9888,-14.566494,4.63583E+18,0.247154,0.707585,0.151002,-0.644544,-9.719951,-0.133504,-1.079966,0.080838,0.012272,0.226925,40.374301,-7.095618,21.648923,4.63583E+18,0.630243,-0.115806,0.751168,0.158519,0
-9.593369,1.565517,3.05647,0.480782,-0.001992,-0.138628,34.441373,-20.797126,-22.98258,4.63583E+18,0.318575,-0.504332,0.243724,0.764695,-9.308518,2.444542,-0.309581,0.117297,-0.000251,0.156434,44.004822,-0.998142,-14.371175,4.63583E+18,0.247264,0.707806,0.150243,-0.644436,-9.683334,-0.008841,-1.009848,0.069408,0.009864,0.215972,40.116139,-7.104709,21.521652,4.63583E+18,0.630144,-0.115027,0.751305,0.158834,0
-9.592053,1.506476,3.044264,0.419703,-0.007187,-0.122638,34.519226,-20.764793,-23.034681,4.63583E+18,0.319956,-0.503871,0.244827,0.764069,-9.456734,2.263905,-0.134479,0.096752,0.006993,0.151093,44.071592,-1.074252,-14.218561,4.63583E+18,0.247417,0.708021,0.149563,-0.644299,-9.637361,0.052202,-0.942573,0.068406,0.007204,0.203676,40.074302,-7.086013,21.543464,4.63583E+18,0.630061,-0.114287,0.751427,0.159119,0
-9.537293,1.487648,3.04723,0.377582,-0.008286,-0.094782,34.501432,-20.817898,-23.22241,4.63583E+18,0.321032,-0.503473,0.245768,0.763578,-9.412117,2.218872,-0.040622,0.082867,0.012916,0.146103,44.004811,-1.074252,-14.403193,4.63583E+18,0.247593,0.708235,0.14894,-0.644141,-9.564118,0.113237,-0.86024,0.077224,0.007499,0.189246,40.137943,-6.990962,21.607103,4.63583E+18,0.629991,-0.113567,0.751549,0.159337,0
-9.509567,1.941554,3.02909,0.31976,-0.029384,-0.042416,34.420598,-20.850245,-23.291725,4.63583E+18,0.321842,-0.503031,0.246607,0.763258,-9.322248,2.298991,-0.086575,0.070964,0.023714,0.144667,44.090264,-1.091582,-14.490188,4.63583E+18,0.247793,0.708464,0.148365,-0.643945,-9.506453,0.171154,-0.774544,0.087109,0.009591,0.172407,40.137943,-6.891455,21.582188,4.63583E+18,0.62993,-0.112874,0.751674,0.159478,0
-9.335088,2.186782,2.863508,0.222976,-0.057993,0.001755,34.342739,-21.001966,-23.22345,4.63583E+18,0.322337,-0.502582,0.247192,0.763156,-9.400823,2.328948,-0.205982,0.076287,0.034064,0.148239,44.158388,-1.260939,-14.478191,4.63583E+18,0.247981,0.708728,0.147776,-0.643717,-9.49736,0.241785,-0.671157,0.09888,0.005046,0.152636,40.178431,-6.986501,21.487644,4.63583E+18,0.629902,-0.11221,0.751786,0.159533,0
-9.26672,1.186922,2.763496,0.15198,-0.036765,0.005258,34.368103,-21.246085,-23.113598,4.63583E+18,0.32265,-0.502291,0.247587,0.763087,-9.513562,2.309863,-0.298304,0.091569,0.031598,0.145987,44.08515,-1.506615,-14.369668,4.63583E+18,0.24812,0.709,0.147149,-0.643508,-9.528501,0.341807,-0.631671,0.112744,-0.000567,0.130728,40.293524,-7.123393,21.39908,4.63583E+18,0.629912,-0.111576,0.751881,0.159491,0
-9.320173,0.297728,2.690609,0.117331,-0.024132,0.003318,34.445971,-21.239936,-23.079578,4.63583E+18,0.322883,-0.502089,0.247885,0.763024,-9.552847,2.339604,-0.35246,0.117341,0.018061,0.143481,44.018566,-1.64001,-14.282661,4.63583E+18,0.248183,0.70926,0.146447,-0.643357,-9.653677,0.338694,-0.622578,0.122607,-0.005068,0.106959,40.225284,-7.177953,21.351238,4.63583E+18,0.629956,-0.110989,0.751959,0.159359,0
-9.149072,0.281331,2.679341,0.112787,-0.02379,0.004677,34.473705,-21.028171,-23.152453,4.63583E+18,0.323102,-0.501893,0.248172,0.762967,-9.600569,2.424831,-0.46077,0.1348,0.009827,0.147152,44.01701,-1.573424,-14.314617,4.63583E+18,0.24821,0.709518,0.145679,-0.643237,-9.775506,0.348278,-0.631917,0.129812,-0.004,0.081574,40.033812,-7.199744,21.448896,4.63583E+18,0.630016,-0.110464,0.752032,0.159137,0
-9.12448,0.484598,2.781254,0.127045,-0.004111,-0.003027,34.420623,-20.829529,-23.194067,4.63583E+18,0.323355,-0.501748,0.248515,0.762844,-9.548849,2.583979,-0.642765,0.146897,0.019713,0.153581,44.09447,-1.571858,-14.58628,4.63583E+18,0.248212,0.709818,0.144869,-0.643088,-9.848505,0.387281,-0.662312,0.135404,-0.003749,0.054076,40.041497,-7.263405,21.543441,4.63583E+18,0.630097,-0.11001,0.752097,0.158826,0
-9.308896,0.685846,2.794197,0.133518,-0.00819,-0.003495,34.539937,-20.916474,-23.194067,4.63583E+18,0.323627,-0.501581,0.248872,0.762722,-9.58522,2.535403,-0.690756,0.162896,0.011931,0.150514,44.104018,-1.640027,-14.64141,4.63583E+18,0.248163,0.710112,0.144018,-0.642974,-9.888236,0.316915,-0.67763,0.138063,-0.004796,0.027102,40.223392,-7.222955,21.607103,4.63583E+18,0.6302,-0.109632,0.752148,0.158436,0
-9.432992,0.920729,2.695249,0.111622,-0.036333,0.007558,34.632404,-21.062023,-23.125819,4.63583E+18,0.323848,-0.501343,0.249144,0.762696,-9.683626,2.428775,-0.554648,0.187464,-0.014329,0.140182,44.085168,-1.582727,-14.369692,4.63583E+18,0.248029,0.710354,0.143103,-0.642962,-9.899729,0.244148,-0.692711,0.138043,-0.004021,-0.000125,40.220281,-7.082931,21.560436,4.63583E+18,0.630318,-0.109339,0.752189,0.157973,0
-9.445573,1.035962,2.626259,0.070404,-0.058019,0.024097,34.480753,-20.942741,-23.091782,4.63583E+18,0.323951,-0.501075,0.249291,0.76278,-9.471035,2.672425,-0.603478,0.208427,-0.023448,0.133518,44.019897,-1.675902,-14.293291,4.63583E+18,0.247821,0.710589,0.142143,-0.642996,-9.839399,0.272135,-0.680505,0.132662,-0.008041,-0.025213,40.211185,-7.041025,21.44576,4.63583E+18,0.630464,-0.109137,0.752204,0.157463,0
-9.413578,1.01951,2.627548,0.025545,-0.070059,0.040927,34.342765,-20.850245,-23.035753,4.63583E+18,0.32392,-0.500811,0.249315,0.762959,-9.148909,3.09329,-0.684196,0.19558,0.003204,0.131193,44.029198,-1.904355,-14.380322,4.63583E+18,0.247628,0.71088,0.141252,-0.642945,-9.882007,0.357123,-0.674516,0.118465,-0.013906,-0.050614,40.214294,-7.104709,21.534314,4.63583E+18,0.630637,-0.109048,0.752181,0.156934,0
-9.430021,1.023748,2.598898,-0.023292,-0.080335,0.055621,34.413552,-21.047329,-22.869884,4.63583E+18,0.324272,-0.500395,0.249542,0.763009,-9.1078,3.340591,-0.984815,0.146004,0.003786,0.109482,44.105347,-1.913654,-14.380322,4.63583E+18,0.247523,0.711108,0.140558,-0.642885,-9.900204,0.34757,-0.67118,0.097102,-0.017362,-0.081046,40.201633,-7.064297,21.607103,4.63583E+18,0.630832,-0.109108,0.752122,0.156394,0
-9.486433,0.969404,2.522698,-0.079871,-0.098313,0.068181,34.428223,-21.122154,-22.851867,4.63583E+18,0.324088,-0.500114,0.249331,0.763339,-9.215264,3.391282,-0.929639,0.084528,0.010865,0.085616,44.097392,-1.997761,-14.378996,4.63583E+18,0.247533,0.711277,0.140107,-0.642793,-9.903312,0.265003,-0.637893,0.076012,-0.018974,-0.108526,40.17835,-6.946012,21.607103,4.63583E+18,0.63104,-0.109308,0.752032,0.155847,0
-9.555054,1.155196,2.505472,-0.140353,-0.112785,0.099168,34.392882,-20.942771,-22.957111,4.63583E+18,0.323693,-0.499837,0.248971,0.763806,-9.220291,3.254349,-0.723439,0.028704,0.03072,0.066529,44.022824,-2.063051,-14.37872,4.63583E+18,0.247645,0.711431,0.139882,-0.642628,-9.912412,0.167575,-0.656314,0.056806,-0.022722,-0.131751,40.333924,-6.924262,21.603996,4.63583E+18,0.631266,-0.109629,0.751908,0.155302,0
-9.597972,1.839759,2.552626,-0.241029,-0.129693,0.139901,34.388256,-20.850245,-23.180672,4.63583E+18,0.322973,-0.4996,0.248352,0.764467,-9.366779,3.091678,-0.526798,-0.009101,0.037269,0.040406,43.946651,-2.072331,-14.455168,4.63583E+18,0.247795,0.711548,0.139843,-0.642449,-9.890662,0.118967,-0.683615,0.040512,-0.027247,-0.152823,40.424484,-6.86056,21.594896,4.63583E+18,0.631513,-0.110055,0.751752,0.154754,0
-9.508691,1.665082,2.697036,-0.336815,-0.135801,0.150239,34.236663,-21.054894,-23.458477,4.63583E+18,0.321906,-0.4995,0.247361,0.765303,-9.493387,2.906975,-0.34578,-0.023474,0.035042,0.019972,43.946651,-2.157773,-14.368114,4.63583E+18,0.247935,0.711632,0.1399,-0.64229,-9.811426,0.10676,-0.671187,0.025869,-0.026665,-0.170184,40.351243,-6.86056,21.619751,4.63583E+18,0.631761,-0.110576,0.751579,0.154206,0
-9.46369,1.013938,2.907514,-0.392903,-0.106068,0.154037,34.045573,-21.232902,-23.613346,4.63583E+18,0.320677,-0.499565,0.246239,0.766138,-9.45544,2.817261,-0.381078,-0.03274,0.024452,0.008198,43.955922,-2.233955,-14.357519,4.63583E+18,0.248077,0.711672,0.140006,-0.642168,-9.765923,0.069708,-0.619257,0.017849,-0.020023,-0.186982,40.296638,-6.8823,21.670816,4.63583E+18,0.631996,-0.111175,0.75141,0.153637,0
-9.450209,0.926948,2.960499,-0.438279,-0.089319,0.154107,34.083935,-21.166773,-23.653319,4.63583E+18,0.319336,-0.499742,0.244994,0.766982,-9.411908,2.790199,-0.408141,-0.038337,0.023731,0.004414,44.032104,-2.224686,-14.270454,4.63583E+18,0.248226,0.711701,0.140138,-0.642049,-9.762817,-0.015313,-0.567537,0.007692,-0.020042,-0.197626,40.274898,-6.927378,21.582258,4.63583E+18,0.63224,-0.111794,0.751235,0.153037,0
-9.428746,0.970698,2.919252,-0.483946,-0.071823,0.142395,34.144108,-21.053559,-23.657948,4.63583E+18,0.317917,-0.500045,0.243601,0.767817,-9.409262,2.736083,-0.45432,-0.038311,0.026677,-0.003436,44.022844,-2.131306,-14.261194,4.63583E+18,0.248352,0.711734,0.140296,-0.64193,-9.744401,-0.02131,-0.558648,-0.002698,-0.022159,-0.20217,40.248445,-6.792039,21.53118,4.63583E+18,0.632464,-0.112576,0.751026,0.152563,0
-9.507459,0.520305,2.943245,-0.511569,-0.03967,0.120149,34.038032,-21.074185,-23.710984,4.63583E+18,0.316478,-0.500507,0.242116,0.768579,-9.394107,2.63181,-0.468152,-0.045815,0.035943,-0.005225,43.954589,-1.989807,-14.185002,4.63583E+18,0.24849,0.711782,0.140489,-0.64178,-9.707784,-0.02462,-0.585955,-0.009921,-0.020277,-0.20751,40.376293,-6.493313,21.591793,4.63583E+18,0.632698,-0.11331,0.750828,0.152025,0
-9.490214,-0.160313,2.981551,-0.490211,-0.021401,0.09411,33.973202,-21.00054,-23.750975,4.63583E+18,0.315146,-0.501024,0.240667,0.769245,-9.44853,2.481051,-0.397554,-0.044978,0.041889,-0.004388,44.038415,-1.997743,-14.194261,4.63583E+18,0.248624,0.711848,0.140683,-0.641613,-9.68047,-0.101392,-0.58906,-0.018992,-0.017634,-0.212308,40.412294,-6.332957,21.560959,4.63583E+18,0.632923,-0.114083,0.750628,0.151499,0
-9.418229,-0.187794,3.04384,-0.450653,-0.00689,0.081732,33.973202,-20.784193,-23.823784,4.63583E+18,0.313921,-0.501545,0.239338,0.769821,-9.437959,2.392966,-0.356657,-0.045237,0.044025,-0.005456,44.172301,-2.055123,-14.271776,4.63583E+18,0.248755,0.711918,0.140883,-0.64144,-9.68047,-0.250772,-0.598163,-0.023753,-0.020041,-0.214698,40.357674,-6.396679,21.497236,4.63583E+18,0.633153,-0.114877,0.750416,0.150985,0
-9.346674,0.042073,3.098991,-0.414336,0.012594,0.07746,33.973202,-20.593071,-23.926075,4.63583E+18,0.312764,-0.502084,0.238141,0.770311,-9.346907,2.30292,-0.37843,-0.039406,0.044543,-0.006409,44.002719,-1.971307,-14.27209,4.63583E+18,0.248866,0.711996,0.141071,-0.64127,-9.664957,-0.338705,-0.62919,-0.018377,-0.020259,-0.212797,40.376291,-6.37496,21.543778,4.63583E+18,0.633385,-0.115651,0.750207,0.15046,0
-9.24608,0.097659,3.059868,-0.389951,0.010353,0.071199,34.07167,-20.532852,-24.023727,4.63583E+18,0.311679,-0.502589,0.237006,0.770772,-9.31557,2.377485,-0.383714,-0.037644,0.03161,-0.006293,43.878375,-1.828152,-14.185002,4.63583E+18,0.24898,0.71204,0.141241,-0.641139,-9.631845,-0.36373,-0.738853,-0.007713,-0.013343,-0.206949,40.43092,-6.273994,21.70517,4.63583E+18,0.633597,-0.116381,0.750025,0.149911,0
-9.060498,0.196106,3.019863,-0.380152,-0.006329,0.06041,34.131901,-20.585862,-24.000209,4.63583E+18,0.311091,-0.502906,0.236136,0.771069,-9.317217,2.468207,-0.439138,-0.030745,0.019804,-0.004879,44.029137,-1.913594,-14.185002,4.63583E+18,0.249084,0.712061,0.141375,-0.641045,-9.680673,-0.463881,-0.781072,-0.000779,-0.01175,-0.205881,40.43092,-6.183353,21.728369,4.63583E+18,0.633806,-0.11709,0.749852,0.149343,0
-8.851284,0.324506,3.068235,-0.366198,-0.002879,0.060182,34.078894,-20.618303,-23.963133,4.63583E+18,0.310227,-0.503307,0.235118,0.771466,-9.234405,2.605126,-0.552963,-0.033113,0.026761,-0.00026,44.105347,-1.989807,-14.185002,4.63583E+18,0.249203,0.712101,0.14151,-0.640925,-9.723296,-0.429767,-0.735348,0.001305,-0.013106,-0.204813,40.468135,-6.216274,21.533069,4.63583E+18,0.634018,-0.117791,0.749675,0.148773,0
-8.746837,0.631221,3.062823,-0.36751,-0.008721,0.066333,34.046448,-20.512305,-24.084275,4.63583E+18,0.309221,-0.503723,0.23402,0.771933,-9.201062,2.74271,-0.700754,-0.070899,0.042324,0.006294,44.096118,-1.999036,-14.174455,4.63583E+18,0.249443,0.712146,0.141742,-0.64073,-9.732204,-0.295486,-0.708029,-0.008886,-0.019261,-0.205373,40.577408,-6.112214,21.412181,4.63583E+18,0.634244,-0.118517,0.749475,0.148237,0
-8.690435,0.626903,2.971498,-0.378084,-0.016022,0.053123,34.091879,-20.401971,-24.226597,4.63583E+18,0.308241,-0.50414,0.23285,0.772406,-9.377923,2.706088,-0.837037,-0.093822,0.02194,0.006148,44.030445,-2.092398,-14.096572,4.63583E+18,0.249762,0.712113,0.142014,-0.640582,-9.707987,-0.204621,-0.704928,-0.026772,-0.027806,-0.209628,40.555702,-5.956624,21.485029,4.63583E+18,0.634491,-0.119297,0.749239,0.147748,0
-8.750542,0.032777,3.066062,-0.357479,-0.01006,0.044457,34.021264,-20.374157,-24.260747,4.63583E+18,0.307325,-0.504557,0.231736,0.772834,-9.387834,2.668148,-0.778978,-0.111519,0.02878,0.013395,44.116235,-2.215497,-14.183343,4.63583E+18,0.250149,0.712084,0.142319,-0.640396,-9.713993,-0.256739,-0.695822,-0.045217,-0.035808,-0.211781,40.513657,-5.865945,21.460231,4.63583E+18,0.634755,-0.120127,0.748969,0.147314,0
-8.748542,0.094838,3.081373,-0.334264,-0.039531,0.048174,33.915571,-20.472577,-24.195544,4.63583E+18,0.306474,-0.504844,0.230666,0.773304,-9.306972,2.603499,-0.640744,-0.123559,0.045584,0.017812,44.105347,-2.036685,-14.271773,4.63583E+18,0.250574,0.712089,0.142661,-0.640148,-9.701786,-0.345099,-0.708221,-0.065207,-0.043031,-0.216851,40.55571,-5.880293,21.387371,4.63583E+18,0.635033,-0.121022,0.748664,0.146933,0
-8.685803,0.446097,3.130494,-0.320378,-0.056504,0.05749,33.933176,-20.532852,-24.219018,4.63583E+18,0.305893,-0.504974,0.229805,0.773706,-9.453798,2.410836,-0.468541,-0.118857,0.042726,0.015876,44.113249,-1.800465,-14.26159,4.63583E+18,0.250982,0.71209,0.142992,-0.639914,-9.701977,-0.387537,-0.744652,-0.07694,-0.049932,-0.221937,40.470262,-5.743298,21.387371,4.63583E+18,0.635329,-0.121959,0.74833,0.146579,0
-8.735394,0.555202,3.261841,-0.306492,-0.041227,0.073214,34.006421,-20.381435,-24.384815,4.63583E+18,0.305144,-0.505158,0.228956,0.774133,-9.496043,2.266272,-0.310453,-0.101882,0.041689,0.023269,44.178593,-1.666437,-14.076807,4.63583E+18,0.251359,0.712109,0.143255,-0.639685,-9.738596,-0.372233,-0.719865,-0.084942,-0.049135,-0.226702,40.428194,-5.68865,21.387371,4.63583E+18,0.635621,-0.122932,0.74799,0.146235,0
-8.920952,0.460199,3.361196,-0.287308,-0.017878,0.092696,33.98125,-20.137305,-24.584755,4.63583E+18,0.304225,-0.50541,0.228158,0.774566,-9.482519,2.342149,-0.354015,-0.086551,0.032306,0.021593,44.170692,-1.828121,-13.989684,4.63583E+18,0.251693,0.712119,0.143472,-0.639494,-9.765923,-0.375701,-0.643894,-0.090809,-0.05049,-0.224582,40.510546,-5.68865,21.387371,4.63583E+18,0.635912,-0.123913,0.747643,0.145917,0
-9.099896,0.489039,3.386089,-0.272826,-0.007221,0.109678,33.751985,-20.044556,-24.658955,4.63583E+18,0.303272,-0.505661,0.227457,0.774982,-9.465999,2.442427,-0.363222,-0.076479,0.0246,0.02396,44.096139,-1.904355,-14.000207,4.63583E+18,0.252007,0.71212,0.143647,-0.639331,-9.756632,-0.464242,-0.628591,-0.091558,-0.055017,-0.224837,40.543522,-5.670069,21.387371,4.63583E+18,0.636216,-0.124895,0.747282,0.145603,0
-9.163121,0.420669,3.411725,-0.260564,-0.001773,0.118671,33.533005,-20.150515,-24.711933,4.63583E+18,0.302309,-0.505905,0.22682,0.775385,-9.506939,2.550033,-0.448666,-0.064089,0.015792,0.027772,44.019897,-1.895155,-14.097857,4.63583E+18,0.2523,0.712112,0.143769,-0.639197,-9.7293,-0.558804,-0.613467,-0.081403,-0.057696,-0.22243,40.520008,-5.612309,21.384274,4.63583E+18,0.636532,-0.125841,0.74692,0.145264,0
-9.182894,0.53855,3.437847,-0.249328,0.003054,0.125335,33.571071,-20.313831,-24.736839,4.63583E+18,0.301343,-0.506143,0.22624,0.775775,-9.477261,2.544401,-0.524918,-0.064089,0.015727,0.028232,44.029104,-1.82811,-14.174481,4.63583E+18,0.252594,0.712104,0.143889,-0.639062,-9.7293,-0.638062,-0.634965,-0.070195,-0.060342,-0.219496,40.641544,-5.624876,21.375164,4.63583E+18,0.636866,-0.126706,0.746566,0.144865,0
-9.335954,0.364073,3.472757,-0.236404,0.033407,0.120232,33.782745,-20.22281,-24.686795,4.63583E+18,0.300391,-0.506467,0.225729,0.776082,-9.413221,2.578782,-0.518356,-0.0634,0.030747,0.03193,44.105347,-1.904355,-14.076844,4.63583E+18,0.252887,0.712139,0.144011,-0.63888,-9.741686,-0.665035,-0.671407,-0.058957,-0.056581,-0.21736,40.607302,-5.670071,21.37826,4.63583E+18,0.637193,-0.127537,0.746229,0.144435,0
-9.51493,0.031753,3.453478,-0.216814,0.054582,0.112049,33.822569,-20.031625,-24.598411,4.63583E+18,0.299764,-0.506762,0.225471,0.776207,-9.431983,2.489405,-0.45208,-0.055041,0.028266,0.030747,44.113215,-1.904355,-14.000174,4.63583E+18,0.253154,0.712175,0.144113,-0.638711,-9.768843,-0.597988,-0.662121,-0.045915,-0.04912,-0.214682,40.461176,-5.593737,21.387371,4.63583E+18,0.637502,-0.128329,0.74592,0.143968,0
-9.434398,0.082736,3.415146,-0.196371,0.044032,0.102736,33.691722,-20.016713,-24.561295,4.63583E+18,0.298943,-0.507085,0.225066,0.776429,-9.49211,2.383068,-0.359264,-0.029897,0.021662,0.02884,44.178593,-1.895168,-14.097843,4.63583E+18,0.253344,0.712219,0.144146,-0.638578,-9.729126,-0.552254,-0.622403,-0.042997,-0.04593,-0.21041,40.462224,-5.489713,21.334748,4.63583E+18,0.637799,-0.129102,0.745623,0.1435,0
-9.343304,0.012008,3.458831,-0.160593,0.054193,0.088339,33.72976,-19.991591,-24.50833,4.63583E+18,0.298386,-0.507366,0.224859,0.77652,-9.438041,2.407481,-0.4094,-0.001828,0.006409,0.02884,44.178593,-1.818903,-14.174513,4.63583E+18,0.253461,0.712252,0.144089,-0.638508,-9.683393,-0.528013,-0.592145,-0.044877,-0.04593,-0.206408,40.688141,-5.349592,21.179844,4.63583E+18,0.638092,-0.129867,0.745326,0.143049,0
-9.331097,0.050744,3.355121,-0.117973,0.04993,0.074303,33.888456,-19.966671,-24.536376,4.63583E+18,0.297938,-0.507602,0.224734,0.776574,-9.345627,2.433206,-0.465192,0.011563,0.005721,0.028611,44.16155,-1.818903,-14.087343,4.63583E+18,0.253538,0.712298,0.143996,-0.638448,-9.656056,-0.571159,-0.61037,-0.048067,-0.046472,-0.203204,40.888951,-5.267242,21.201502,4.63583E+18,0.638382,-0.13063,0.745027,0.142616,0
-9.326456,0.270461,3.271584,-0.082021,0.0439,0.075387,33.903396,-20.069664,-24.626462,4.63583E+18,0.297567,-0.507773,0.224721,0.776609,-9.30466,2.482921,-0.473469,0.028689,-0.001604,0.026475,44.012039,-1.837238,-14.087343,4.63583E+18,0.253563,0.71234,0.143856,-0.638422,-9.65915,-0.696159,-0.613464,-0.048608,-0.046984,-0.199458,40.94363,-5.212561,21.290048,4.63583E+18,0.63867,-0.131383,0.744728,0.142195,0
-9.364281,0.232975,3.279149,-0.037657,0.056521,0.086986,33.82259,-20.182963,-24.65139,4.63583E+18,0.29712,-0.507953,0.224813,0.776636,-9.317288,2.640308,-0.462151,0.034598,-0.013235,0.024911,43.972845,-1.997665,-14.076866,4.63583E+18,0.253572,0.712357,0.143692,-0.638436,-9.674451,-0.787628,-0.628765,-0.050744,-0.043794,-0.194118,40.903414,-5.212561,21.3413,4.63583E+18,0.638944,-0.132127,0.744438,0.141793,0
-9.266453,0.491556,3.147622,-0.012201,0.018009,0.089213,33.843048,-20.162505,-24.593792,4.63583E+18,0.296907,-0.507931,0.225043,0.776665,-9.247552,2.754055,-0.568978,0.01892,0.000839,0.027657,44.216993,-2.063051,-13.988374,4.63583E+18,0.253628,0.712396,0.143577,-0.638396,-9.701956,-0.851588,-0.634622,-0.05261,-0.044065,-0.188236,40.744733,-5.194006,21.277504,4.63583E+18,0.639213,-0.132857,0.744149,0.141412,0
-9.010637,0.695822,3.064058,-0.011193,-0.017556,0.061776,33.928492,-20.077059,-24.561295,4.63583E+18,0.296787,-0.507827,0.225155,0.776746,-9.317755,2.600599,-0.719349,0.008508,-0.001985,0.027277,44.408758,-2.055194,-13.999739,4.63583E+18,0.253714,0.712417,0.143488,-0.638359,-9.7293,-0.869656,-0.598163,-0.051243,-0.044321,-0.18103,40.644794,-5.117669,21.274412,4.63583E+18,0.639479,-0.133561,0.743864,0.141046,0
-8.876506,0.60506,3.071622,-0.01348,-0.002577,0.018134,33.908052,-20.097501,-24.682312,4.63583E+18,0.296789,-0.507816,0.225185,0.776744,-9.451146,2.502518,-0.602522,0.018693,-0.010758,0.033303,44.181643,-1.989807,-14.185002,4.63583E+18,0.253792,0.712429,0.143345,-0.638347,-9.720024,-0.836127,-0.591978,-0.041615,-0.04002,-0.175703,40.718035,-5.035312,21.218915,4.63583E+18,0.639734,-0.134225,0.743599,0.140661,0
-8.930647,0.405626,3.091393,-0.006606,0.024835,-0.022095,33.920925,-20.130009,-24.756615,4.63583E+18,0.296789,-0.507957,0.225107,0.776674,-9.472945,2.49729,-0.537126,0.032616,-0.020638,0.044709,44.105347,-1.997648,-14.174547,4.63583E+18,0.253865,0.712436,0.14312,-0.638361,-9.686496,-0.811714,-0.573748,-0.030692,-0.030692,-0.172756,40.812911,-4.999167,21.032729,4.63583E+18,0.639963,-0.134856,0.743366,0.140246,0
-9.123694,0.203953,3.115806,0.006466,0.058665,-0.058154,34.047101,-20.031694,-24.764177,4.63583E+18,0.296902,-0.508225,0.225038,0.776476,-9.470329,2.441914,-0.529277,0.039217,-0.023041,0.052454,44.08834,-2.072209,-14.076878,4.63583E+18,0.25394,0.712448,0.142853,-0.638378,-9.683719,-0.750207,-0.576839,-0.027786,-0.027245,-0.169038,40.928332,-5.035319,20.886868,4.63583E+18,0.64018,-0.13547,0.743145,0.139829,0
-9.21659,0.172083,3.079734,0.020349,0.064441,-0.080166,34.115045,-19.971312,-24.708339,4.63583E+18,0.297287,-0.508464,0.22509,0.776157,-9.452454,2.34513,-0.453417,0.057108,-0.0206,0.054209,43.946651,-2.140655,-14.010613,4.63583E+18,0.253965,0.712486,0.142535,-0.638396,-9.747842,-0.631848,-0.585955,-0.03368,-0.02911,-0.169565,40.900674,-4.921905,20.908499,4.63583E+18,0.6404,-0.136101,0.742916,0.139429,0
-9.095629,0.233119,3.059411,0.043496,0.056764,-0.086775,33.968493,-20.122512,-24.603121,4.63583E+18,0.297572,-0.508707,0.225077,0.775892,-9.482539,2.370403,-0.364915,0.080072,-0.033302,0.061227,43.963639,-2.056964,-14.20591,4.63583E+18,0.253948,0.712519,0.142122,-0.638458,-9.787104,-0.683905,-0.589043,-0.042198,-0.029368,-0.167146,40.824354,-4.708535,20.997024,4.63583E+18,0.640614,-0.136745,0.742682,0.139063,0
-8.945674,0.437788,2.973342,0.067705,0.050252,-0.082296,33.777268,-20.21546,-24.553735,4.63583E+18,0.2979,-0.508895,0.225145,0.775624,-9.44375,2.520365,-0.360548,0.087513,-0.044251,0.063975,44.088359,-1.922649,-14.359414,4.63583E+18,0.253922,0.712533,0.141669,-0.638554,-9.726067,-0.784652,-0.598163,-0.043794,-0.028042,-0.162899,40.782137,-4.608512,21.069979,4.63583E+18,0.64082,-0.137382,0.742452,0.138711,0
-8.831165,0.783666,2.872215,0.070547,0.032447,-0.067137,33.709288,-20.064277,-24.677593,4.63583E+18,0.298201,-0.509007,0.225232,0.775409,-9.290282,2.78284,-0.435957,0.073859,-0.047609,0.062678,43.929666,-2.10139,-14.185002,4.63583E+18,0.253936,0.712522,0.141253,-0.638652,-9.68047,-0.88834,-0.619777,-0.043794,-0.02938,-0.164765,40.864497,-4.663228,21.069979,4.63583E+18,0.641031,-0.138023,0.742218,0.138354,0
-8.70618,1.290601,2.783852,0.040836,0.000349,-0.052541,33.757554,-19.971312,-24.817087,4.63583E+18,0.298422,-0.509038,0.225214,0.775308,-9.196091,2.890084,-0.602539,0.034953,-0.041167,0.059588,43.804925,-2.31027,-14.204581,4.63583E+18,0.254053,0.712485,0.140956,-0.638713,-9.686644,-0.958351,-0.699048,-0.041903,-0.032057,-0.165563,40.919216,-4.604582,21.091585,4.63583E+18,0.641251,-0.138659,0.741977,0.13799,0
-8.730631,1.574184,2.844923,-0.000564,-0.014547,-0.052035,33.843001,-20.069569,-24.733341,4.63583E+18,0.298568,-0.509072,0.225044,0.775279,-9.250987,2.959873,-0.520157,-0.005603,-0.017399,0.056766,43.946651,-2.224818,-14.378556,4.63583E+18,0.254269,0.712467,0.140801,-0.638681,-9.714145,-0.967332,-0.729218,-0.032806,-0.034169,-0.164753,40.900696,-4.431287,21.180123,4.63583E+18,0.641482,-0.139267,0.741735,0.137601,0
-8.973622,1.770088,2.928035,-0.045781,-0.025535,-0.049185,33.928448,-20.130009,-24.538032,4.63583E+18,0.298619,-0.509125,0.224722,0.775319,-9.450679,2.897531,-0.371904,-0.026778,-0.002022,0.048564,43.937516,-2.148503,-14.455332,4.63583E+18,0.254517,0.712462,0.140743,-0.6386,-9.769284,-0.952315,-0.67127,-0.020541,-0.028546,-0.160738,40.824367,-4.471409,21.231486,4.63583E+18,0.6417,-0.139832,0.741518,0.137181,0
-9.230537,1.709041,2.994881,-0.099795,-0.031383,-0.045269,33.960995,-20.024214,-24.471193,4.63583E+18,0.298838,-0.509137,0.224417,0.775314,-9.570604,2.82951,-0.32,-0.037116,0.000073,0.043452,43.879452,-2.148503,-14.368114,4.63583E+18,0.254781,0.712449,0.140729,-0.638513,-9.848289,-1.004226,-0.628615,-0.012794,-0.019203,-0.15406,40.782117,-4.568387,21.164552,4.63583E+18,0.64189,-0.140362,0.741334,0.136749,0
-9.518266,1.135337,3.133223,-0.140282,0.002743,-0.048168,33.908103,-19.913768,-24.596742,4.63583E+18,0.298658,-0.509397,0.223826,0.775383,-9.566693,2.795969,-0.343111,-0.043566,0.009956,0.040133,44.041231,-2.15763,-14.357683,4.63583E+18,0.255049,0.712454,0.140753,-0.638395,-9.823741,-1.059092,-0.6042,-0.005869,-0.011468,-0.146313,40.882992,-4.523043,21.130748,4.63583E+18,0.642055,-0.140852,0.741178,0.136312,0
-9.794954,0.615652,3.115232,-0.169526,0.014905,-0.042931,33.875546,-19.938747,-24.663607,4.63583E+18,0.298387,-0.509728,0.223168,0.77546,-9.532679,2.701747,-0.356622,-0.039719,0.011905,0.03529,44.100606,-2.261331,-14.249596,4.63583E+18,0.255292,0.712464,0.140783,-0.638279,-9.76579,-1.06795,-0.576701,-0.005892,-0.005588,-0.136418,41.010968,-4.577776,21.011498,4.63583E+18,0.642195,-0.141316,0.741044,0.135898,0
-9.865333,0.30233,3.064058,-0.192416,0.012919,-0.025894,33.920873,-19.918429,-24.726947,4.63583E+18,0.298014,-0.510064,0.222469,0.775583,-9.510048,2.748791,-0.37843,-0.022587,0.004045,0.025906,43.949738,-2.49031,-14.075136,4.63583E+18,0.255464,0.712467,0.140788,-0.638207,-9.716966,-1.019382,-0.546249,-0.01311,-0.00027,-0.123073,41.044118,-4.519186,20.87466,4.63583E+18,0.642308,-0.141761,0.740928,0.135538,0
-9.851375,0.172657,3.064058,-0.199744,0.029495,0.004314,34.001665,-19.734784,-24.776375,4.63583E+18,0.297512,-0.510435,0.221832,0.775715,-9.393593,2.876589,-0.37843,-0.015412,0.004311,0.018082,43.881258,-2.471995,-14.096067,4.63583E+18,0.255593,0.712473,0.140796,-0.638146,-9.668136,-1.062299,-0.537126,-0.022993,-0.000798,-0.112943,40.96175,-4.308831,20.896246,4.63583E+18,0.64241,-0.1422,0.74081,0.135237,0
-9.813604,0.264455,3.116938,-0.199083,0.04308,0.045259,34.026687,-19.641712,-24.841463,4.63583E+18,0.296867,-0.51081,0.2213,0.775867,-9.246236,2.934136,-0.390202,-0.020142,0.021859,0.007172,43.946651,-2.319407,-14.270454,4.63583E+18,0.255697,0.712515,0.140868,-0.638042,-9.64089,-1.138371,-0.552541,-0.033674,0,-0.105984,40.925506,-4.196264,20.960112,4.63583E+18,0.642499,-0.142648,0.740692,0.134986,0
-9.7299,0.427811,3.16462,-0.197353,0.047252,0.088394,33.976704,-19.739923,-24.810696,4.63583E+18,0.296081,-0.511156,0.220872,0.776061,-9.289834,2.86874,-0.49091,-0.028801,0.018005,-0.005302,43.955799,-2.319407,-14.239093,4.63583E+18,0.255796,0.712529,0.140997,-0.637958,-9.680588,-1.138252,-0.595082,-0.042467,-0.001078,-0.093157,40.940197,-4.190221,20.913894,4.63583E+18,0.642579,-0.143078,0.740574,0.134797,0
-9.579385,0.503402,3.151266,-0.194557,0.052032,0.117235,33.948788,-19.800407,-24.768822,4.63583E+18,0.295203,-0.511487,0.220519,0.776278,-9.285914,2.875274,-0.514018,-0.038757,0.02575,-0.015372,44.039945,-2.310259,-13.96833,4.63583E+18,0.255893,0.712548,0.141189,-0.637856,-9.704764,-1.12012,-0.59212,-0.045941,-0.003194,-0.078482,40.821556,-4.177771,20.801659,4.63583E+18,0.642656,-0.143471,0.740457,0.13466,0
-9.434049,0.580677,3.16751,-0.197299,0.063066,0.131581,33.948788,-19.755097,-24.829235,4.63583E+18,0.294262,-0.511844,0.220202,0.77649,-9.266278,2.924551,-0.534064,-0.050432,0.02556,-0.028801,44.097507,-2.224809,-13.91293,4.63583E+18,0.25599,0.712545,0.141453,-0.637761,-9.6621,-1.172151,-0.61037,-0.050753,-0.00027,-0.06834,40.84313,-4.135468,20.945543,4.63583E+18,0.642714,-0.143847,0.740351,0.134562,0
-9.319518,0.735868,3.140816,-0.206352,0.071005,0.136976,33.89592,-19.772479,-24.86648,4.63583E+18,0.293277,-0.512231,0.219877,0.776699,-9.373981,2.852231,-0.60776,-0.051768,0.015794,-0.03807,44.030799,-2.140671,-14.087343,4.63583E+18,0.256071,0.71251,0.141737,-0.637705,-9.659252,-1.229751,-0.61037,-0.05797,-0.002955,-0.060335,40.928574,-4.217831,21.176995,4.63583E+18,0.642772,-0.144217,0.740239,0.13451,0
-9.232312,0.918974,3.12044,-0.220338,0.083207,0.135809,33.863338,-19.702227,-24.86648,4.63583E+18,0.292253,-0.512676,0.219519,0.776893,-9.364384,2.620217,-0.592483,-0.045514,0.011716,-0.044251,44.046006,-2.073953,-14.066456,4.63583E+18,0.25612,0.712467,0.142018,-0.637671,-9.720289,-1.165633,-0.616532,-0.066505,-0.009084,-0.053118,40.970894,-4.254106,21.194669,4.63583E+18,0.642839,-0.144583,0.740109,0.134507,0
-9.181727,1.041662,3.147751,-0.23702,0.109548,0.132604,33.916199,-19.694574,-24.926895,4.63583E+18,0.29118,-0.513228,0.219132,0.777041,-9.375286,2.685629,-0.649605,-0.032541,-0.007781,-0.048067,44.27319,-2.063051,-13.911621,4.63583E+18,0.256132,0.712384,0.142256,-0.637706,-9.753601,-1.120115,-0.634785,-0.06915,-0.009873,-0.044313,40.907009,-4.177784,21.033127,4.63583E+18,0.642902,-0.144929,0.739981,0.134537,0
-9.137552,1.104459,3.071096,-0.2627,0.125073,0.128739,33.994099,-19.825337,-25.077417,4.63583E+18,0.29005,-0.513864,0.218672,0.777173,-9.372678,2.671285,-0.666191,-0.026859,-0.020139,-0.048409,44.323416,-2.063051,-14.106431,4.63583E+18,0.256133,0.712273,0.142466,-0.637782,-9.710935,-1.153655,-0.637864,-0.064079,-0.007477,-0.038174,40.925484,-4.132371,20.960112,4.63583E+18,0.642958,-0.145244,0.739866,0.134565,0
-9.02832,1.070225,2.932169,-0.290371,0.103324,0.122485,33.976727,-19.88586,-25.026437,4.63583E+18,0.288899,-0.514467,0.218083,0.777368,-9.352176,2.560483,-0.627798,-0.018998,-0.028457,-0.050929,44.096211,-2.064356,-14.348537,4.63583E+18,0.256109,0.712147,0.142654,-0.63789,-9.692678,-1.138038,-0.640834,-0.061423,-0.007477,-0.032564,41.001807,-4.208695,20.984746,4.63583E+18,0.643011,-0.145534,0.739756,0.134601,0
-8.85165,1.037629,2.873398,-0.306755,0.066857,0.120293,33.948788,-19.787717,-24.838691,4.63583E+18,0.287753,-0.514973,0.217392,0.777651,-9.356559,2.635495,-0.674015,-0.016862,-0.03361,-0.047496,44.019897,-2.075258,-14.164142,4.63583E+18,0.256091,0.712012,0.14282,-0.638011,-9.692678,-1.009919,-0.613341,-0.065715,-0.007746,-0.026964,41.028757,-4.272591,21.107033,4.63583E+18,0.64306,-0.145819,0.739646,0.134664,0
-8.694085,1.105569,2.921582,-0.304886,0.040857,0.125985,33.994082,-19.727163,-24.829212,4.63583E+18,0.286616,-0.515386,0.216688,0.777994,-9.309863,2.614162,-0.690607,-0.013927,-0.029524,-0.042384,44.029023,-2.08308,-14.000113,4.63583E+18,0.256076,0.711894,0.142968,-0.638116,-9.692678,-0.93084,-0.589033,-0.075857,-0.009353,-0.024029,40.876127,-4.254124,21.228467,4.63583E+18,0.643106,-0.146121,0.739528,0.134768,0
-8.823993,1.306003,2.999479,-0.300557,0.043019,0.127265,33.923911,-19.727163,-24.926864,4.63583E+18,0.285481,-0.515799,0.216003,0.778328,-9.385706,2.526932,-0.62485,-0.004657,-0.035477,-0.038382,44.097532,-2.157621,-14.087343,4.63583E+18,0.256047,0.711772,0.143073,-0.63824,-9.711145,-0.964593,-0.595085,-0.083594,-0.013635,-0.021085,40.76678,-4.177802,21.106184,4.63583E+18,0.643158,-0.146432,0.739396,0.134906,0
-9.094315,1.539705,2.951962,-0.315339,0.014794,0.133306,33.76522,-19.674332,-24.90376,4.63583E+18,0.284319,-0.516131,0.215249,0.778742,-9.474249,2.539967,-0.427735,0.001867,-0.038298,-0.02884,44.013855,-2.226134,-14.076915,4.63583E+18,0.256026,0.711655,0.143129,-0.638366,-9.78131,-1.093024,-0.589033,-0.088127,-0.019765,-0.01709,40.861563,-4.13236,20.960112,4.63583E+18,0.643224,-0.146739,0.739247,0.135073,0
-9.07895,1.729261,2.875169,-0.354438,-0.03547,0.142414,33.855606,-19.588873,-24.934415,4.63583E+18,0.283087,-0.516337,0.214328,0.779308,-9.477346,2.669823,-0.333503,0.005813,-0.043995,-0.027815,43.878112,-2.151603,-14.000092,4.63583E+18,0.255999,0.711528,0.143166,-0.63851,-9.833112,-1.278897,-0.598163,-0.088648,-0.021094,-0.01386,41.023321,-4.227133,20.984722,4.63583E+18,0.643292,-0.147037,0.739096,0.13525,0
-9.001517,1.552982,2.947097,-0.395236,-0.050766,0.137344,34.039352,-19.510977,-25.0971,4.63583E+18,0.282388,-0.516382,0.213637,0.779721,-9.405396,2.837813,-0.372734,-0.021421,-0.025493,-0.018999,44.03813,-2.092189,-14.09646,4.63583E+18,0.256065,0.711427,0.143268,-0.638574,-9.854451,-1.361273,-0.601239,-0.080607,-0.017872,-0.000504,41.129622,-4.345836,21.05777,4.63583E+18,0.643348,-0.147275,0.738966,0.135437,0
-9.140229,1.102014,3.003021,-0.418344,-0.044513,0.125848,33.997179,-19.430194,-25.2924,4.63583E+18,0.28108,-0.516646,0.212462,0.78034,-9.353475,2.776778,-0.419447,-0.059845,-0.004586,-0.01709,44.1908,-2.243069,-14.172795,4.63583E+18,0.256238,0.711341,0.14349,-0.638551,-9.838974,-1.431439,-0.604218,-0.060842,-0.00799,0.013911,41.047248,-4.308923,21.05777,4.63583E+18,0.643376,-0.14742,0.738883,0.135595,0
-9.349546,0.666509,3.040756,-0.427356,-0.039016,0.108562,33.883752,-19.352283,-25.306609,4.63583E+18,0.279802,-0.516951,0.211226,0.780933,-9.375286,2.711856,-0.34232,-0.080817,0.013751,-0.017318,44.1908,-2.292119,-14.183191,4.63583E+18,0.256462,0.711281,0.143787,-0.638461,-9.741323,-1.400223,-0.58288,-0.040557,0,0.028073,40.970935,-4.177822,21.082369,4.63583E+18,0.643385,-0.147472,0.738841,0.135724,0
-9.476941,0.301409,3.064058,-0.415529,-0.040026,0.095123,33.80585,-19.271494,-25.329697,4.63583E+18,0.278593,-0.51725,0.209998,0.781498,-9.375286,2.612897,-0.250645,-0.106611,0.040431,-0.019113,44.181704,-2.063051,-14.270454,4.63583E+18,0.256741,0.711263,0.144187,-0.638278,-9.646739,-1.128862,-0.570673,-0.025081,0.001076,0.043541,40.888559,-4.175393,21.13083,4.63583E+18,0.643391,-0.147436,0.738821,0.135846,0
-9.471838,0.125628,3.056512,-0.388477,-0.04628,0.084598,33.725063,-19.238867,-25.487718,4.63583E+18,0.277481,-0.517504,0.208828,0.782039,-9.370088,2.512126,-0.307784,-0.123178,0.048408,-0.018159,44.105347,-2.072147,-14.260059,4.63583E+18,0.257067,0.71125,0.144636,-0.63806,-9.582811,-1.019454,-0.56769,-0.016552,0.004273,0.051287,40.852211,-4.37649,21.036248,4.63583E+18,0.643388,-0.147355,0.738819,0.135961,0
-9.32781,0.014664,3.044306,-0.345367,-0.057057,0.074169,33.692432,-19.186052,-25.562302,4.63583E+18,0.276504,-0.517681,0.207763,0.782552,-9.332952,2.483814,-0.3296,-0.125246,0.052294,-0.017476,44.114442,-2.139408,-14.163701,4.63583E+18,0.257398,0.711244,0.145094,-0.637829,-9.598179,-1.071178,-0.589029,-0.013341,0.004004,0.058756,40.925449,-4.409773,20.947731,4.63583E+18,0.643384,-0.147242,0.738822,0.136085,0
-9.170232,-0.413801,3.092448,-0.280241,-0.094956,0.021653,33.737695,-19.153416,-25.441605,4.63583E+18,0.276112,-0.517639,0.206913,0.782942,-9.409561,2.427975,-0.330898,-0.115725,0.059976,-0.011409,44.206377,-2.028003,-14.087343,4.63583E+18,0.257713,0.711272,0.145516,-0.637574,-9.683803,-1.046677,-0.595089,-0.006932,0.003742,0.063835,40.983325,-4.385791,20.920762,4.63583E+18,0.643381,-0.147096,0.738831,0.136204,0
-9.096301,-1.574783,3.358929,-0.12536,-0.13516,-0.007225,33.818478,-19.108158,-25.608361,4.63583E+18,0.275942,-0.517377,0.206299,0.783338,-9.596318,2.420963,-0.343106,-0.089587,0.053249,-0.00809,44.338587,-1.742545,-14.07695,4.63583E+18,0.257963,0.711312,0.145851,-0.637352,-9.787179,-1.007153,-0.595175,-0.001599,0.005341,0.071581,40.97402,-4.526043,21.060843,4.63583E+18,0.643372,-0.146913,0.738853,0.136327,0
-9.368942,1.208137,3.450724,-0.086599,-0.120344,0.023952,33.798328,-19.027371,-25.938653,4.63583E+18,0.27574,-0.517091,0.205897,0.783703,-9.595558,2.453688,-0.355311,-0.068229,0.060998,-0.003932,44.323565,-1.837054,-13.989684,4.63583E+18,0.258156,0.711399,0.146126,-0.637114,-9.723076,-1.043854,-0.62565,0,0.004266,0.079856,40.897712,-4.550048,21.020827,4.63583E+18,0.643363,-0.146699,0.738877,0.136467,0
-9.8705,2.997191,3.350194,-0.196879,-0.100971,0.044706,33.765678,-18.949467,-25.990262,4.63583E+18,0.275217,-0.516977,0.205202,0.784145,-9.493471,2.457578,-0.363629,-0.047433,0.061272,-0.001182,44.079417,-1.989807,-14.000056,4.63583E+18,0.258295,0.711509,0.146338,-0.636886,-9.683623,-1.071018,-0.640929,0.000269,0.001337,0.085989,40.833763,-4.391351,20.899236,4.63583E+18,0.64336,-0.146464,0.738898,0.136625,0
-10.048483,2.080838,3.413788,-0.275682,-0.105277,0.065727,33.712887,-18.966725,-25.95294,4.63583E+18,0.274458,-0.516921,0.204289,0.784686,-9.456848,2.487718,-0.341807,-0.031865,0.055544,-0.002363,43.887125,-1.989807,-14.108084,4.63583E+18,0.258388,0.711621,0.146505,-0.636685,-9.710871,-0.973442,-0.662271,0.000799,0.002674,0.089201,40.855265,-4.330952,21.042966,4.63583E+18,0.643351,-0.146219,0.738924,0.136789,0
-10.185298,1.005252,3.433866,-0.300182,-0.085858,0.083913,33.62744,-19.002261,-26.06605,4.63583E+18,0.273569,-0.516939,0.203357,0.785226,-9.415051,2.474959,-0.353461,-0.019663,0.05509,-0.004612,44.131244,-1.980743,-14.272303,4.63583E+18,0.258439,0.711743,0.146647,-0.636495,-9.643774,-0.91241,-0.668337,-0.003224,0.002929,0.09346,40.919216,-4.544449,21.207032,4.63583E+18,0.643336,-0.145971,0.738951,0.136977,0
-10.316338,0.079626,3.2098,-0.30549,-0.083443,0.084289,33.549528,-18.901353,-26.083264,4.63583E+18,0.272665,-0.51697,0.202412,0.785764,-9.333489,2.560402,-0.467197,-0.005114,0.050705,-0.008043,44.331385,-1.8953,-14.174654,4.63583E+18,0.25844,0.711867,0.146755,-0.636331,-9.622579,-0.829879,-0.649988,-0.016579,-0.003218,0.091592,40.937639,-4.663228,20.996286,4.63583E+18,0.643333,-0.145762,0.738952,0.137205,0
-10.128533,-0.573062,2.975363,-0.295593,-0.123783,0.076309,33.468745,-18.783239,-25.997814,4.63583E+18,0.271842,-0.516863,0.201436,0.78637,-9.293715,2.626451,-0.590401,-0.002186,0.044572,-0.013723,44.152722,-1.818903,-14.076995,4.63583E+18,0.258422,0.711974,0.146866,-0.636193,-9.662123,-0.711026,-0.625648,-0.031264,-0.011494,0.090255,40.992458,-4.663228,20.777,4.63583E+18,0.643348,-0.145591,0.738922,0.137479,0
-9.545458,-0.829387,3.003383,-0.244605,-0.178507,0.062078,33.488858,-18.803352,-25.957607,4.63583E+18,0.271505,-0.516458,0.20072,0.786936,-9.33163,2.567595,-0.513278,0.007993,0.031528,-0.022495,43.952552,-1.827957,-14.000031,4.63583E+18,0.258358,0.712052,0.146961,-0.636109,-9.643848,-0.708164,-0.640922,-0.042463,-0.018701,0.088925,40.974047,-4.68164,20.850649,4.63583E+18,0.643378,-0.14545,0.738866,0.137789,0
-8.911035,-0.964747,3.154539,-0.137663,-0.220856,0.048286,33.468749,-18.836023,-26.133901,4.63583E+18,0.271194,-0.515876,0.200091,0.787584,-9.380454,2.802534,-0.447354,0.023172,0.016915,-0.033062,44.131188,-1.89531,-14.087343,4.63583E+18,0.258231,0.712102,0.147032,-0.63609,-9.643848,-0.821153,-0.665335,-0.046741,-0.02511,0.090261,40.919216,-4.736473,21.069979,4.63583E+18,0.643425,-0.145313,0.738791,0.13812,0
-8.676593,-0.874638,3.172851,-0.017411,-0.224029,0.03258,33.481313,-18.790788,-26.366543,4.63583E+18,0.271195,-0.515161,0.199819,0.788121,-9.418948,2.730451,-0.726696,0.040149,0.006522,-0.041319,44.3327,-1.83699,-14.077008,4.63583E+18,0.258037,0.712137,0.147071,-0.63612,-9.646916,-0.955306,-0.695884,-0.050997,-0.030713,0.093739,40.937619,-4.718069,20.996365,4.63583E+18,0.643484,-0.145173,0.7387,0.138476,0
-8.848161,-0.592831,3.081671,0.076829,-0.190201,0.009147,33.509323,-18.808005,-26.433697,4.63583E+18,0.271447,-0.514469,0.199845,0.78848,-9.373995,2.498054,-0.776111,0.054024,0.008042,-0.03834,44.164987,-2.007875,-13.979359,4.63583E+18,0.25781,0.712192,0.147066,-0.636151,-9.643792,-0.997941,-0.72018,-0.046462,-0.033113,0.100947,41.013922,-4.681625,20.777,4.63583E+18,0.643549,-0.144998,0.738609,0.13884,0
-9.126051,-0.204751,2.964272,0.15141,-0.168423,-0.007663,33.35858,-18.888783,-26.308433,4.63583E+18,0.271896,-0.513777,0.200104,0.78871,-9.357916,2.564845,-0.74406,0.03699,0.016996,-0.037724,43.954395,-2.151676,-13.892025,4.63583E+18,0.257629,0.712254,0.147114,-0.636144,-9.619491,-0.9888,-0.67135,-0.042984,-0.032576,0.107893,41.059515,-4.776332,20.850588,4.63583E+18,0.643611,-0.144792,0.738526,0.139211,0
-9.251406,0.166856,2.887424,0.21333,-0.194577,-0.018344,33.167202,-18.974229,-26.17342,4.63583E+18,0.272534,-0.512938,0.200514,0.788932,-9.28973,2.629962,-0.859087,-0.097241,0.065099,-0.038218,44.053449,-2.030092,-13.902349,4.63583E+18,0.257815,0.712299,0.147571,-0.635913,-9.63153,-0.961208,-0.634785,-0.035776,-0.032049,0.116438,40.983209,-4.895169,21.045452,4.63583E+18,0.64367,-0.144541,0.738454,0.139582,0
-9.182517,0.202539,2.808447,0.254117,-0.233004,-0.031663,33.257208,-19.006927,-26.196343,4.63583E+18,0.273568,-0.511878,0.201137,0.789104,-9.069416,3.066557,-0.953308,-0.290716,0.176988,-0.018723,44.337288,-1.63124,-13.98066,4.63583E+18,0.258559,0.712443,0.148603,-0.635209,-9.555332,-0.888127,-0.628656,-0.025345,-0.031495,0.124714,40.900828,-4.895169,20.926349,4.63583E+18,0.643728,-0.144237,0.738394,0.139943,0
-9.085915,0.138952,2.650486,0.269266,-0.260843,-0.047278,33.350624,-18.954167,-26.294007,4.63583E+18,0.274591,-0.51075,0.201668,0.789344,-9.004065,2.781682,-0.52355,-0.302343,0.199709,-0.026883,44.31924,-1.489303,-13.914545,4.63583E+18,0.2593,0.712628,0.149713,-0.634437,-9.533931,-0.949267,-0.607305,0.002717,-0.015736,0.132459,40.864359,-4.913557,20.813725,4.63583E+18,0.643751,-0.143843,0.738397,0.14023,0
-8.929777,0.33776,2.568226,0.253505,-0.299256,-0.060661,33.147147,-18.868721,-26.331369,4.63583E+18,0.275654,-0.509524,0.202073,0.789662,-9.39978,1.95129,-0.310342,-0.145227,0.103311,-0.056559,44.167675,-1.506062,-13.991578,4.63583E+18,0.259557,0.712708,0.150393,-0.634082,-9.537196,-1.049837,-0.592034,0.042752,-0.000796,0.14154,40.943731,-4.968413,20.957346,4.63583E+18,0.643746,-0.143322,0.738469,0.140408,0
-8.556476,0.720095,2.616305,0.230601,-0.339659,-0.075048,32.975812,-18.790809,-26.391654,4.63583E+18,0.276635,-0.508231,0.202251,0.790107,-9.584024,2.081173,-0.354015,-0.033046,0.05701,-0.06448,44.178593,-1.666045,-13.892631,4.63583E+18,0.259489,0.712782,0.150749,-0.633942,-9.662183,-1.003889,-0.558432,0.062757,0.004545,0.151149,41.013813,-4.950034,21.143132,4.63583E+18,0.64373,-0.142721,0.738572,0.140548,0
-8.238637,1.150218,2.807256,0.221924,-0.364766,-0.084476,32.992996,-18.815529,-26.542063,4.63583E+18,0.277649,-0.506872,0.202352,0.790598,-9.390069,2.465947,-0.355302,-0.004777,0.070218,-0.059537,44.187607,-1.827917,-13.794366,4.63583E+18,0.259341,0.712924,0.15103,-0.633775,-9.701913,-0.836094,-0.515774,0.067301,0.009349,0.156486,40.983226,-4.913548,20.975019,4.63583E+18,0.643699,-0.142095,0.738693,0.140686,0
-8.229893,1.333469,2.988245,0.210558,-0.37699,-0.099706,32.975817,-19.051669,-26.664883,4.63583E+18,0.278699,-0.505497,0.202368,0.791105,-9.409333,2.688872,-0.449912,-0.033572,0.084229,-0.071182,44.271771,-1.886329,-13.804666,4.63583E+18,0.259239,0.713065,0.151437,-0.633562,-9.778174,-0.738526,-0.540233,0.07799,0.014162,0.16023,40.900839,-5.00823,20.670109,4.63583E+18,0.643657,-0.141431,0.738836,0.140798,0
-8.457441,1.003774,3.047178,0.205994,-0.402675,-0.122386,32.895043,-19.223036,-26.750331,4.63583E+18,0.279834,-0.504061,0.20229,0.79164,-9.368197,2.88037,-1.176426,-0.352188,0.151626,-0.116488,44.328284,-1.707724,-13.862438,4.63583E+18,0.259922,0.713009,0.152893,-0.632995,-9.784135,-0.756978,-0.616573,0.098294,0.023774,0.163148,40.84597,-5.148542,20.655084,4.63583E+18,0.643596,-0.140708,0.739017,0.140849,0
-8.690145,0.627728,3.097056,0.211176,-0.433059,-0.141271,32.862331,-19.251076,-26.722769,4.63583E+18,0.281067,-0.502532,0.202154,0.79221,-9.230133,3.232716,-1.179346,-0.611318,0.189554,-0.142623,44.259564,-1.471278,-13.581641,4.63583E+18,0.26128,0.712753,0.155149,-0.632175,-9.698802,-0.931022,-0.732523,0.137311,0.04196,0.14578,40.84597,-5.212561,20.822847,4.63583E+18,0.643511,-0.139946,0.73926,0.140723,0
-8.847772,0.34414,3.17029,0.230766,-0.446577,-0.162563,32.809604,-19.303802,-26.685383,4.63583E+18,0.282653,-0.500891,0.202168,0.792681,-9.457533,1.77385,-0.001286,-0.337733,0.119399,-0.131609,44.325081,-1.3184,-13.340773,4.63583E+18,0.261898,0.712612,0.156575,-0.631725,-9.744646,-1.071038,-0.78732,0.200319,0.075574,0.12417,40.827602,-5.212561,20.911358,4.63583E+18,0.643372,-0.1391,0.739616,0.140326,0
-9.042292,0.149096,3.296246,0.280941,-0.442691,-0.183834,32.776878,-19.283808,-26.745634,4.63583E+18,0.284297,-0.499249,0.202235,0.793112,-9.54683,1.102499,-0.019916,-0.048407,0.020858,-0.152239,44.325081,-1.327393,-13.447415,4.63583E+18,0.261668,0.712514,0.157193,-0.631779,-9.83614,-0.762542,-0.698781,0.228819,0.067532,0.123108,40.772728,-5.194199,21.009008,4.63583E+18,0.643275,-0.138176,0.739966,0.139843,0
-9.296846,0.218174,3.357036,0.331853,-0.442304,-0.200425,32.776878,-19.107964,-26.91109,4.63583E+18,0.286096,-0.49756,0.202432,0.793476,-9.622653,2.278268,-0.109862,0.118901,-0.028053,-0.157467,44.317373,-1.403851,-13.621533,4.63583E+18,0.260958,0.712465,0.157333,-0.632093,-9.829919,-0.323547,-0.601223,0.185299,0.030158,0.122557,40.772728,-5.139317,21.082186,4.63583E+18,0.643267,-0.137348,0.740189,0.139514,0
-9.497602,0.292978,3.281726,0.360736,-0.437101,-0.227898,32.678977,-19.06432,-26.983037,4.63583E+18,0.28804,-0.495874,0.202672,0.793767,-9.330956,3.191909,-0.331523,0.179167,-0.020689,-0.163201,44.241562,-1.385867,-13.719191,4.63583E+18,0.26005,0.712496,0.157339,-0.63243,-9.723181,-0.476347,-0.63179,0.152463,0.010411,0.10547,40.754368,-5.139317,21.057706,4.63583E+18,0.643311,-0.13665,0.740329,0.139252,0
-9.648765,-0.030844,3.242493,0.402117,-0.409537,-0.250627,32.520282,-19.190279,-26.85787,4.63583E+18,0.290121,-0.494245,0.203035,0.793932,-9.297501,3.299913,-0.46194,0.207497,-0.014729,-0.180796,44.172145,-1.232948,-13.816839,4.63583E+18,0.259007,0.712562,0.157329,-0.632786,-9.738532,-0.726243,-0.70194,0.135655,0.000521,0.0956,40.717835,-5.139317,20.960055,4.63583E+18,0.643381,-0.136021,0.740427,0.139021,0
-9.561808,-0.209349,3.194457,0.449343,-0.403122,-0.24779,32.35406,-19.258606,-26.895999,4.63583E+18,0.292283,-0.492574,0.203565,0.794042,-9.591137,2.889337,-0.546767,0.241957,-0.015176,-0.192828,44.343047,-1.241931,-13.904232,4.63583E+18,0.257829,0.712656,0.157263,-0.633178,-9.826932,-0.634868,-0.732472,0.138867,-0.016555,0.097737,40.830845,-5.117905,20.886868,4.63583E+18,0.643504,-0.135367,0.740482,0.138795,0
-9.284699,-0.805235,3.131598,0.512492,-0.365207,-0.247082,32.190695,-19.210573,-27.086631,4.63583E+18,0.29442,-0.490978,0.204278,0.794058,-9.741546,2.691345,-0.53005,0.283284,-0.037719,-0.199291,44.4947,-1.29274,-13.893968,4.63583E+18,0.256527,0.712728,0.157083,-0.63367,-9.76587,-0.778294,-0.74154,0.128937,-0.020306,0.101479,41.004669,-5.053865,20.886868,4.63583E+18,0.643631,-0.134725,0.740523,0.138613,0
-9.175291,-1.410067,3.105356,0.610748,-0.30697,-0.238084,32.129887,-19.283273,-27.153941,4.63583E+18,0.296677,-0.489442,0.205404,0.793876,-9.49045,3.077458,-0.58271,0.281498,-0.055723,-0.213518,44.465851,-1.047364,-13.818096,4.63583E+18,0.255203,0.712741,0.15693,-0.634228,-9.698793,-0.799442,-0.640856,0.050166,-0.044343,0.112966,40.94658,-5.09361,20.865466,4.63583E+18,0.643781,-0.134245,0.74046,0.138718,0
-9.097107,-1.844118,3.213672,0.721595,-0.208238,-0.257744,32.227812,-19.499389,-27.089003,4.63583E+18,0.299138,-0.488108,0.206976,0.793365,-9.134294,3.248625,-0.654078,0.245241,-0.025987,-0.212113,44.329518,-0.826859,-13.906197,4.63583E+18,0.25397,0.712793,0.1569,-0.634671,-9.747667,-0.589057,-0.589013,-0.023522,-0.069967,0.13219,40.754384,-5.252307,20.850332,4.63583E+18,0.643958,-0.133889,0.740296,0.139116,0
-9.181259,-1.469072,3.2386,0.857968,-0.095886,-0.232995,32.341306,-19.743519,-26.983818,4.63583E+18,0.301693,-0.486948,0.209188,0.79253,-9.289743,2.826402,-0.596288,0.201388,0.008373,-0.208961,44.454926,-0.912309,-13.808539,4.63583E+18,0.252854,0.712891,0.157013,-0.634979,-9.823882,-0.726433,-0.595106,-0.06864,-0.075573,0.148212,40.74228,-5.389599,21.018132,4.63583E+18,0.644117,-0.133602,0.7401,0.1397,0
-9.129856,1.249276,3.059921,0.85848,-0.050681,-0.178225,32.328846,-19.882218,-26.941738,4.63583E+18,0.304026,-0.485883,0.211566,0.79166,-9.4705,2.687491,-0.463298,0.165918,0.019268,-0.214362,44.296246,-0.9888,-13.710888,4.63583E+18,0.251821,0.712976,0.157247,-0.635236,-9.741459,-0.955314,-0.592067,-0.091063,-0.07637,0.164768,40.888723,-5.444502,21.057738,4.63583E+18,0.644256,-0.133323,0.739897,0.140398,0
-8.89506,3.460318,2.928742,0.72099,-0.011413,-0.165494,32.300789,-19.857556,-26.821238,4.63583E+18,0.306,-0.485104,0.213563,0.79084,-9.226922,2.779538,-0.355295,0.130434,0.050695,-0.210821,44.16186,-0.979838,-13.654187,4.63583E+18,0.250881,0.713108,0.157597,-0.635372,-9.62553,-1.110825,-0.613426,-0.099339,-0.069694,0.183461,40.922239,-5.462837,20.984526,4.63583E+18,0.644359,-0.133012,0.739717,0.141168,0
-8.696112,3.918576,2.807467,0.543329,0.027154,-0.147023,32.398683,-19.824823,-26.633464,4.63583E+18,0.307518,-0.48466,0.21506,0.790118,-9.131019,2.494384,-0.362386,0.112105,0.086387,-0.203182,44.252996,-0.894397,-13.91644,4.63583E+18,0.249993,0.71332,0.158011,-0.635382,-9.637782,-0.909342,-0.619522,-0.10575,-0.063822,0.204557,40.858177,-5.517746,20.984526,4.63583E+18,0.644426,-0.132657,0.73956,0.142011,0
-8.419799,3.843278,2.603599,0.368021,0.06901,-0.10387,32.414307,-19.930241,-26.495541,4.63583E+18,0.308502,-0.484537,0.21612,0.78952,-9.365489,2.08761,-0.3296,0.104331,0.121657,-0.184914,44.488176,-0.800012,-13.875562,4.63583E+18,0.249153,0.713629,0.158427,-0.635261,-9.723192,-0.601186,-0.607316,-0.121774,-0.063021,0.22458,40.879558,-5.557454,20.914274,4.63583E+18,0.64447,-0.132284,0.739407,0.142957,0
-8.183396,3.683541,2.416826,0.204513,0.11106,-0.045257,32.333526,-20.040912,-26.513689,4.63583E+18,0.308923,-0.48471,0.216814,0.789059,-9.598852,1.868442,-0.3296,0.123657,0.120365,-0.165016,44.621325,-0.630384,-13.51686,4.63583E+18,0.248309,0.713967,0.158732,-0.635136,-9.686559,-0.549374,-0.607326,-0.146341,-0.065426,0.231521,40.961957,-5.694769,20.703756,4.63583E+18,0.644503,-0.131955,0.739235,0.143998,0
-8.072741,3.628452,2.37109,0.042319,0.143423,0.013968,32.353502,-20.068972,-26.490859,4.63583E+18,0.308793,-0.485143,0.217137,0.788755,-9.630363,1.779024,-0.328321,0.159764,0.118615,-0.140609,44.526915,-0.479346,-13.45058,4.63583E+18,0.247423,0.714353,0.158866,-0.635015,-9.63775,-0.744687,-0.634785,-0.1661,-0.073169,0.233659,40.998552,-5.771065,20.752621,4.63583E+18,0.644546,-0.131667,0.739031,0.145111,0
-8.082328,3.585097,2.448212,-0.124395,0.162788,0.060286,32.386242,-20.174388,-26.445913,4.63583E+18,0.308156,-0.485813,0.217029,0.788621,-9.629642,1.863182,-0.33143,0.16953,0.127508,-0.127731,44.373913,-0.411777,-13.527802,4.63583E+18,0.246536,0.71478,0.158946,-0.634859,-9.698798,-0.872823,-0.622573,-0.17945,-0.075572,0.246744,40.903942,-5.816821,20.877704,4.63583E+18,0.644581,-0.131373,0.738818,0.1463,0
-8.173484,3.273751,2.49784,-0.278667,0.17297,0.089675,32.438949,-20.187166,-26.501474,4.63583E+18,0.307101,-0.486687,0.216488,0.788643,-9.720926,1.945376,-0.445287,0.125731,0.123222,-0.123123,44.382855,-0.497238,-13.430132,4.63583E+18,0.245794,0.715154,0.159123,-0.634681,-9.875807,-0.802631,-0.585955,-0.187728,-0.078242,0.261697,40.803252,-5.780212,20.740352,4.63583E+18,0.644609,-0.131054,0.738601,0.147557,0
-8.320975,2.761919,2.562742,-0.40547,0.170975,0.103539,32.464163,-20.003862,-26.606647,4.63583E+18,0.305743,-0.487702,0.215554,0.788799,-9.734559,2.100237,-0.390637,0.083615,0.138113,-0.115869,44.450422,-0.573748,-13.322257,4.63583E+18,0.245186,0.715528,0.159405,-0.634424,-9.994805,-0.787385,-0.582903,-0.19467,-0.075036,0.269708,40.897861,-5.893138,20.520645,4.63583E+18,0.644617,-0.13073,0.738391,0.148855,0
-8.604766,2.152422,2.833511,-0.491841,0.167041,0.113401,32.512173,-19.910275,-26.708976,4.63583E+18,0.304179,-0.488803,0.214351,0.78905,-9.561683,2.214638,-0.391911,0.056295,0.159154,-0.112091,44.357344,-0.557179,-13.157569,4.63583E+18,0.244657,0.715932,0.159769,-0.634081,-9.891051,-0.869779,-0.546285,-0.196005,-0.059817,0.280121,41.019928,-6.143367,20.523697,4.63583E+18,0.64457,-0.130388,0.738225,0.150176,0
-8.951254,1.565644,3.099037,-0.531882,0.154118,0.120789,32.597626,-19.910275,-26.633516,4.63583E+18,0.30252,-0.489903,0.213015,0.789368,-9.482603,2.25582,-0.428337,0.029003,0.158262,-0.122374,44.222862,-0.406129,-13.246307,4.63583E+18,0.244181,0.716298,0.160236,-0.633733,-9.814754,-0.817899,-0.457778,-0.175445,-0.045397,0.304154,40.989414,-6.411934,20.511492,4.63583E+18,0.644472,-0.129926,0.738123,0.151491,0
-9.240354,1.016352,3.226607,-0.529946,0.120654,0.122837,32.63039,-19.707073,-26.45042,4.63583E+18,0.300885,-0.490886,0.211645,0.78975,-9.444154,2.265846,-0.667403,-0.035283,0.151725,-0.13929,44.322902,-0.32067,-13.23683,4.63583E+18,0.243858,0.71657,0.160916,-0.633378,-9.772028,-0.769061,-0.460824,-0.120972,-0.025103,0.331925,40.873439,-6.570625,20.47181,4.63583E+18,0.644323,-0.129245,0.738123,0.152702,0
-9.45907,0.527248,3.304529,-0.510881,0.088875,0.122837,32.622865,-19.430166,-26.447927,4.63583E+18,0.299315,-0.491738,0.210298,0.790177,-9.276577,2.572243,-0.847404,-0.137136,0.163184,-0.164855,44.616784,-0.226323,-13.051736,4.63583E+18,0.243763,0.71675,0.161952,-0.632945,-9.701865,-0.909411,-0.540168,-0.054485,-0.004008,0.355957,40.922245,-6.707957,20.59081,4.63583E+18,0.644128,-0.128324,0.738234,0.153761,0
-9.646877,0.07554,3.27241,-0.495195,0.061921,0.120861,32.565498,-19.389211,-26.723381,4.63583E+18,0.297806,-0.49248,0.208963,0.790639,-9.062991,2.818297,-0.868199,-0.223131,0.179337,-0.198036,44.579086,-0.05795,-12.955341,4.63583E+18,0.243826,0.716863,0.163331,-0.63244,-9.518739,-1.095624,-0.573755,-0.004541,0.00801,0.38079,41.02299,-6.784252,20.68242,4.63583E+18,0.643906,-0.127201,0.73842,0.154726,0
-9.784819,-0.345987,3.257537,-0.463942,0.034152,0.111731,32.434905,-19.57248,-26.973846,4.63583E+18,0.296414,-0.493098,0.207678,0.791115,-9.120739,2.468649,-0.661214,-0.218941,0.1776,-0.221934,44.374979,0.073244,-12.867343,4.63583E+18,0.243815,0.716956,0.164768,-0.631965,-9.439373,-0.976645,-0.482232,-0.000266,0.017621,0.419771,40.928399,-6.887999,20.520662,4.63583E+18,0.643629,-0.125952,0.738654,0.155778,0
-9.804385,-0.6811,3.376932,-0.404756,0.026791,0.098255,32.426707,-19.613453,-26.926525,4.63583E+18,0.295193,-0.493628,0.206551,0.791536,-9.244819,2.298043,-0.582649,-0.188751,0.169123,-0.240422,44.611445,0.074516,-12.758771,4.63583E+18,0.243669,0.717044,0.166172,-0.631554,-9.454627,-0.793442,-0.305198,-0.003206,0.037379,0.476915,40.830689,-7.043632,20.471789,4.63583E+18,0.643251,-0.124548,0.738967,0.156982,0
-9.775288,-0.883776,3.465061,-0.326769,0.043325,0.075152,32.557305,-19.430184,-26.750943,4.63583E+18,0.294193,-0.494135,0.205653,0.791826,-9.276355,2.462334,-0.669372,-0.168812,0.151366,-0.262564,44.755648,0.110883,-12.682729,4.63583E+18,0.243418,0.717088,0.167571,-0.631231,-9.521757,-0.946058,-0.292969,0.004805,0.060081,0.527393,40.876497,-7.232858,20.54811,4.63583E+18,0.642772,-0.122982,0.739369,0.158284,0
-9.683169,-0.924924,3.418925,-0.259921,0.076695,0.040391,32.618183,-19.283866,-26.685383,4.63583E+18,0.293417,-0.494699,0.204945,0.791945,-9.269234,2.767011,-0.784834,-0.179938,0.130425,-0.289846,44.668924,0.363932,-12.791323,4.63583E+18,0.243143,0.717045,0.169059,-0.630989,-9.646862,-1.05285,-0.378451,0.017889,0.085729,0.584573,40.763466,-7.492332,20.581725,4.63583E+18,0.642179,-0.12122,0.739873,0.159685,0
-9.616596,-0.87042,3.298703,-0.216476,0.120164,0.003256,32.512867,-19.20594,-26.805744,4.63583E+18,0.292815,-0.495384,0.204356,0.791892,-9.296956,2.900032,-1.039406,-0.194225,0.134942,-0.302508,44.581436,0.6592,-12.868641,4.63583E+18,0.242874,0.716989,0.170627,-0.630735,-9.588925,-1.001028,-0.454792,0.015223,0.105752,0.649461,40.516248,-7.617522,20.706895,4.63583E+18,0.641476,-0.119279,0.740457,0.161257,0
-9.667414,-0.842311,3.26974,-0.170033,0.131208,-0.033722,32.552606,-19.125166,-26.94089,4.63583E+18,0.29242,-0.49608,0.203858,0.79173,-9.276048,2.507424,-1.152091,-0.202435,0.165452,-0.305754,44.573825,0.641439,-12.751972,4.63583E+18,0.242598,0.717,0.172256,-0.630385,-9.595003,-1.049853,-0.576804,0.025377,0.123649,0.709533,40.31803,-7.898319,20.862452,4.63583E+18,0.640677,-0.117136,0.74112,0.162949,0
-9.727449,-0.849832,3.374047,-0.093601,0.088939,-0.057938,32.761085,-19.047251,-26.985882,4.63583E+18,0.2923,-0.496564,0.203511,0.791561,-9.486899,2.222538,-1.092801,-0.213325,0.163718,-0.31946,44.515805,0.488296,-12.500381,4.63583E+18,0.242319,0.716983,0.173953,-0.630045,-9.595063,-1.052848,-0.567622,0.037377,0.159702,0.7584,40.424868,-8.249222,20.886896,4.63583E+18,0.639734,-0.114834,0.741905,0.164715,0
-9.70391,-0.794362,3.505476,0.00639,0.030285,-0.072642,32.902758,-19.064252,-26.930412,4.63583E+18,0.292484,-0.496745,0.203391,0.79141,-9.590753,2.110149,-1.138626,-0.269295,0.156131,-0.341042,44.589039,0.523777,-12.510518,4.63583E+18,0.242155,0.716872,0.175853,-0.629707,-9.772083,-0.851382,-0.457731,0.017891,0.210172,0.81127,40.571321,-8.420054,20.935676,4.63583E+18,0.638582,-0.112453,0.742827,0.166657,0
-9.567677,-0.644065,3.44708,0.080555,-0.008562,-0.079291,32.83782,-19.145015,-26.885391,4.63583E+18,0.292877,-0.496712,0.203455,0.791269,-9.445996,1.960658,-1.044302,-0.294465,0.146587,-0.362878,44.644543,0.871925,-12.558753,4.63583E+18,0.242016,0.716691,0.177874,-0.629399,-9.988721,-0.592095,-0.274651,0.005598,0.274526,0.868149,40.549879,-8.49337,20.889941,4.63583E+18,0.637178,-0.109973,0.74393,0.168756,0
-9.369543,-0.408337,3.238596,0.114632,-0.029095,-0.087348,32.776878,-19.125199,-26.828072,4.63583E+18,0.293383,-0.496578,0.20359,0.791131,-9.429189,1.69128,-0.89114,-0.258062,0.126985,-0.369579,44.548144,1.259583,-12.190439,4.63583E+18,0.241764,0.716488,0.179799,-0.62918,-10.010053,-0.720237,-0.207517,-0.04621,0.323921,0.926631,40.244702,-8.83823,20.999805,4.63583E+18,0.635546,-0.107482,0.745143,0.171146,0
-9.08682,-0.207438,3.104396,0.148496,-0.04117,-0.104361,32.829512,-19.092379,-26.79525,4.63583E+18,0.294026,-0.496376,0.203786,0.790968,-9.460288,1.576104,-0.896203,-0.205188,0.093507,-0.370687,44.479164,1.505758,-11.969218,4.63583E+18,0.241376,0.716246,0.181555,-0.6291,-9.930721,-0.772137,-0.192274,-0.107886,0.361306,0.998191,39.979234,-9.210515,21.109662,4.63583E+18,0.633708,-0.104957,0.74643,0.173898,0
-8.87001,-0.123933,3.008598,0.192784,-0.067888,-0.119392,32.907442,-19.145009,-26.90803,4.63583E+18,0.294833,-0.496044,0.204065,0.790804,-9.28632,1.991689,-0.999459,-0.181149,0.053225,-0.380814,44.561269,1.656859,-12.241944,4.63583E+18,0.240919,0.715913,0.183236,-0.629167,-9.976524,-0.970504,-0.32352,-0.141264,0.410705,1.071893,39.854116,-9.567595,21.219529,4.63583E+18,0.631636,-0.102325,0.74784,0.176923,0
-8.858849,-0.094832,2.823572,0.231473,-0.138157,-0.130483,32.837851,-19.230451,-27.091119,4.63583E+18,0.295816,-0.495442,0.204361,0.790738,-8.715636,2.765651,-1.547892,-0.213944,0.064428,-0.386709,44.69465,1.742311,-12.309226,4.63583E+18,0.240535,0.71557,0.185032,-0.629179,-10.202345,-1.092561,-0.527971,-0.143396,0.44275,1.141854,39.774764,-10.040617,21.350759,4.63583E+18,0.629396,-0.099502,0.749344,0.180122,0
-8.871954,-0.010276,2.644248,0.232108,-0.216454,-0.141822,32.724255,-19.263283,-27.048709,4.63583E+18,0.296903,-0.49459,0.204539,0.790818,-8.639124,2.884217,-1.838256,-0.302274,0.098941,-0.399716,44.601605,1.836621,-12.135425,4.63583E+18,0.240352,0.715215,0.187132,-0.629031,-10.269482,-1.171899,-0.552383,-0.077444,0.48921,1.206738,39.619134,-10.467839,21.573523,4.63583E+18,0.626972,-0.096336,0.751027,0.18326,0
-8.787402,0.104277,2.490246,0.20129,-0.264586,-0.158176,32.691425,-19.210662,-26.978361,4.63583E+18,0.298021,-0.493631,0.204522,0.791001,-8.956482,2.428362,-1.746447,-0.410287,0.133557,-0.429949,44.449248,2.023941,-12.15648,4.63583E+18,0.240385,0.714815,0.189639,-0.628722,-10.260312,-1.416065,-0.701913,0.035781,0.535675,1.264151,39.417709,-10.785231,21.826834,4.63583E+18,0.624386,-0.092726,0.752918,0.186171,0
-8.695406,0.176552,2.466852,0.175089,-0.293501,-0.171482,32.744036,-19.080126,-27.046003,4.63583E+18,0.299153,-0.492619,0.204355,0.791247,-9.280191,1.817566,-1.26361,-0.470873,0.143795,-0.435068,44.369287,2.353537,-12.235177,4.63583E+18,0.240574,0.714372,0.192328,-0.628336,-10.592961,-1.321439,-1.269508,0.093996,0.57733,1.330641,39.271225,-11.120921,21.927542,4.63583E+18,0.621618,-0.088786,0.754962,0.189049,0
-8.629676,0.232899,2.45273,0.148627,-0.319795,-0.176492,32.671652,-19.116843,-27.14084,4.63583E+18,0.300269,-0.491557,0.204058,0.791562,-9.637112,1.11256,-0.659622,-0.502877,0.146778,-0.437388,44.442525,2.657846,-12.128267,4.63583E+18,0.240849,0.713897,0.19511,-0.627913,-11.142082,-1.489296,-2.154537,0.084393,0.627805,1.398195,39.06985,-11.554223,22.086199,4.63583E+18,0.618612,-0.084695,0.757126,0.192108,0
-8.643798,0.308966,2.369147,0.116336,-0.345841,-0.176655,32.560879,-19.275535,-27.106037,4.63583E+18,0.301341,-0.490447,0.20362,0.791956,-9.799178,0.61837,-0.466829,-0.463023,0.117422,-0.429948,44.515771,2.759717,-11.856755,4.63583E+18,0.241046,0.713385,0.197734,-0.627598,-12.664943,-1.602176,-2.221916,0.012298,0.613121,1.472161,38.740227,-12.094414,22.391384,4.63583E+18,0.615542,-0.080541,0.759189,0.195582,0
-8.742408,0.469565,2.361675,0.072704,-0.362927,-0.18019,32.585337,-19.291436,-27.063812,4.63583E+18,0.302348,-0.489338,0.203009,0.792415,-9.887165,0.874374,-0.634817,-0.367068,0.066295,-0.403757,44.58902,3.005149,-11.790255,4.63583E+18,0.241068,0.712853,0.199977,-0.627484,-13.748665,-1.690826,-1.330642,-0.089703,0.584015,1.558415,38.52355,-12.588786,22.647764,4.63583E+18,0.612432,-0.076348,0.761089,0.199601,0
-8.932119,0.677091,2.335353,0.006719,-0.370731,-0.193175,32.663273,-19.315889,-27.184056,4.63583E+18,0.304138,-0.488074,0.202678,0.792594,-9.986917,1.637829,-1.007682,-0.296101,0.027369,-0.374332,44.654682,3.234962,-11.887896,4.63583E+18,0.240987,0.712311,0.201907,-0.627512,-13.437289,-1.236036,-1.339594,-0.196254,0.56665,1.626241,38.273365,-13.141118,22.757622,4.63583E+18,0.609257,-0.072195,0.762841,0.204128,0
-9.201614,0.884602,2.299685,-0.086866,-0.389221,-0.214209,32.586226,-19.296134,-27.379361,4.63583E+18,0.304953,-0.487107,0.201436,0.793192,-9.995338,2.200279,-1.508245,-0.268032,0.004678,-0.360076,44.638266,3.226122,-11.975463,4.63583E+18,0.240878,0.711748,0.203698,-0.627615,-13.559271,-1.336493,-2.017046,-0.261947,0.568528,1.673246,37.876644,-13.69961,22.894925,4.63583E+18,0.605983,-0.068057,0.764515,0.208971,0
-9.411927,1.009467,2.325047,-0.194827,-0.414609,-0.239022,32.370249,-19.113008,-27.454451,4.63583E+18,0.305652,-0.486211,0.199753,0.793898,-9.974711,2.295002,-1.63959,-0.248105,-0.001068,-0.362581,44.503558,3.183597,-11.975463,4.63583E+18,0.240708,0.711184,0.205437,-0.627752,-13.733447,-1.940977,-2.847163,-0.300691,0.564234,1.71729,37.482891,-14.251992,23.087221,4.63583E+18,0.60264,-0.063869,0.766115,0.214039,0
-9.593164,1.097739,2.351335,-0.306161,-0.428657,-0.25874,32.223778,-18.86886,-27.582183,4.63583E+18,0.306201,-0.485425,0.197644,0.794695,-9.988176,1.962479,-1.328562,-0.24085,-0.001068,-0.379516,44.576789,3.49675,-11.976723,4.63583E+18,0.240471,0.710611,0.207207,-0.62791,-13.348861,-1.861724,-3.533933,-0.277188,0.617377,1.805948,37.284501,-14.810467,23.197085,4.63583E+18,0.599019,-0.059383,0.767847,0.219228,0
-9.788468,1.157827,2.295926,-0.416336,-0.427587,-0.268188,32.236,-18.677319,-27.782181,4.63583E+18,0.306554,-0.484787,0.19515,0.795564,-9.996198,1.846245,-1.08101,-0.237275,-0.000075,-0.414362,44.643736,3.632357,-11.976319,4.63583E+18,0.240131,0.710011,0.209071,-0.628101,-13.144383,-1.437712,-3.887934,-0.279038,0.663031,1.879914,37.11062,-15.378033,23.306942,4.63583E+18,0.595143,-0.054704,0.769659,0.224583,0
-10.043854,1.209467,2.228324,-0.517387,-0.440897,-0.275499,32.316746,-18.360904,-27.992499,4.63583E+18,0.306736,-0.484236,0.192288,0.796526,-9.858152,2.001537,-0.900046,-0.249684,0.010309,-0.455829,44.644603,3.513126,-11.889142,4.63583E+18,0.239709,0.709387,0.211099,-0.628289,-12.784579,-0.939875,-4.205327,-0.304162,0.725506,1.93841,36.738419,-16.006705,23.46861,4.63583E+18,0.590963,-0.049954,0.771561,0.230132,0
-10.269221,1.270502,2.029281,-0.620088,-0.489533,-0.274186,32.244467,-17.900807,-28.144624,4.63583E+18,0.306951,-0.483599,0.189151,0.797581,-9.658271,2.287651,-0.651641,-0.273685,0.032801,-0.506948,44.555762,3.860364,-11.978851,4.63583E+18,0.239202,0.708748,0.213363,-0.628438,-12.021307,-1.308931,-4.458728,-0.267876,0.807224,1.966183,36.207282,-16.650632,23.761618,4.63583E+18,0.586457,-0.0451,0.773645,0.2356,0
-10.534951,1.263942,1.736304,-0.720988,-0.572927,-0.258166,31.923349,-17.615301,-28.427239,4.63583E+18,0.306762,-0.482844,0.185475,0.798973,-9.21794,3.049539,-0.614929,-0.354517,0.100246,-0.577183,44.552373,4.334407,-11.873245,4.63583E+18,0.238689,0.708138,0.216112,-0.628382,-11.728617,-1.630174,-4.455802,-0.182955,0.879309,1.985951,35.896058,-17.28536,23.978286,4.63583E+18,0.581668,-0.040043,0.775931,0.24081,0
-10.889898,1.109961,1.555988,-0.820818,-0.676289,-0.234831,31.711088,-17.561757,-28.750279,4.63583E+18,0.306368,-0.481846,0.181378,0.800666,-8.882465,3.740632,-0.854143,-0.48846,0.154736,-0.664793,44.60925,4.579784,-11.611382,4.63583E+18,0.238291,0.707451,0.219521,-0.628125,-11.111982,-0.687133,-4.275711,-0.131384,0.952504,1.975302,35.450649,-17.901871,24.188858,4.63583E+18,0.576614,-0.034965,0.778382,0.245795,0
-11.253305,0.792588,1.62638,-0.924921,-0.743426,-0.210264,31.775852,-17.461303,-28.985984,4.63583E+18,0.305727,-0.480727,0.176893,0.802585,-8.636919,3.448049,-0.708201,-0.620847,0.245707,-0.760775,44.513754,4.843654,-11.535101,4.63583E+18,0.237945,0.706772,0.223647,-0.627565,-10.623934,0.015226,-4.040941,-0.141767,0.982152,1.888311,34.785325,-18.442078,24.408584,4.63583E+18,0.571505,-0.030222,0.780818,0.250582,0
-11.442083,0.421669,1.681808,-1.020153,-0.757482,-0.179782,31.686693,-17.200269,-29.186,4.63583E+18,0.304972,-0.479608,0.172234,0.804552,-8.748226,3.26117,-0.379326,-0.702779,0.324403,-0.846445,44.357036,5.182047,-11.614804,4.63583E+18,0.237538,0.706123,0.228313,-0.626769,-9.702611,-0.815681,-3.33339,-0.205028,0.986194,1.66468,34.251114,-18.918123,24.600901,4.63583E+18,0.566568,-0.02636,0.783115,0.255024,0
-11.317252,0.115553,1.582296,-1.090403,-0.731935,-0.141661,31.435053,-16.875391,-29.508972,4.63583E+18,0.303863,-0.478637,0.167407,0.806566,-9.268624,3.011329,-0.28077,-0.748552,0.361095,-0.933035,44.429018,5.597054,-11.431712,4.63583E+18,0.236999,0.705424,0.233384,-0.625892,-8.69492,-3.542986,-2.213083,-0.252398,0.9789,1.297731,33.930698,-19.394226,24.759482,4.63583E+18,0.562008,-0.023797,0.78526,0.258741,0
-11.030894,-0.115436,1.728653,-1.143888,-0.648401,-0.108303,31.283845,-16.605898,-29.904259,4.63583E+18,0.302349,-0.478002,0.162498,0.808513,-9.528397,2.560134,-0.290813,-0.746086,0.382348,-1.011339,44.491308,6.029675,-11.258646,4.63583E+18,0.236221,0.704685,0.238693,-0.625015,-8.048642,-4.213681,-1.74837,-0.128324,1.068908,0.965265,33.56142,-19.833791,25.089036,4.63583E+18,0.557501,-0.022128,0.787686,0.261253,0
-10.605634,-0.300416,1.817991,-1.18686,-0.532072,-0.081437,31.243445,-16.366478,-30.234794,4.63583E+18,0.30057,-0.47778,0.15764,0.810268,-9.701456,2.633037,-0.389715,-0.737454,0.403299,-1.093826,44.563292,6.605535,-11.163171,4.63583E+18,0.235175,0.703905,0.244235,-0.624147,-6.611023,-6.290334,-2.121265,0.115739,1.123955,0.663461,33.222613,-20.120733,25.464424,4.63583E+18,0.553147,-0.020941,0.790452,0.26225,0
-10.052652,-0.441277,1.704422,-1.213487,-0.454484,-0.066312,31.186207,-16.017282,-30.482703,4.63583E+18,0.298787,-0.477799,0.152908,0.811821,-9.830791,2.577608,-0.510865,-0.700508,0.430331,-1.187602,44.62558,7.078779,-10.978808,4.63583E+18,0.233741,0.703112,0.249973,-0.623307,-5.826194,-7.916334,-1.886062,0.284621,1.122107,0.472804,33.002879,-20.261173,25.803041,4.63583E+18,0.549007,-0.019989,0.79336,0.262243,0
-9.526762,-0.503306,1.655504,-1.234027,-0.391395,-0.061051,31.100758,-15.504685,-30.694922,4.63583E+18,0.296856,-0.478048,0.148168,0.813261,-10.275811,2.382949,-0.724312,-0.663563,0.458921,-1.277919,44.681283,7.43558,-10.775996,4.63583E+18,0.231926,0.702307,0.255899,-0.622487,-5.505882,-4.728259,-1.965087,0.333502,1.109257,0.246982,32.761856,-20.310115,26.25782,4.63583E+18,0.545146,-0.019657,0.796253,0.261553,0
-9.075991,-0.505206,1.705236,-1.260643,-0.325494,-0.062443,31.007802,-15.036007,-30.962487,4.63583E+18,0.294825,-0.478541,0.143411,0.814561,-10.072958,2.393586,-0.85921,-0.597011,0.47908,-1.357236,44.583623,7.925129,-10.516201,4.63583E+18,0.22968,0.701505,0.261894,-0.621731,-4.917434,-4.012515,-2.297906,0.385246,1.132207,-0.053432,32.453658,-20.188259,26.575432,4.63583E+18,0.541528,-0.020227,0.799212,0.259999,0
-8.731286,-0.477989,1.770976,-1.285298,-0.279547,-0.065402,30.970182,-14.78326,-31.320207,4.63583E+18,0.292601,-0.47923,0.138548,0.815799,-9.408449,2.361376,-0.750895,-0.567597,0.527613,-1.458738,44.477195,8.433148,-10.33309,4.63583E+18,0.227022,0.700714,0.268143,-0.620934,-4.056196,-4.562612,-2.350159,0.473947,1.15734,-0.319445,32.157553,-19.919568,26.721751,4.63583E+18,0.538107,-0.021508,0.802279,0.25754,0
-8.51337,-0.411353,1.877033,-1.307972,-0.248241,-0.067538,30.812598,-14.51952,-31.538222,4.63583E+18,0.290312,-0.480038,0.133638,0.81696,-9.03535,2.963275,-0.380934,-0.559325,0.59088,-1.570482,44.292836,9.024422,-10.102391,4.63583E+18,0.223969,0.699934,0.274744,-0.620037,-3.833037,-4.291583,-2.105931,0.502064,1.145093,-0.547486,31.946906,-19.745672,27.081618,4.63583E+18,0.534959,-0.023474,0.805304,0.254467,0
-8.372488,-0.303395,2.093846,-1.332127,-0.214806,-0.068361,30.616282,-14.144914,-31.59556,4.63583E+18,0.287949,-0.480974,0.12868,0.818041,-8.828151,3.10197,-0.420359,-0.533666,0.668707,-1.694971,44.113801,9.777751,-9.474234,4.63583E+18,0.220417,0.699196,0.281698,-0.619022,-3.857733,-3.607747,-1.956321,0.451911,1.103701,-0.772064,31.81563,-19.483403,27.573194,4.63583E+18,0.532165,-0.026259,0.808135,0.251057,0
-8.250414,-0.346397,2.347402,-1.338967,-0.17455,-0.063109,30.600151,-13.734567,-31.672499,4.63583E+18,0.285523,-0.482037,0.123754,0.819025,-8.790543,2.681875,-0.567493,-0.485828,0.767365,-1.877217,44.078431,10.624118,-9.030369,4.63583E+18,0.216125,0.698493,0.289131,-0.6179,-3.650255,-3.055712,-1.85567,0.363268,1.05541,-0.983548,31.733217,-19.092766,27.829646,4.63583E+18,0.529725,-0.029899,0.810713,0.247472,0
-8.068329,-0.530388,2.64405,-1.314344,-0.116728,-0.049969,30.725908,-13.477099,-31.962419,4.63583E+18,0.283263,-0.483217,0.119122,0.819801,-9.311357,2.593966,-0.572755,-0.306401,0.791951,-2.027933,44.037755,11.571625,-8.780574,4.63583E+18,0.210877,0.697777,0.29654,-0.61701,-3.393957,-2.313826,-1.621043,0.255959,0.973702,-1.203306,31.681251,-18.762928,28.131289,4.63583E+18,0.527753,-0.034432,0.81294,0.243763,0
-7.781064,-0.880474,3.011173,-1.247416,-0.017921,-0.03329,30.727048,-13.318399,-32.297748,4.63583E+18,0.280822,-0.484663,0.114747,0.82041,-10.076972,2.080641,-1.064927,0.067589,0.636936,-2.178172,43.854665,12.165015,-8.686384,4.63583E+18,0.204328,0.696745,0.303263,-0.617112,-2.970359,-1.965229,-1.117547,0.124043,0.891457,-1.424677,31.690418,-18.573916,28.720547,4.63583E+18,0.526241,-0.039919,0.814783,0.240013,0
-7.398955,-1.334934,3.281758,-1.126517,0.094076,-0.012918,30.644396,-13.107189,-32.410656,4.63583E+18,0.278496,-0.486329,0.110955,0.82074,-10.482027,1.865427,-0.786561,0.502173,0.54822,-2.308638,43.670302,12.857954,-8.515481,4.63583E+18,0.196275,0.695624,0.309143,-0.618073,-2.08562,-2.066144,-0.474189,-0.028043,0.798324,-1.624197,31.726878,-18.198796,29.02302,4.63583E+18,0.525191,-0.04632,0.816193,0.236343,0
-7.178974,-1.70877,3.514578,-0.966981,0.204579,0.00623,30.713694,-12.810538,-32.365643,4.63583E+18,0.27637,-0.488168,0.107874,0.820777,-10.848154,2.462917,-0.963712,0.876277,0.483627,-2.385687,43.458738,13.813014,-8.363321,4.63583E+18,0.187002,0.694468,0.314196,-0.619698,-0.862487,-2.211799,0.539106,-0.240975,0.671445,-1.786053,31.894629,-17.7072,29.099301,4.63583E+18,0.524658,-0.053608,0.817036,0.233051,0
-6.878793,-1.838612,3.238337,-0.80569,0.21368,0.010192,30.917384,-12.480962,-32.412421,4.63583E+18,0.27455,-0.489843,0.105361,0.820716,-11.566658,3.391042,-1.251876,1.205029,0.488848,-2.560937,43.089737,14.472206,-8.376778,4.63583E+18,0.176293,0.693262,0.318871,-0.621795,0.44518,-2.537064,1.69157,-0.532352,0.514184,-1.920112,32.108326,-17.389836,29.206002,4.63583E+18,0.524689,-0.061833,0.817165,0.230476,0
