Accelerometer-X,Accelerometer-Y,Accelerometer-Z,Gyroscope-X,Gyroscope-Y,Gyroscope-Z,Magnetometer-X,Magnetometer-Y,Magnetometer-Z,Barometer-pressure,Orientation-S,Orientation-X,Orientation-Y,Orientation-Z,Accelerometer-X,Accelerometer-Y,Accelerometer-Z,Gyroscope-X,Gyroscope-Y,Gyroscope-Z,Magnetometer-X,Magnetometer-Y,Magnetometer-Z,Barometer-pressure,Orientation-S,Orientation-X,Orientation-Y,Orientation-Z,Accelerometer-X,Accelerometer-Y,Accelerometer-Z,Gyroscope-X,Gyroscope-Y,Gyroscope-Z,Magnetometer-X,Magnetometer-Y,Magnetometer-Z,Barometer-pressure,Orientation-S,Orientation-X,Orientation-Y,Orientation-Z,jump
-10.437886,-0.791125,-1.590989,0.97568,-0.416443,0.19687,41.833037,20.225622,-2.06454,4.63583E+18,0.456881,0.515497,0.481123,-0.542257,-4.541268,1.275388,-0.793367,2.96207,1.828476,1.354042,35.245588,30.176587,8.241899,4.63583E+18,0.670103,0.064764,0.611124,-0.416287,-9.704842,-0.732268,-1.464669,0.027714,0.058729,0.211443,44.630004,2.343822,-13.25724,4.63583E+18,0.008829,0.826262,0.033777,-0.562203,0
-10.185836,-0.471336,-1.211343,0.992054,-0.528667,0.195622,41.910069,20.113696,-2.318866,4.63583E+18,0.456232,0.51655,0.477467,-0.545026,-4.655315,1.163593,-0.679321,2.876709,1.951026,1.437516,35.328224,30.021759,7.993298,4.63583E+18,0.666826,0.079495,0.611208,-0.418866,-9.57112,-0.64732,-1.598654,0.044797,0.058748,0.218942,44.557303,2.185734,-13.159956,4.63583E+18,0.009743,0.826358,0.032912,-0.562098,0
-9.780957,-0.043548,-0.81931,0.978519,-0.543983,0.184913,41.969051,19.942799,-2.536861,4.63583E+18,0.455607,0.51751,0.473826,-0.547809,-5.124115,1.636964,-0.496044,2.725944,2.063704,1.546909,35.267043,29.718264,7.702285,4.63583E+18,0.663166,0.094518,0.611655,-0.420898,-9.60709,-0.537535,-1.587008,0.051247,0.050235,0.229612,44.557022,2.112153,-13.159581,4.63583E+18,0.010657,0.826435,0.03199,-0.562022,0
-9.351143,0.196487,-0.696991,0.961207,-0.477051,0.166605,41.916144,19.851277,-2.81295,4.63583E+18,0.454835,0.518543,0.470381,-0.550436,-5.722314,0.866872,-0.09686,2.665311,2.182624,1.612292,35.540441,29.317358,7.664237,4.63583E+18,0.659179,0.109725,0.61236,-0.422444,-9.558578,-0.366858,-1.501829,0.057656,0.048075,0.223267,44.642157,1.953775,-13.159581,4.63583E+18,0.011533,0.826505,0.031075,-0.561953,0
-9.057602,0.299663,-0.792609,0.983815,-0.39112,0.153711,41.820821,19.857375,-3.132364,4.63583E+18,0.453807,0.519781,0.467066,-0.552935,-6.495854,0.950717,0.893206,2.649699,2.207874,1.772219,35.953641,28.902282,7.839578,4.63583E+18,0.655247,0.125315,0.612933,-0.423392,-9.582718,-0.123011,-1.48935,0.053424,0.050195,0.213666,44.727596,1.953184,-13.062296,4.63583E+18,0.012401,0.826578,0.030205,-0.561874,0
-8.959363,0.33425,-0.768773,0.995056,-0.315154,0.140054,41.920517,19.71292,-3.480567,4.63583E+18,0.452565,0.521179,0.46389,-0.555305,-8.372142,-4.70877,6.264031,3.068142,1.971617,1.381761,36.166791,28.691142,7.883971,4.63583E+18,0.65084,0.1406,0.612165,-0.426489,-9.473367,-0.195037,-1.452822,0.052343,0.049139,0.209373,44.727924,1.953184,-13.061921,4.63583E+18,0.013263,0.826647,0.029355,-0.561798,0
-9.003534,0.260736,-0.545887,0.970415,-0.264776,0.11811,42.052752,19.676582,-3.734862,4.63583E+18,0.45122,0.522595,0.460905,-0.557549,-10.449203,-25.40917,6.013469,3.547104,2.157626,0.497811,36.19495,28.734346,7.804424,4.63583E+18,0.64418,0.154856,0.611487,-0.432591,-9.3635,-0.025071,-1.574286,0.037443,0.042751,0.197652,44.569839,1.795098,-13.147045,4.63583E+18,0.014146,0.826698,0.028577,-0.561741,0
-9.053242,0.07761,-0.224972,0.946329,-0.243182,0.0971,42.076887,19.727163,-4.017093,4.63583E+18,0.449829,0.523967,0.458056,-0.559729,-14.093987,-23.208315,4.58966,4.060549,1.761198,0.685735,36.256111,28.891141,7.38059,4.63583E+18,0.638266,0.170304,0.608488,-0.439722,-9.654896,-0.304073,-1.744982,0.026746,0.025703,0.191224,44.569229,1.63642,-13.244646,4.63583E+18,0.01505,0.826707,0.027843,-0.561741,0
-9.058768,-0.135715,-0.14502,0.924508,-0.215337,0.088072,42.044326,19.647833,-4.462943,4.63583E+18,0.448404,0.525337,0.455323,-0.561815,-17.95737,-17.973479,13.542027,4.543444,1.387489,0.239488,36.278389,29.000884,6.413228,4.63583E+18,0.631894,0.18518,0.603708,-0.449394,-9.741169,-0.706434,-1.709181,0.043726,0.014996,0.188007,44.642185,1.79386,-13.15992,4.63583E+18,0.015892,0.82669,0.027085,-0.56178,0
-9.082569,-0.382466,-0.433575,0.93678,-0.151133,0.079097,42.0769,19.470808,-4.724265,4.63583E+18,0.446801,0.526856,0.452694,-0.56379,-16.20669,-20.702629,16.274293,4.97685,1.328237,-0.296562,36.137698,29.292212,5.493887,4.63583E+18,0.623887,0.199902,0.598046,-0.461677,-9.668562,-0.45272,-1.733352,0.05656,0.006444,0.205015,44.569528,1.952537,-12.965059,4.63583E+18,0.016734,0.826655,0.026245,-0.561848,0
-9.301655,-0.515604,-0.791965,0.984292,-0.090441,0.062338,41.991457,19.470808,-4.754466,4.63583E+18,0.444932,0.528567,0.450097,-0.565744,-11.515399,-8.495112,12.34776,5.312783,1.556033,-0.144261,35.905638,29.632004,4.939119,4.63583E+18,0.615015,0.216215,0.591903,-0.473982,-9.789825,-0.500298,-1.782076,0.086394,-0.008482,0.206148,44.569229,1.795155,-13.061511,4.63583E+18,0.017474,0.826586,0.025327,-0.561968,0
-9.682095,-0.59841,-0.925751,0.985582,-0.10951,0.046977,41.93243,19.444382,-4.938954,4.63583E+18,0.443051,0.530197,0.447488,-0.56776,-8.449189,3.432648,5.562839,5.227955,1.829479,0.083854,35.865353,29.831108,4.369278,4.63583E+18,0.605667,0.233297,0.586106,-0.484994,-9.790338,-0.439723,-1.66072,0.105666,-0.008545,0.210407,44.727258,1.490585,-13.244263,4.63583E+18,0.018151,0.826519,0.024343,-0.56209,0
-10.064934,-0.749556,-0.715719,0.947249,-0.221422,0.033091,41.955082,19.35893,-5.256981,4.63583E+18,0.441423,0.531457,0.444787,-0.569968,-7.478079,10.972874,3.618067,4.753133,1.599928,0.139252,35.865353,30.001995,3.783381,4.63583E+18,0.597416,0.248437,0.580479,-0.494386,-9.620151,-0.086939,-1.453553,0.10681,-0.000036,0.211489,44.74008,1.416366,-13.245032,4.63583E+18,0.018825,0.826471,0.023353,-0.56218,0
-10.234461,-0.872512,-0.182121,0.934475,-0.353786,0.019205,41.983025,19.273478,-5.409891,4.63583E+18,0.440027,0.532345,0.441897,-0.572461,-9.095658,11.852937,7.411066,3.855768,1.117561,-0.036114,35.79401,30.234045,3.197437,4.63583E+18,0.590653,0.259888,0.575464,-0.502422,-9.461423,0.04825,-1.270361,0.096179,0.013826,0.198731,44.509196,1.403904,-12.953321,4.63583E+18,0.019504,0.826452,0.022434,-0.562222,0
-10.142103,-0.989041,0.388471,0.940223,-0.416402,0.012256,41.928656,19.214453,-5.589708,4.63583E+18,0.438709,0.533072,0.438887,-0.575106,-11.107752,6.494716,10.657543,3.084038,0.881298,-0.202656,35.708557,30.274361,2.611482,4.63583E+18,0.584808,0.268497,0.571536,-0.50917,-9.436429,0.073139,-1.318189,0.081244,0.027712,0.182722,44.435264,1.245841,-12.854818,4.63583E+18,0.020193,0.826463,0.021604,-0.562214,0
-9.860238,-1.159046,0.743994,0.945156,-0.377557,0.023442,41.942865,19.184263,-6.036918,4.63583E+18,0.437328,0.533913,0.435904,-0.577642,-11.845953,3.987273,11.440881,2.444095,0.862905,-0.213425,35.633306,30.284551,2.117299,4.63583E+18,0.579399,0.275688,0.568737,-0.514618,-9.545715,-0.023993,-1.50072,0.064163,0.030962,0.168827,44.507878,1.087145,-13.133953,4.63583E+18,0.020904,0.826478,0.020859,-0.562193,0
-9.558174,-1.354357,0.912892,0.959488,-0.242857,0.042512,42.016105,19.116793,-6.520086,4.63583E+18,0.435707,0.535129,0.433082,-0.579859,-12.701086,5.86935,11.305761,1.62361,0.80546,-0.121261,35.549872,30.419039,2.028446,4.63583E+18,0.575215,0.280969,0.567402,-0.517919,-9.728488,-0.145947,-1.513664,0.03644,0.026723,0.180465,44.508194,1.01354,-13.329617,4.63583E+18,0.021736,0.826482,0.020138,-0.562183,0
-9.456075,-1.549659,0.969938,0.999122,-0.071401,0.064359,42.017673,19.116793,-6.714072,4.63583E+18,0.433733,0.536862,0.430421,-0.581716,-13.312898,7.277159,11.257245,0.729067,0.708047,-0.077756,35.464428,30.445263,2.026429,4.63583E+18,0.572379,0.283988,0.567691,-0.519095,-9.717148,-0.268021,-1.428646,0.03419,0.02564,0.186897,44.666185,1.013214,-13.233259,4.63583E+18,0.022591,0.826482,0.019401,-0.562174,0
-9.521984,-1.711027,0.882496,1.059694,0.024526,0.081528,41.908016,19.067754,-6.710299,4.63583E+18,0.431484,0.538958,0.427741,-0.583424,-13.505616,6.788287,11.194093,-0.078823,0.603723,-0.128799,35.450298,30.373943,2.026429,4.63583E+18,0.570628,0.28473,0.569533,-0.518599,-9.644174,-0.353635,-1.476879,0.052259,0.03627,0.199687,44.679042,0.940295,-13.050527,4.63583E+18,0.02341,0.82651,0.018579,-0.562128,0
-9.688225,-1.770074,0.739779,1.135065,0.040319,0.094501,41.957055,18.878881,-6.758448,4.63583E+18,0.42906,0.541241,0.424868,-0.585195,-13.199804,3.861664,9.307485,-0.742417,0.592653,-0.180932,35.521612,30.502437,2.352428,4.63583E+18,0.569784,0.283508,0.572955,-0.516422,-9.631697,-0.268953,-1.525703,0.079984,0.039507,0.20506,44.521125,0.93997,-13.037563,4.63583E+18,0.024147,0.826548,0.017676,-0.562071,0
-9.84492,-1.739906,0.586658,1.213483,0.020843,0.100736,42.093108,18.675346,-6.94531,4.63583E+18,0.426497,0.543614,0.421746,-0.587124,-12.523858,0.536944,5.318914,-1.103967,0.643814,-0.188171,35.454243,30.663165,2.732908,4.63583E+18,0.569178,0.281551,0.577252,-0.513367,-9.607338,-0.122742,-1.574532,0.094997,0.048028,0.202958,44.593309,0.854908,-13.134721,4.63583E+18,0.024824,0.826606,0.016745,-0.561984,0
-9.935019,-1.608361,0.372549,1.265716,0.00567,0.102133,42.148397,18.665271,-7.170722,4.63583E+18,0.423834,0.546031,0.418455,-0.58916,-12.229535,-1.285643,1.749696,-1.212609,0.633204,-0.220976,35.234341,30.546788,3.039995,4.63583E+18,0.568458,0.279424,0.581679,-0.51032,-9.63153,-0.012708,-1.526148,0.083369,0.053383,0.201885,44.751619,0.781608,-13.037952,4.63583E+18,0.025537,0.826674,0.015845,-0.561877,0
-10.004495,-1.366924,0.135033,1.30827,-0.001504,0.106248,42.139957,18.748612,-7.490075,4.63583E+18,0.421084,0.548497,0.415027,-0.591262,-12.123885,-2.923598,-0.252283,-1.304322,0.567634,-0.27565,35.122631,30.518509,3.485776,4.63583E+18,0.567867,0.2768,0.58619,-0.507238,-9.607341,0.145746,-1.440873,0.070558,0.062976,0.195501,44.618686,0.62332,-12.758051,4.63583E+18,0.026275,0.826763,0.014997,-0.561736,0
-10.073068,-1.008086,0.007536,1.346645,-0.042634,0.113145,42.113582,18.640553,-7.778076,4.63583E+18,0.418321,0.550925,0.411405,-0.593494,-11.865251,-3.422459,-0.771432,-1.565361,0.493931,-0.239735,35.169615,30.589819,4.053549,4.63583E+18,0.567807,0.273479,0.591013,-0.503496,-9.595076,0.18294,-1.440474,0.05774,0.071526,0.18484,44.545158,0.464624,-12.744586,4.63583E+18,0.027028,0.826869,0.014213,-0.561564,0
-10.124609,-0.533805,0.062093,1.375036,-0.115176,0.112722,42.031897,18.451713,-7.863528,4.63583E+18,0.415602,0.553204,0.407574,-0.595923,-11.623232,-2.977974,-0.542873,-1.814509,0.465692,-0.123767,35.181736,30.461355,4.557958,4.63583E+18,0.568312,0.26978,0.596128,-0.49887,-9.619319,0.12236,-1.489075,0.03748,0.068376,0.177348,44.617714,0.39098,-12.938934,4.63583E+18,0.027832,0.826965,0.013501,-0.561402,0
-10.051212,-0.050333,0.157792,1.366873,-0.150991,0.104507,42.003866,18.221733,-8.095925,4.63583E+18,0.412927,0.555349,0.403707,-0.598414,-11.014422,-2.891133,-0.304952,-1.690314,0.469638,-0.053523,35.110435,30.361756,4.964758,4.63583E+18,0.56878,0.266545,0.600882,-0.494352,-9.570839,0.024884,-1.574345,0.033133,0.071551,0.164556,44.763846,0.390637,-13.037038,4.63583E+18,0.028619,0.827066,0.012845,-0.561229,0
-9.853047,0.295072,0.145442,1.345616,-0.101309,0.098349,42.050738,18.050842,-8.631056,4.63583E+18,0.410188,0.557552,0.399982,-0.600746,-9.943748,-3.758945,-0.268563,-1.21392,0.487987,-0.079444,35.024985,30.337419,5.426695,4.63583E+18,0.568595,0.264401,0.604703,-0.491046,-9.570604,-0.097073,-1.720541,0.037365,0.06944,0.161306,44.691655,0.475679,-13.037507,4.63583E+18,0.029385,0.827162,0.012193,-0.561063,0
-9.632433,0.527893,0.004557,1.341014,-0.017867,0.096792,42.019705,17.857369,-8.956468,4.63583E+18,0.407304,0.559936,0.396402,-0.60286,-8.592676,-4.949239,-0.176902,-0.581336,0.568878,-0.169397,35.010834,30.406689,6.075874,4.63583E+18,0.567312,0.263689,0.607508,-0.489447,-9.594902,0.035978,-1.696946,0.041637,0.064115,0.162353,44.53337,0.46394,-13.025358,4.63583E+18,0.030137,0.827245,0.011528,-0.560914,0
-9.463467,0.712832,-0.186095,1.337651,0.019875,0.09827,41.942691,17.662166,-9.004516,4.63583E+18,0.404355,0.562395,0.39288,-0.604859,-7.598248,-5.701477,0.055174,-0.049013,0.631507,-0.220612,35.00065,30.481954,6.586342,4.63583E+18,0.56539,0.263966,0.609542,-0.488995,-9.54643,0.109506,-1.623945,0.048035,0.066215,0.150667,44.775555,0.476029,-12.843089,4.63583E+18,0.03084,0.827333,0.010891,-0.560759,0
-9.353609,0.869692,-0.363484,1.342013,0.008455,0.092999,41.9589,17.603075,-9.191376,4.63583E+18,0.401388,0.564806,0.389328,-0.606882,-7.619649,-6.401414,0.006,0.36051,0.707723,-0.189197,34.866228,30.494093,6.665242,4.63583E+18,0.562666,0.265705,0.610765,-0.489667,-9.473306,0.061277,-1.59929,0.062947,0.069414,0.13254,45.007556,0.318173,-12.854336,4.63583E+18,0.031445,0.827429,0.010279,-0.560595,0
-9.251272,1.054629,-0.484645,1.34948,-0.001567,0.073273,42.203049,17.550367,-9.38293,4.63583E+18,0.398356,0.567155,0.385776,-0.608954,-7.613309,-6.416923,-1.111981,0.700448,0.78248,-0.119214,34.758465,30.636657,6.583778,4.63583E+18,0.559509,0.268569,0.611382,-0.49095,-9.485092,0.097479,-1.659906,0.07365,0.060926,0.120759,44.850779,0.086593,-13.036606,4.63583E+18,0.031981,0.827506,0.009675,-0.560461,0
-9.162056,1.200205,-0.61984,1.343061,-0.011101,0.043025,42.319189,17.405818,-9.566041,4.63583E+18,0.395264,0.569402,0.382285,-0.611069,-7.493214,-4.96107,-1.992413,0.919105,0.813411,-0.048907,34.670999,30.736268,6.638854,4.63583E+18,0.556159,0.272179,0.611532,-0.49258,-9.570174,0.267702,-1.720936,0.079016,0.053445,0.101571,44.789271,-0.133174,-13.025361,4.63583E+18,0.032447,0.827566,0.009118,-0.560356,0
-9.075693,1.356044,-0.71088,1.328357,-0.022521,0.002108,42.152055,17.320369,-9.779261,4.63583E+18,0.392109,0.571514,0.378898,-0.613236,-7.369117,-4.593985,-2.35826,1.078223,0.845641,-0.01155,34.728089,30.821719,6.490133,4.63583E+18,0.552775,0.276101,0.611464,-0.494287,-9.655616,0.268563,-1.818399,0.079043,0.039593,0.082347,44.861828,-0.219292,-12.928144,4.63583E+18,0.032867,0.827592,0.008625,-0.560301,0
-9.048532,1.474345,-0.767232,1.312986,-0.035506,-0.04251,42.038534,17.212344,-10.060008,4.63583E+18,0.388884,0.57348,0.375625,-0.615464,-7.145254,-5.137685,-3.025848,1.231667,0.902978,0.045255,34.681189,30.764639,6.386455,4.63583E+18,0.548996,0.280839,0.61103,-0.496361,-9.6682,0.219985,-1.818903,0.082231,0.02677,0.06737,44.789341,-0.061856,-12.842629,4.63583E+18,0.033243,0.827586,0.008178,-0.560294,0
-9.123706,1.565394,-0.840477,1.276315,-0.05136,-0.092135,42.03009,17.125152,-10.314434,4.63583E+18,0.385631,0.575251,0.37253,-0.617735,-6.768812,-4.933644,-3.841661,1.438009,0.969376,0.147279,34.597774,30.8217,6.362086,4.63583E+18,0.544991,0.286433,0.610174,-0.498626,-9.656119,0.195444,-1.697459,0.088623,0.018203,0.050291,44.631087,-0.000315,-12.745033,4.63583E+18,0.033556,0.827561,0.007776,-0.560319,0
-9.284316,1.591645,-0.887378,1.210094,-0.056114,-0.129831,41.981178,17.224729,-10.509738,4.63583E+18,0.382437,0.576829,0.369678,-0.619958,-6.21324,-3.333623,-4.651472,1.656642,1.031331,0.318767,34.644652,30.896979,6.441495,4.63583E+18,0.541065,0.292859,0.608866,-0.500764,-9.583198,0.219604,-1.745401,0.099281,0.016033,0.037453,44.630268,-0.060715,-12.744529,4.63583E+18,0.033801,0.827531,0.007391,-0.560353,0
-9.500259,1.552189,-0.897738,1.143549,-0.046912,-0.146423,41.871395,17.28562,-10.671182,4.63583E+18,0.379335,0.578286,0.367044,-0.622068,-5.535723,-1.429381,-5.385845,1.952189,1.072616,0.484661,34.72807,30.919324,6.376287,4.63583E+18,0.536991,0.300421,0.606795,-0.503178,-9.582811,0.146876,-1.757802,0.103588,0.004335,0.028885,44.860981,-0.133895,-12.841672,4.63583E+18,0.034007,0.827475,0.007022,-0.560428,0
-9.72285,1.452605,-0.909874,1.08415,-0.034584,-0.156447,41.893966,17.096814,-10.786737,4.63583E+18,0.376323,0.579653,0.364601,-0.62406,-5.939188,-3.065137,-4.630192,2.487449,1.043205,0.555283,34.681199,30.921352,5.963097,4.63583E+18,0.532222,0.309491,0.603271,-0.506971,-9.61924,0.146489,-1.745723,0.10361,-0.004227,0.02034,44.78935,-0.061424,-12.745044,4.63583E+18,0.034194,0.827398,0.006683,-0.560534,0
-9.960381,1.312726,-0.748284,1.057963,-0.024157,-0.1617,41.895744,16.945788,-10.973596,4.63583E+18,0.373335,0.580986,0.362248,-0.625981,-6.358196,-3.953439,-3.783924,3.070125,1.04501,0.70648,34.740276,30.850104,5.558258,4.63583E+18,0.52693,0.320187,0.598228,-0.511809,-9.655863,0.146489,-1.733516,0.100423,-0.01596,0.014982,44.15753,0.376109,-12.635243,4.63583E+18,0.034371,0.827293,0.006358,-0.560682,0
-10.103041,1.207565,-0.461945,1.060915,-0.033201,-0.157591,41.782183,17.004913,-11.168882,4.63583E+18,0.370357,0.582294,0.359858,-0.62791,-6.441449,-2.974072,-3.731431,3.641699,1.076172,0.872024,34.9682,30.774838,5.015001,4.63583E+18,0.521031,0.332544,0.591678,-0.517551,-9.765342,0.085774,-1.745594,0.090843,-0.029835,0.016017,43.753462,0.754861,-12.634663,4.63583E+18,0.034582,0.827155,0.00605,-0.560876,0
-10.06731,1.070454,-0.270423,1.042421,-0.050203,-0.153979,41.826361,16.925973,-11.360441,4.63583E+18,0.36745,0.583524,0.357474,-0.629835,-6.465863,-1.741174,-3.666257,4.154019,1.069567,1.014253,35.15331,30.833895,4.197017,4.63583E+18,0.514744,0.346074,0.583737,-0.523948,-9.765923,0.061172,-1.782079,0.087606,-0.037344,0.018147,43.581372,1.0725,-12.731783,4.63583E+18,0.034808,0.826998,0.00574,-0.561097,0
-9.85131,0.895798,-0.22725,1.012191,-0.038692,-0.162443,41.843155,16.748558,-11.573614,4.63583E+18,0.36457,0.584714,0.355203,-0.631688,-6.55134,-0.774859,-3.171695,4.545451,1.042146,1.118206,35.324213,30.787047,3.411708,4.63583E+18,0.508028,0.360485,0.574545,-0.530901,-9.656663,-0.036083,-1.818701,0.089713,-0.048008,0.02347,43.42261,1.219932,-12.635202,4.63583E+18,0.035036,0.826817,0.005404,-0.561353,0
-9.545217,0.727733,-0.274209,1.009977,-0.007886,-0.171479,41.536127,16.797406,-11.828058,4.63583E+18,0.361618,0.585958,0.353001,-0.633464,-6.486187,-0.44961,-2.475967,4.842844,1.023817,1.205595,35.708749,30.439103,2.561399,4.63583E+18,0.500898,0.375541,0.564295,-0.538184,-9.643916,-0.121602,-1.916023,0.096098,-0.067187,0.035184,43.506715,1.06292,-12.634663,4.63583E+18,0.035268,0.826592,0.005009,-0.561673,0
-9.302017,0.634785,-0.300469,1.033808,0.005177,-0.178465,41.460148,16.858399,-11.933191,4.63583E+18,0.358563,0.58725,0.350766,-0.635242,-6.439398,-0.343825,-1.918492,5.106332,1.018478,1.297284,36.074983,30.097287,1.623394,4.63583E+18,0.493341,0.391178,0.553043,-0.545654,-9.728819,-0.182767,-1.892285,0.101444,-0.086412,0.043746,43.580016,0.916381,-12.816741,4.63583E+18,0.035512,0.826322,0.004576,-0.562058,0
-9.135803,0.642301,-0.136121,1.064372,0.02178,-0.191448,41.714589,16.669637,-11.91821,4.63583E+18,0.355366,0.588602,0.348502,-0.637031,-6.514706,-0.268547,-1.485143,5.345419,1.014383,1.392886,36.286546,29.838909,0.661022,4.63583E+18,0.485369,0.40732,0.540805,-0.553207,-9.7293,-0.1467,-1.904285,0.09404,-0.100326,0.070344,43.034261,0.903418,-12.805636,4.63583E+18,0.035852,0.826019,0.004072,-0.562487,0
-8.975254,0.689252,0.039441,1.073323,0.067542,-0.209275,41.747439,16.518499,-12.126658,4.63583E+18,0.352025,0.590051,0.346319,-0.638734,-6.69373,-0.032548,-1.22277,5.505593,1.028805,1.492561,36.540832,29.452387,-0.364208,4.63583E+18,0.47705,0.423825,0.527761,-0.560593,-9.717164,-0.304271,-1.96504,0.086563,-0.132266,0.091738,43.116054,0.587784,-12.805566,4.63583E+18,0.036276,0.825638,0.003513,-0.563021,0
-8.906712,0.738071,0.073244,1.058206,0.130651,-0.221107,41.710828,16.626502,-12.363296,4.63583E+18,0.348591,0.591616,0.344292,-0.640264,-6.899213,0.642908,-0.939976,5.581427,1.030941,1.587622,36.951801,28.844072,-1.330588,4.63583E+18,0.468539,0.44045,0.514077,-0.567627,-9.619996,-0.53579,-2.001803,0.10776,-0.149442,0.120535,44.390944,-0.227229,-12.9148,4.63583E+18,0.03671,0.82522,0.00282,-0.56361,0
-8.979969,0.646979,0.043187,1.054508,0.200489,-0.217819,41.735228,16.736349,-12.465644,4.63583E+18,0.345066,0.593354,0.342362,-0.641599,-7.228846,1.237062,-0.657143,5.519647,1.101979,1.6478,37.391311,28.115624,-2.354077,4.63583E+18,0.459651,0.457174,0.500107,-0.574113,-9.631571,-0.452166,-1.941329,0.128061,-0.173967,0.155747,44.859533,-0.365449,-13.121763,4.63583E+18,0.037162,0.824747,0.001958,-0.564276,0
-9.189348,0.492058,-0.061972,1.045881,0.255697,-0.20681,41.600961,16.661236,-12.581131,4.63583E+18,0.341505,0.59523,0.3405,-0.642755,-7.328511,2.083397,-0.569679,5.368155,1.138468,1.717226,37.759532,27.513452,-3.320414,4.63583E+18,0.450872,0.473572,0.486145,-0.579747,-9.716601,-0.233206,-1.904566,0.12924,-0.195348,0.182499,44.631604,-0.147755,-13.025862,4.63583E+18,0.037677,0.824223,0.001005,-0.56501,0
-9.442878,0.398147,-0.17653,1.043744,0.262932,-0.199333,41.507029,16.492203,-12.737948,4.63583E+18,0.337951,0.597121,0.33863,-0.643867,-7.947005,2.447579,-0.408952,5.096851,1.312928,1.743573,38.052504,26.797299,-4.191191,4.63583E+18,0.44209,0.489673,0.472844,-0.584119,-9.704957,-0.231941,-1.843677,0.116503,-0.212461,0.211324,44.630268,-0.292116,-13.013164,4.63583E+18,0.038302,0.823654,-0.000022,-0.565797,0
-9.621673,0.449322,-0.282226,1.040925,0.222606,-0.206809,41.75223,16.515049,-12.836028,4.63583E+18,0.334433,0.598877,0.336724,-0.645072,-8.781175,2.205478,1.81885,5.017803,1.073673,1.758883,38.39431,26.052648,-4.964329,4.63583E+18,0.433747,0.504819,0.459017,-0.588493,-9.632072,-0.183398,-1.685555,0.093067,-0.232737,0.248659,44.78803,-0.681318,-13.207262,4.63583E+18,0.039088,0.823033,-0.001133,-0.566646,0
-9.653019,0.544527,-0.425047,1.019854,0.167671,-0.230676,41.892771,16.514465,-12.903225,4.63583E+18,0.330973,0.600411,0.334851,-0.646404,-14.079878,-11.001502,10.008024,4.941448,0.956721,0.744234,38.605874,25.511548,-5.558314,4.63583E+18,0.423092,0.517358,0.447079,-0.59452,-9.449607,-0.231654,-1.526859,0.071692,-0.244537,0.277549,44.558386,-0.768564,-13.29336,4.63583E+18,0.040013,0.822378,-0.002297,-0.567528,0
-9.583254,0.546739,-0.521882,1.037311,0.112432,-0.260357,41.756337,16.379298,-12.930677,4.63583E+18,0.327459,0.601766,0.332924,-0.647928,-11.736032,-23.369205,1.40987,2.745203,1.642855,-0.195508,38.717797,25.366995,-5.977496,4.63583E+18,0.413432,0.52581,0.443675,-0.596448,-9.545603,-0.062062,-1.756474,0.054578,-0.265841,0.311694,44.314339,-0.926811,-13.46374,4.63583E+18,0.041073,0.821666,-0.003545,-0.568476,0
-9.578005,0.43643,-0.448195,1.10255,0.082054,-0.27318,41.567093,16.34875,-12.988677,4.63583E+18,0.323781,0.603097,0.330805,-0.649622,-13.399266,-11.64816,-0.246246,1.414734,1.020921,0.445641,38.795117,25.354776,-5.879927,4.63583E+18,0.409379,0.531548,0.441049,-0.596105,-10.055823,-0.206647,-1.927744,0.037488,-0.314809,0.340566,44.38568,-1.000568,-13.755986,4.63583E+18,0.042258,0.820832,-0.00486,-0.569583,0
-9.674337,0.370586,-0.379757,1.13765,0.094645,-0.262958,41.540909,16.379298,-13.051424,4.63583E+18,0.320016,0.60451,0.328575,-0.651303,-15.515135,-0.419532,9.927814,1.251865,0.596995,0.685371,39.092093,25.008999,-5.837176,4.63583E+18,0.407041,0.536371,0.437552,-0.595963,-10.204493,-0.31672,-1.783177,0.020399,-0.338459,0.386388,44.543844,-1.231528,-13.939734,4.63583E+18,0.043606,0.819934,-0.006299,-0.57076,0
-9.860927,0.240286,-0.214987,1.144335,0.081112,-0.241789,41.563171,16.293847,-13.274194,4.63583E+18,0.316302,0.605909,0.326249,-0.652985,-11.451916,4.21064,9.632365,1.004137,0.719698,0.761393,39.301687,24.665144,-5.987684,4.63583E+18,0.405205,0.541195,0.434692,-0.594944,-10.07193,-0.135402,-1.612423,0.011802,-0.351342,0.431257,44.556947,-1.548398,-13.746731,4.63583E+18,0.045085,0.818998,-0.007879,-0.571969,0
-10.045361,-0.109793,0.034403,1.082901,0.035941,-0.217294,41.426749,16.231924,-13.523583,4.63583E+18,0.312863,0.607123,0.323963,-0.654649,-9.076671,8.08231,5.466003,0.749192,0.64306,0.59359,38.833938,25.016911,-6.028419,4.63583E+18,0.403655,0.54508,0.432701,-0.593903,-9.913402,-0.037232,-1.53859,0.006442,-0.368404,0.469745,44.411448,-1.708046,-13.745536,4.63583E+18,0.046672,0.818013,-0.00958,-0.573223,0
-10.127777,-0.533897,0.166537,0.946766,0.008858,-0.211493,41.311987,16.223639,-13.647877,4.63583E+18,0.309814,0.608083,0.321993,-0.656179,-17.450804,13.692532,9.239053,0.023973,0.289611,0.608288,38.246006,25.444149,-5.888099,4.63583E+18,0.404418,0.546889,0.431871,-0.592323,-9.572697,0.121103,-1.598796,-0.011638,-0.380189,0.500772,43.840296,-1.490648,-14.194446,4.63583E+18,0.0484,0.816989,-0.011338,-0.574507,0
-10.261944,-1.182993,0.351659,0.808589,-0.033582,-0.191258,41.447158,16.251077,-13.651797,4.63583E+18,0.307222,0.608766,0.320291,-0.657595,-15.193937,10.231835,1.043816,-1.718274,0.584468,0.563295,38.01595,25.299942,-5.452826,4.63583E+18,0.408494,0.546392,0.435925,-0.58699,-9.291586,0.267649,-1.781138,-0.043594,-0.418474,0.531744,43.19383,-1.186022,-14.379179,4.63583E+18,0.050292,0.815858,-0.013154,-0.575911,0
-10.761373,-1.947628,1.068553,0.737431,-0.034401,-0.109383,41.454228,16.28166,-13.687516,4.63583E+18,0.305032,0.609459,0.318573,-0.658807,-15.368675,3.044549,-4.899394,-2.238569,0.78681,0.438349,38.111459,25.531659,-4.893352,4.63583E+18,0.413047,0.545234,0.441847,-0.580417,-9.787214,0.402006,-2.17048,-0.082007,-0.481341,0.537245,43.117004,-1.184118,-14.283271,4.63583E+18,0.052322,0.814559,-0.01491,-0.577523,0
-11.413329,-2.583909,1.86246,0.779829,0.220195,0.022672,41.346474,16.172695,-13.772967,4.63583E+18,0.302755,0.611073,0.316725,-0.659253,-16.560564,0.430397,-5.491488,-1.633546,0.502461,0.262533,38.461194,25.932311,-4.472244,4.63583E+18,0.416292,0.544065,0.446183,-0.57586,-10.772966,0.099564,-2.342755,-0.143813,-0.560284,0.558508,43.34704,-1.414611,-14.56168,4.63583E+18,0.054607,0.813046,-0.016609,-0.579395,0
-11.537041,-2.713653,1.489872,0.846225,0.625995,0.183343,41.424848,15.986569,-13.827069,4.63583E+18,0.300208,0.614088,0.314792,-0.658541,-13.985714,-1.244077,-2.862586,-0.960505,-0.001975,0.081473,39.441418,25.046257,-4.132417,4.63583E+18,0.418196,0.542737,0.448139,-0.574213,-10.985343,-0.314753,-1.676684,-0.163304,-0.597925,0.605341,42.79052,-1.35541,-14.745378,4.63583E+18,0.057065,0.811423,-0.018429,-0.581375,0
-10.988784,-2.354076,0.009065,0.900065,0.823068,0.338628,41.64156,15.793367,-13.760007,4.63583E+18,0.297683,0.6179,0.312555,-0.657186,-10.348068,-1.149811,0.563445,-0.640512,-0.129929,-0.068806,40.204651,23.949565,-3.894298,4.63583E+18,0.419671,0.541046,0.44984,-0.573402,-10.368119,0.070713,-0.920459,-0.130529,-0.559959,0.64915,42.168405,-1.36715,-14.722286,4.63583E+18,0.059519,0.809884,-0.020467,-0.583203,0
-10.229259,-1.845779,-1.426078,0.968148,0.700283,0.439846,41.776741,15.707922,-13.604332,4.63583E+18,0.29541,0.621575,0.30971,-0.656092,-7.848951,-0.220472,1.503238,-0.929892,0.015178,-0.158741,40.107608,24.042243,-3.623766,4.63583E+18,0.421309,0.539019,0.452687,-0.571868,-9.709079,0.77677,-0.624441,-0.137744,-0.519378,0.635636,42.880028,-2.204182,-15.098151,4.63583E+18,0.061966,0.808431,-0.022435,-0.584889,0
-9.626724,-1.172004,-2.009393,1.021508,0.390226,0.496489,41.889613,15.520621,-13.561514,4.63583E+18,0.293545,0.624525,0.306184,-0.655783,-7.084706,-0.394399,1.910161,-1.151326,0.229133,-0.131062,39.841094,24.442984,-3.424312,4.63583E+18,0.423089,0.537158,0.45636,-0.569379,-9.231882,1.230021,-0.477038,-0.165383,-0.47561,0.57718,43.915514,-3.107035,-15.58569,4.63583E+18,0.064378,0.807073,-0.024109,-0.586436,0
-9.029064,-0.218528,-2.027346,1.159436,0.040128,0.505657,42.005676,15.164804,-13.67,4.63583E+18,0.291784,0.626682,0.301821,-0.656533,-7.576223,-2.801556,2.079237,-0.877399,0.418045,-0.06503,39.867283,24.370173,-3.149727,4.63583E+18,0.423931,0.536434,0.459452,-0.566943,-9.083257,1.49977,-0.451832,-0.219685,-0.457285,0.523739,43.922237,-3.343326,-15.782906,4.63583E+18,0.06684,0.805742,-0.025469,-0.587932,0
-8.437882,0.582,-1.96194,1.320688,-0.187869,0.494836,41.978272,14.884992,-13.849173,4.63583E+18,0.289848,0.628378,0.29676,-0.658075,-8.442605,-4.186107,1.205473,-0.380396,0.527754,-0.021399,39.881588,24.138335,-2.694226,4.63583E+18,0.423549,0.536926,0.461462,-0.565129,-9.045923,1.234688,-0.572957,-0.257181,-0.463535,0.468209,43.679671,-3.429726,-15.86907,4.63583E+18,0.06929,0.804381,-0.026552,-0.589462,0
-7.995163,1.220727,-1.905278,1.382547,-0.165366,0.422386,41.971122,14.52797,-14.020084,4.63583E+18,0.287513,0.630098,0.291737,-0.659699,-8.665146,-2.896747,-0.021274,-0.108612,0.576587,-0.013176,39.95272,24.097414,-2.449791,4.63583E+18,0.42248,0.538024,0.462897,-0.563709,-9.021435,0.917688,-0.864757,-0.224534,-0.474186,0.451934,43.762968,-3.660663,-15.954502,4.63583E+18,0.071585,0.802997,-0.027665,-0.591021,0
-7.851877,1.648465,-1.863353,1.337614,0.045719,0.239917,42.078918,14.195159,-14.194881,4.63583E+18,0.284528,0.632101,0.28756,-0.66091,-9.05547,-1.411183,-0.09983,0.020911,0.542305,-0.034159,40.038175,24.16855,-2.498364,4.63583E+18,0.421134,0.539226,0.464012,-0.562649,-9.142539,0.624512,-1.169896,-0.138362,-0.508213,0.451827,43.751416,-3.734982,-16.233992,4.63583E+18,0.073587,0.801547,-0.029,-0.592677,0
-7.962205,1.494444,-1.840807,1.281517,0.187733,0.076462,42.051525,14.08343,-14.413205,4.63583E+18,0.281059,0.634213,0.284129,-0.661854,-9.710321,-0.958527,0.079172,0.108871,0.501177,-0.074017,39.981361,24.243833,-2.514725,4.63583E+18,0.419573,0.540408,0.464937,-0.561918,-9.385882,0.658958,-1.09915,-0.056087,-0.549821,0.458193,43.508798,-3.747592,-16.514764,4.63583E+18,0.075325,0.80001,-0.030571,-0.594454,0
-8.055489,1.083755,-1.507378,1.304176,0.13916,-0.002878,42.044347,13.945978,-14.698367,4.63583E+18,0.277361,0.636104,0.28078,-0.663027,-10.019993,-0.692043,-0.641948,0.105947,0.508776,-0.116738,39.956878,24.327228,-2.352171,4.63583E+18,0.417901,0.541516,0.465976,-0.561236,-9.702753,0.81683,-0.783406,-0.001434,-0.592535,0.466723,43.361679,-3.83255,-16.504492,4.63583E+18,0.076895,0.798376,-0.032317,-0.596355,0
-8.270977,0.687846,-0.526666,1.371173,0.0179,-0.012763,42.206938,13.590131,-14.876912,4.63583E+18,0.273589,0.637706,0.277125,-0.664591,-10.272248,-0.535239,-1.372567,0.081207,0.472529,-0.14524,40.015788,24.55491,-2.167015,4.63583E+18,0.41607,0.542618,0.466864,-0.560793,-9.996,0.878545,-0.526549,0.043509,-0.64589,0.469965,43.275789,-4.06359,-16.686356,4.63583E+18,0.078314,0.796613,-0.034204,-0.598419,0
-8.722142,0.401299,0.861425,1.369084,0.008912,0.007654,42.272219,13.443316,-14.837326,4.63583E+18,0.269881,0.639283,0.273403,-0.666133,-10.579369,-0.604135,-1.204874,0.060907,0.384649,-0.164651,40.028076,24.526811,-2.05503,4.63583E+18,0.414702,0.543195,0.467974,-0.560323,-10.373886,0.696987,-0.45214,0.109598,-0.679131,0.46574,43.190336,-4.222752,-16.966505,4.63583E+18,0.079496,0.794779,-0.036254,-0.600577,0
-9.127835,0.084705,1.899637,1.332842,0.249059,0.033863,42.136988,13.42315,-14.767046,4.63583E+18,0.266058,0.641494,0.269974,-0.666942,-10.470102,-0.937512,-0.954472,0.010567,0.333843,-0.173033,39.835052,24.299124,-1.87609,4.63583E+18,0.413447,0.543615,0.469055,-0.55994,-10.752271,0.404743,-0.657855,0.177938,-0.732403,0.464651,43.032126,-4.454199,-17.33214,4.63583E+18,0.080438,0.792824,-0.038492,-0.602892,0
-9.298129,-0.551637,1.827724,1.374536,0.612991,0.099552,42.133686,13.151618,-14.786134,4.63583E+18,0.261886,0.644814,0.266648,-0.66673,-10.04116,-1.204171,-1.250775,-0.059373,0.313521,-0.162553,39.714869,24.459273,-1.680787,4.63583E+18,0.412412,0.543885,0.47024,-0.559446,-11.082186,-0.070159,-0.428762,0.269646,-0.821892,0.481624,42.873431,-4.68614,-17.613463,4.63583E+18,0.081102,0.790659,-0.041048,-0.605472,0
-9.313296,-1.218937,0.70953,1.463472,0.814705,0.196274,42.328032,12.849432,-14.777725,4.63583E+18,0.257507,0.648869,0.263024,-0.665941,-9.839346,-1.245155,-1.369189,-0.102675,0.277945,-0.138002,39.759424,24.642469,-1.566736,4.63583E+18,0.4116,0.544046,0.471408,-0.558904,-11.472428,-0.655403,0.373208,0.43367,-0.910556,0.50402,42.787503,-4.845311,-17.797207,4.63583E+18,0.081267,0.788306,-0.044121,-0.608295,0
-9.41392,-1.5885,-0.493499,1.533413,0.786148,0.290266,42.521346,12.577897,-14.601478,4.63583E+18,0.253217,0.65299,0.258909,-0.665171,-9.804595,-1.387349,-1.084892,-0.108951,0.233984,-0.114855,39.842816,24.671162,-1.387833,4.63583E+18,0.410853,0.544213,0.472378,-0.558472,-11.911526,-0.683453,1.60324,0.645895,-1.00769,0.572076,42.70206,-5.088876,-18.162199,4.63583E+18,0.080887,0.785746,-0.047987,-0.611357,0
-9.596063,-1.693874,-1.132901,1.60973,0.655595,0.357887,42.555963,12.224864,-14.5229,4.63583E+18,0.249032,0.656866,0.254247,-0.664732,-9.67051,-1.649658,-0.720728,-0.094732,0.214006,-0.083538,39.725137,24.600067,-1.202675,4.63583E+18,0.410273,0.544344,0.473294,-0.557994,-12.47226,0.844366,1.587124,0.714147,-0.995598,0.64256,42.398327,-5.405785,-18.431407,4.63583E+18,0.080463,0.783201,-0.052254,-0.614322,0
-9.828004,-1.596693,-1.261272,1.737756,0.551783,0.4033,42.557009,11.845479,-14.569342,4.63583E+18,0.244717,0.660597,0.248984,-0.664629,-9.532127,-1.849176,-0.588104,-0.083862,0.22038,-0.042427,39.688319,24.656805,-1.090659,4.63583E+18,0.40975,0.54459,0.474103,-0.557452,-12.682122,0.114782,-0.171428,0.753852,-1.039019,0.652575,42.153776,-5.723177,-18.712096,4.63583E+18,0.079923,0.780529,-0.056671,-0.617393,0
-10.075574,-1.400343,-1.316484,1.889581,0.483173,0.417339,42.743065,11.539349,-14.712872,4.63583E+18,0.240077,0.664265,0.243177,-0.664816,-9.56035,-2.042444,-0.462027,-0.06003,0.21862,0.002965,39.828457,24.600067,-1.074252,4.63583E+18,0.40928,0.544962,0.474751,-0.556882,-12.889623,-1.721065,-0.122484,0.892039,-1.126307,0.695077,41.994532,-6.113284,-19.162588,4.63583E+18,0.079019,0.777638,-0.061611,-0.620676,0
-10.3563,-1.042477,-1.466857,1.972445,0.426955,0.385,42.987174,11.263496,-14.739698,4.63583E+18,0.235156,0.667779,0.237158,-0.665229,-9.672169,-2.258075,-0.266806,-0.027106,0.227678,0.057782,39.989207,24.656805,-1.064095,4.63583E+18,0.408728,0.545618,0.4751,-0.556347,-12.624291,-1.103008,0.265891,1.053159,-1.130078,0.771745,41.920724,-6.503874,-19.444474,4.63583E+18,0.077788,0.774734,-0.067215,-0.623874,0
-10.586257,-0.703643,-1.582567,2.003118,0.359028,0.34873,43.102392,10.914895,-14.634239,4.63583E+18,0.230099,0.671049,0.231071,-0.665849,-9.723144,-2.061421,-0.049146,0.008849,0.257198,0.101948,39.944781,24.671162,-0.990957,4.63583E+18,0.408324,0.546331,0.4755,-0.555602,-12.476951,-0.88041,0.244312,1.185822,-1.147076,0.823197,41.689841,-6.979435,-19.616148,4.63583E+18,0.076253,0.771773,-0.073335,-0.627036,0
-10.723962,-0.481459,-1.560104,2.037044,0.272035,0.310959,42.943688,10.499826,-14.574664,4.63583E+18,0.224907,0.674023,0.224895,-0.666732,-9.678525,-1.465851,0.069033,0.054939,0.295641,0.12228,39.869485,24.528991,-0.651632,4.63583E+18,0.407713,0.547312,0.475741,-0.554878,-12.475966,-1.509376,0.292644,1.378725,-1.189624,0.856428,41.373062,-7.600954,-19.96889,4.63583E+18,0.074165,0.768702,-0.08008,-0.630225,0
-10.902663,-0.407241,-1.422418,2.073445,0.207607,0.279087,42.886549,10.084808,-14.77288,4.63583E+18,0.219567,0.67677,0.218631,-0.667812,-9.698725,-1.172253,0.126067,0.078124,0.331605,0.12675,39.928248,24.429182,-0.575802,4.63583E+18,0.406986,0.548424,0.475979,-0.554109,-12.294108,-1.477346,0.777934,1.586911,-1.224924,0.884236,41.140537,-8.078044,-20.529011,4.63583E+18,0.071468,0.765537,-0.087467,-0.633399,0
-11.074548,-0.37892,-1.278853,2.082546,0.190728,0.260415,43.021812,9.724434,-15.143028,4.63583E+18,0.214147,0.679409,0.212364,-0.668914,-9.7455,-1.206363,0.053053,0.068741,0.371295,0.136882,40.003546,24.485881,-0.654976,4.63583E+18,0.406153,0.549692,0.476212,-0.553264,-12.12312,-1.173998,1.096495,1.776105,-1.259112,0.905643,40.981337,-8.542009,-20.884446,4.63583E+18,0.06821,0.762265,-0.095422,-0.636549,0
-11.141947,-0.37354,-1.240266,2.074986,0.199273,0.254176,43.056496,9.480295,-15.224109,4.63583E+18,0.208705,0.682006,0.206127,-0.669941,-9.743561,-1.200433,-0.217216,0.037795,0.403001,0.154851,40.026022,24.429183,-0.671407,4.63583E+18,0.405491,0.550908,0.476651,-0.552161,-11.927992,-1.36587,1.389605,1.993784,-1.299653,0.896243,40.749928,-9.090693,-21.153561,4.63583E+18,0.064215,0.758874,-0.103928,-0.639677,0
-11.057984,-0.512654,-1.285681,2.057724,0.199277,0.259772,42.979354,9.208839,-15.239181,4.63583E+18,0.203312,0.68454,0.199907,-0.670899,-9.741508,-1.308015,-0.380252,0.001838,0.411586,0.176743,39.885924,24.272656,-0.427722,4.63583E+18,0.404889,0.552171,0.477082,-0.550967,-11.708429,-1.197515,1.900786,2.233961,-1.331757,0.88769,40.372518,-9.80974,-21.410001,4.63583E+18,0.059417,0.755376,-0.113048,-0.642726,0
-10.883671,-0.821743,-1.297889,2.059769,0.168479,0.272503,42.971983,8.85191,-15.484815,4.63583E+18,0.197957,0.686948,0.193606,-0.671887,-9.802415,-1.604687,-0.463751,-0.043354,0.397205,0.198281,39.999288,24.314961,-0.226163,4.63583E+18,0.404467,0.553367,0.477542,-0.549678,-11.694778,-0.590204,2.316518,2.516722,-1.355316,0.866417,40.066821,-10.590589,-21.678478,4.63583E+18,0.053653,0.751791,-0.122853,-0.645631,0
-10.676153,-1.09228,-1.317903,2.08536,0.102262,0.289251,43.134577,8.409549,-15.593255,4.63583E+18,0.192614,0.689152,0.187116,-0.673021,-9.885815,-1.274437,-0.42533,-0.045941,0.396811,0.218757,40.220962,24.400418,-0.103952,4.63583E+18,0.404009,0.554672,0.477872,-0.548411,-11.888628,-0.076874,2.452738,2.80399,-1.395782,0.837632,39.676826,-11.299043,-22.031857,4.63583E+18,0.046884,0.748054,-0.133332,-0.648414,0
-10.449132,-1.208533,-1.27647,2.106642,0.03052,0.298101,43.278149,7.912989,-15.600062,4.63583E+18,0.187274,0.691124,0.18047,-0.67432,-9.788544,-1.003459,-0.465806,0.015535,0.398239,0.214181,40.331071,24.343751,-0.014396,4.63583E+18,0.403533,0.555951,0.478214,-0.547166,-12.13243,-0.01264,2.683986,3.031929,-1.490461,0.757884,39.213463,-12.019193,-22.288903,4.63583E+18,0.039132,0.744009,-0.144174,-0.651255,0
-10.188374,-1.196825,-1.061139,2.098752,0.007854,0.283838,43.336281,7.498843,-15.735749,4.63583E+18,0.181919,0.69296,0.173856,-0.675638,-9.776072,-0.954235,-0.577583,0.088161,0.399307,0.200128,40.213525,24.116218,0.324781,4.63583E+18,0.402865,0.557315,0.478436,-0.546076,-12.097796,-0.242506,2.346242,3.229748,-1.588708,0.694742,38.919276,-12.884881,-22.351323,4.63583E+18,0.030528,0.739609,-0.155348,-0.654151,0
-9.975447,-1.125079,-0.840906,2.051674,0.044373,0.253544,43.308963,7.301026,-15.949675,4.63583E+18,0.176573,0.694787,0.167477,-0.67679,-9.859323,-1.002923,-0.912786,0.07554,0.37551,0.194943,40.186771,23.94106,0.634217,4.63583E+18,0.402194,0.558648,0.478592,-0.545071,-11.74607,-0.680451,1.568172,3.416727,-1.699692,0.690054,38.626335,-13.509113,-22.521429,4.63583E+18,0.021263,0.734758,-0.166993,-0.657109,0
-9.891398,-0.951281,-0.719736,1.996597,0.113494,0.225388,43.278146,7.091209,-16.039526,4.63583E+18,0.171245,0.696698,0.161375,-0.677676,-10.149783,-1.419132,-1.189699,-0.133729,0.273861,0.217489,40.186771,23.985338,0.683615,4.63583E+18,0.402262,0.559444,0.478999,-0.543846,-11.54961,-1.725892,0.859616,3.722424,-1.799114,0.657149,38.006131,-14.3862,-22.958961,4.63583E+18,0.010899,0.729484,-0.179342,-0.659978,0
-10.002642,-0.742766,-0.87339,1.951826,0.181486,0.199028,43.336281,6.56734,-16.081555,4.63583E+18,0.165914,0.698702,0.155513,-0.678309,-10.672183,-1.278261,-1.131471,-0.463751,0.166315,0.293209,40.186771,23.999754,0.521252,4.63583E+18,0.403483,0.559592,0.479796,-0.542083,-11.269455,-2.169754,0.115228,4.151996,-1.867698,0.675999,37.553225,-15.32573,-23.022723,4.63583E+18,-0.000769,0.72379,-0.192878,-0.662515,0
-10.24679,-0.623082,-1.260629,1.903033,0.173636,0.174758,43.102211,6.309585,-16.127362,4.63583E+18,0.16065,0.700588,0.149846,-0.678907,-10.533561,-0.62416,-0.694868,-0.507231,0.126277,0.328046,40.257798,23.857705,0.488296,4.63583E+18,0.404962,0.559645,0.48054,-0.540264,-10.794829,-1.942675,-0.496036,4.603615,-1.948776,0.758843,37.259141,-16.423124,-23.083753,4.63583E+18,-0.013632,0.717519,-0.207839,-0.664668,0
-10.451922,-0.590361,-1.540517,1.858722,0.060144,0.153396,42.393199,6.826039,-16.330474,4.63583E+18,0.155515,0.702065,0.144281,-0.679781,-9.562743,-0.480209,-0.711845,-0.370093,0.127096,0.268265,40.414287,23.828852,0.731835,4.63583E+18,0.405703,0.560056,0.480827,-0.539025,-10.621692,-1.49261,-0.64592,5.025751,-2.019351,0.833676,36.748039,-17.691441,-23.047845,4.63583E+18,-0.027601,0.710627,-0.224097,-0.666355,0
-10.507691,-0.565949,-1.607986,1.812172,-0.083035,0.12794,41.92124,7.297144,-16.507292,4.63583E+18,0.15052,0.703048,0.138823,-0.681025,-9.223089,-0.912387,-0.94552,-0.2026,0.138832,0.219775,40.504007,23.757825,0.943617,4.63583E+18,0.406244,0.560391,0.481205,-0.53793,-10.717386,-0.628922,-1.21654,5.292862,-1.997601,0.903145,36.308034,-18.876185,-23.011224,4.63583E+18,-0.042127,0.703323,-0.241189,-0.667376,0
-10.387142,-0.537634,-1.531858,1.752341,-0.181645,0.092394,41.844097,7.055705,-16.557647,4.63583E+18,0.145648,0.703654,0.133569,-0.682508,-9.395075,-1.021297,-1.120685,-0.055158,0.154311,0.216112,40.455501,23.672384,0.976592,4.63583E+18,0.406396,0.561007,0.481283,-0.537104,-10.584817,-0.101564,-2.347583,5.51427,-1.988955,0.926977,35.808037,-20.132862,-22.683807,4.63583E+18,-0.057197,0.695576,-0.258833,-0.667764,0
-10.191839,-0.543901,-1.413182,1.720579,-0.219088,0.059743,41.661182,6.509292,-16.529335,4.63583E+18,0.140788,0.704076,0.128473,-0.684069,-9.517481,-1.421067,-1.17793,0.006306,0.140152,0.225711,40.38226,23.515921,1.05775,4.63583E+18,0.406411,0.56175,0.481134,-0.536448,-10.923083,0.798967,-2.21063,5.606033,-2.056744,0.982283,35.15002,-21.402339,-22.172459,4.63583E+18,-0.072416,0.687136,-0.276726,-0.667849,0
-10.027722,-0.657137,-1.284872,1.712968,-0.242314,0.041156,41.469353,6.04444,-16.621327,4.63583E+18,0.135902,0.70438,0.123434,-0.68567,-9.838288,-1.704381,-0.889955,0.020986,0.08702,0.238166,40.440887,23.355178,1.003247,4.63583E+18,0.406525,0.562425,0.480834,-0.535924,-10.852927,1.4721,-2.124724,5.649116,-2.053012,1.022984,34.478701,-22.587093,-21.841497,4.63583E+18,-0.087589,0.678218,-0.294687,-0.667464,0
-9.961241,-0.834814,-1.037845,1.710536,-0.266696,0.025178,41.888396,5.574802,-16.929098,4.63583E+18,0.130983,0.704568,0.118429,-0.687316,-9.920493,-1.279011,-0.718514,0.03397,0.066255,0.254536,40.526346,23.328348,0.907644,4.63583E+18,0.406685,0.563109,0.48043,-0.535446,-10.137589,1.452866,-2.523887,5.691837,-2.030719,1.008445,33.964871,-23.69838,-21.524052,4.63583E+18,-0.102831,0.668939,-0.312547,-0.666529,0
-9.957344,-1.078942,-0.798929,1.712015,-0.25233,0.009067,42.706224,4.914856,-17.073225,4.63583E+18,0.125998,0.704751,0.11347,-0.688894,-9.752158,-0.981223,-1.000165,0.055846,0.068527,0.2663,40.743682,23.257334,0.972299,4.63583E+18,0.406578,0.56407,0.479705,-0.535166,-9.696053,1.05293,-1.727431,5.570266,-2.039029,0.982893,33.621815,-24.954484,-20.915969,4.63583E+18,-0.117748,0.659305,-0.329805,-0.665343,0
-9.92955,-1.315297,-0.779205,1.728378,-0.216765,0.002773,43.263039,4.202173,-17.13816,4.63583E+18,0.120924,0.705004,0.108496,-0.690345,-9.696806,-0.980544,-1.153336,0.113957,0.068542,0.274318,40.987806,23.182034,1.16124,4.63583E+18,0.406621,0.564903,0.479116,-0.534782,-9.329269,1.982588,-1.44263,5.445309,-1.959598,1.030394,33.122531,-26.139164,-20.220804,4.63583E+18,-0.132007,0.649493,-0.346695,-0.663729,0
-9.87241,-1.53503,-0.952971,1.747514,-0.204994,0.014251,43.185103,3.787915,-17.273753,4.63583E+18,0.115814,0.705266,0.103434,-0.691729,-9.641968,-0.927947,-1.273332,0.164908,0.070136,0.291556,40.826242,23.159509,1.02391,4.63583E+18,0.406568,0.565868,0.478365,-0.534474,-9.035764,3.104129,-2.700142,5.305513,-1.839224,1.014865,32.31928,-27.407926,-19.512953,4.63583E+18,-0.145683,0.639743,-0.363034,-0.661598,0
-9.831374,-1.711896,-1.173214,1.773058,-0.212425,0.042227,43.01889,3.531569,-17.608542,4.63583E+18,0.110705,0.705492,0.098208,-0.693095,-9.580926,-0.9967,-1.182411,0.198778,0.053635,0.303684,40.795078,23.025584,0.917798,4.63583E+18,0.406471,0.566899,0.477456,-0.534268,-8.694338,1.526192,-3.788028,5.20162,-1.802249,0.884383,31.816396,-28.592709,-18.804923,4.63583E+18,-0.159306,0.630011,-0.378573,-0.659083,0
-9.834229,-1.770074,-1.302297,1.801941,-0.22681,0.0802,43.042261,3.251863,-17.98721,4.63583E+18,0.105621,0.705664,0.092775,-0.694461,-9.79373,-1.571029,-0.642457,0.264362,0.016481,0.30904,41.070979,22.856759,0.984484,4.63583E+18,0.406229,0.568034,0.476247,-0.534326,-8.509989,-0.484792,-3.917624,5.148881,-1.853896,0.786915,31.618698,-29.546696,-18.302801,4.63583E+18,-0.173049,0.620001,-0.39348,-0.656374,0
-9.883579,-1.758389,-1.204404,1.824895,-0.255806,0.119221,43.092133,2.94954,-18.099684,4.63583E+18,0.100587,0.705735,0.087144,-0.695864,-9.889876,-1.887458,-0.526984,0.321908,0.007839,0.327511,41.197734,22.766994,1.011149,4.63583E+18,0.406002,0.569197,0.474952,-0.534414,-8.581216,-1.348153,-3.337331,5.127281,-1.881853,0.718345,31.108585,-30.256462,-17.620777,4.63583E+18,-0.186873,0.609726,-0.407928,-0.653381,0
-9.884629,-1.682831,-0.904187,1.839167,-0.293575,0.138178,43.06877,2.678155,-18.114734,4.63583E+18,0.095573,0.705665,0.081396,-0.697336,-9.808928,-1.289835,-0.768322,0.394132,0.013689,0.358636,41.070208,22.754601,0.850945,4.63583E+18,0.405654,0.57056,0.473425,-0.53458,-8.50914,-1.367133,-2.908746,5.085782,-1.848166,0.671169,30.52315,-30.976684,-16.924972,4.63583E+18,-0.200563,0.59935,-0.421965,-0.65,0
-9.792974,-1.524141,-0.64026,1.852665,-0.298549,0.127184,43.011103,2.344674,-18.219123,4.63583E+18,0.090483,0.705539,0.075635,-0.69879,-9.820759,-0.581688,-0.736771,0.462864,0.00963,0.367788,41.193398,22.612632,0.574521,4.63583E+18,0.40515,0.57206,0.471696,-0.534886,-8.375343,-1.355118,-3.099133,4.997498,-1.795971,0.600857,30.03408,-31.927025,-15.938493,4.63583E+18,-0.214034,0.589016,-0.435431,-0.646258,0
-9.586524,-1.357673,-0.65938,1.859785,-0.207652,0.093873,42.943872,1.97954,-18.390013,4.63583E+18,0.085241,0.705624,0.069981,-0.699951,-9.735697,-0.484162,-0.953465,0.476919,0.004996,0.356089,41.295383,22.451871,0.535059,4.63583E+18,0.404593,0.573549,0.469953,-0.535248,-8.241076,-1.54877,-3.621379,4.899316,-1.779663,0.529309,29.763809,-32.721667,-15.070903,4.63583E+18,-0.227324,0.578665,-0.448272,-0.64228,0
-9.349645,-1.201816,-0.974619,1.847107,-0.065134,0.054989,42.913606,1.56452,-18.560904,4.63583E+18,0.079875,0.706066,0.064526,-0.700662,-9.869198,-0.508577,-1.142972,0.488997,-0.001051,0.342022,41.309853,22.354017,0.780494,4.63583E+18,0.404007,0.574994,0.468228,-0.535652,-7.973593,-1.816744,-3.964658,4.872037,-1.8145,0.4641,29.5679,-33.430384,-14.288943,4.63583E+18,-0.240679,0.568104,-0.460644,-0.638074,0
-9.21659,-1.135288,-1.304041,1.836733,0.026961,0.027913,43.103265,1.203979,-18.704556,4.63583E+18,0.074431,0.706722,0.059208,-0.701069,-9.900204,-0.502573,-1.019842,0.509089,-0.006572,0.335236,41.238886,22.197617,0.667897,4.63583E+18,0.403345,0.576461,0.466441,-0.536133,-7.620266,-1.879449,-3.918969,4.897251,-1.857165,0.403181,29.299927,-33.993105,-13.326031,4.63583E+18,-0.254224,0.55726,-0.472689,-0.633559,0
-9.263281,-1.123616,-1.361052,1.850045,0.041598,0.020682,43.102589,0.932575,-18.758888,4.63583E+18,0.068917,0.707381,0.053874,-0.701399,-9.77854,-0.612029,-0.978661,0.525131,-0.021671,0.327233,41.234538,22.097674,0.472567,4.63583E+18,0.402652,0.577903,0.46461,-0.53669,-7.520557,-1.444059,-3.591666,4.914408,-1.888233,0.339126,28.873994,-34.554577,-12.446516,4.63583E+18,-0.267918,0.546183,-0.48438,-0.628713,0
-9.413654,-1.094776,-1.254008,1.873543,0.025729,0.020248,42.943897,0.630221,-18.742791,4.63583E+18,0.063333,0.707955,0.048466,-0.70174,-9.652339,-0.878089,-1.017143,0.580001,-0.036986,0.324011,41.236607,21.951402,0.368503,4.63583E+18,0.401847,0.579393,0.462636,-0.537393,-7.628731,-0.835084,-3.116773,4.897597,-1.922387,0.254908,28.519384,-35.188763,-11.567583,4.63583E+18,-0.281736,0.53495,-0.495575,-0.623586,0
-9.525663,-1.133127,-1.267408,1.892276,0.026808,0.024133,42.820222,0.417214,-18.726156,4.63583E+18,0.057699,0.708494,0.042989,-0.702039,-9.509992,-0.795976,-1.076109,0.632376,-0.04307,0.325423,41.30757,21.782573,0.354015,4.63583E+18,0.400926,0.580955,0.460527,-0.538205,-7.762813,-0.648487,-2.6649,4.849783,-1.941736,0.147217,28.407524,-35.896196,-10.603896,4.63583E+18,-0.295636,0.523696,-0.506158,-0.618179,0
-9.545648,-1.306828,-1.421667,1.89946,0.038113,0.031174,42.837498,0.216293,-18.784483,4.63583E+18,0.052059,0.709022,0.03747,-0.702263,-9.606802,-0.617005,-1.127009,0.669273,-0.067744,0.331994,41.261237,21.68263,0.110716,4.63583E+18,0.399974,0.58253,0.458275,-0.539132,-7.860759,-1.034395,-2.358556,4.849391,-1.964138,0.029813,28.285564,-36.144101,-9.748582,4.63583E+18,-0.309744,0.512396,-0.516226,-0.612389,0
-9.617272,-1.527112,-1.5498,1.91326,0.026156,0.043558,42.972868,-0.105002,-18.874267,4.63583E+18,0.046413,0.709475,0.03187,-0.702478,-9.722878,-0.575818,-1.175838,0.723856,-0.082391,0.32794,41.319777,21.607316,-0.243086,4.63583E+18,0.398903,0.58415,0.455882,-0.540201,-7.88578,-1.558201,-2.126009,4.916127,-1.980213,-0.086624,28.078747,-36.230864,-8.797215,4.63583E+18,-0.324179,0.500982,-0.525956,-0.606049,0
-9.767637,-1.675759,-1.582531,1.958325,-0.020657,0.057878,43.085529,-0.407359,-18.764409,4.63583E+18,0.040678,0.709753,0.026086,-0.702792,-9.792189,-0.553476,-1.28548,0.789693,-0.088818,0.323306,41.547127,21.523943,-0.467365,4.63583E+18,0.397669,0.585849,0.453337,-0.541412,-7.873876,-1.937844,-1.773005,5.021555,-1.981405,-0.196696,27.968071,-36.618977,-7.73608,4.63583E+18,-0.338957,0.489423,-0.535472,-0.599035,0
-9.891341,-1.716812,-1.595282,2.029068,-0.098006,0.067198,43.151456,-0.705939,-18.743966,4.63583E+18,0.034766,0.709766,0.020052,-0.703293,-9.832952,-0.539197,-1.346736,0.860533,-0.093272,0.313712,41.732528,21.377677,-0.490368,4.63583E+18,0.395501,0.588244,0.449839,-0.543317,-7.922194,-1.977292,-1.419032,5.132585,-1.972941,-0.29717,27.930846,-36.936936,-6.686268,4.63583E+18,-0.354023,0.477707,-0.544809,-0.591309,0
-9.905181,-1.725676,-1.579187,2.099801,-0.182625,0.070545,42.965554,-1.120975,-18.914863,4.63583E+18,0.028659,0.709488,0.013787,-0.703999,-9.829031,-0.506718,-1.273934,0.921456,-0.102866,0.296822,41.548673,21.411564,-0.498432,4.63583E+18,0.393896,0.590058,0.447023,-0.544838,-7.995234,-2.026019,-1.210276,5.24685,-1.961218,-0.407108,27.966854,-36.951706,-5.551698,4.63583E+18,-0.369374,0.465854,-0.553946,-0.582826,0
-9.816944,-1.697377,-1.512023,2.157232,-0.233876,0.06156,42.826362,-1.481581,-18.996363,4.63583E+18,0.022357,0.709008,0.007374,-0.704808,-9.715437,-0.328151,-1.247224,0.950941,-0.106453,0.282208,41.515311,21.353024,-0.814794,4.63583E+18,0.392186,0.591875,0.444163,-0.546438,-8.092688,-2.208002,-1.05117,5.369616,-1.949468,-0.518187,28.160839,-36.951809,-4.428514,4.63583E+18,-0.385003,0.453847,-0.562887,-0.573545,0
-9.682115,-1.652982,-1.392192,2.20753,-0.217357,0.039517,42.884609,-1.780141,-18.944794,4.63583E+18,0.015839,0.708519,0.00088,-0.705514,-9.601428,-0.211866,-1.458072,0.920325,-0.109476,0.282516,41.862101,21.135763,-1.112128,4.63583E+18,0.390316,0.593814,0.441106,-0.548146,-8.069302,-2.415298,-1.06194,5.491379,-1.938779,-0.629261,28.356134,-37.024431,-3.196636,4.63583E+18,-0.400884,0.441675,-0.571611,-0.563451,0
-9.583913,-1.591949,-1.421627,2.251757,-0.151813,0.017039,42.834096,-2.218474,-19.049118,4.63583E+18,0.009122,0.708161,-0.005674,-0.705969,-9.643645,-0.428513,-1.582622,0.887539,-0.127762,0.291044,42.013542,20.962588,-1.159703,4.63583E+18,0.388802,0.595478,0.438315,-0.549653,-8.020686,-2.538085,-1.195165,5.617368,-1.918569,-0.730805,28.478817,-37.025055,-1.879123,4.63583E+18,-0.41695,0.429321,-0.580145,-0.552511,0
-9.549518,-1.523152,-1.604161,2.295061,-0.075451,0.001505,42.675418,-2.629028,-19.099594,4.63583E+18,0.002233,0.707965,-0.012305,-0.706137,-9.625643,-0.465951,-1.680271,0.859227,-0.128721,0.310413,41.959126,20.79377,-1.230667,4.63583E+18,0.387404,0.597116,0.435539,-0.551069,-7.959747,-2.61176,-1.42629,5.749779,-1.90039,-0.829113,28.83087,-36.952433,-0.754222,4.63583E+18,-0.433175,0.416757,-0.588483,-0.540704,0
-9.625547,-1.418268,-1.784509,2.344879,-0.023741,-0.001456,42.543904,-2.873196,-18.892052,4.63583E+18,-0.004809,0.707853,-0.019072,-0.706086,-9.447098,-0.210445,-1.808341,0.831456,-0.115759,0.32468,42.025737,20.703969,-1.569553,4.63583E+18,0.38595,0.598856,0.432668,-0.55246,-7.971329,-2.64869,-1.706611,5.88645,-1.887528,-0.930548,29.245352,-36.782383,0.259809,4.63583E+18,-0.449548,0.403964,-0.596597,-0.528007,0
-9.783131,-1.295092,-1.852194,2.393429,-0.021995,0.002039,42.493969,-3.24941,-18.801071,4.63583E+18,-0.011984,0.707674,-0.025991,-0.705959,-9.391633,-0.209383,-1.851385,0.811667,-0.103466,0.329514,41.971334,20.620586,-1.87909,4.63583E+18,0.384656,0.600493,0.429983,-0.553681,-8.044037,-2.576404,-1.890544,5.99351,-1.864124,-1.019305,29.515149,-36.248487,1.756921,4.63583E+18,-0.465939,0.390969,-0.604447,-0.514477,0
-9.955687,-1.194669,-1.807252,2.43887,-0.054571,0.009127,42.470668,-3.85807,-19.021891,4.63583E+18,-0.019274,0.707322,-0.033059,-0.705855,-9.590193,-0.300813,-1.84539,0.800607,-0.101474,0.342473,41.896036,20.535152,-1.92877,4.63583E+18,0.38341,0.602132,0.427289,-0.55485,-8.177799,-2.345826,-2.109982,6.060099,-1.846975,-1.116443,29.783743,-35.771807,3.161794,4.63583E+18,-0.482283,0.377859,-0.611902,-0.500202,0
-10.033929,-1.047623,-1.774514,2.489462,-0.089723,0.018352,42.486748,-4.280902,-19.290468,4.63583E+18,-0.026689,0.706784,-0.040297,-0.705776,-9.712717,-0.439007,-1.833183,0.798975,-0.097927,0.362747,42.096427,20.317955,-2.161863,4.63583E+18,0.382204,0.603804,0.424548,-0.555968,-8.408869,-2.247018,-2.208684,6.103022,-1.83624,-1.221044,30.282184,-35.380478,4.371872,4.63583E+18,-0.498542,0.36469,-0.618874,-0.485234,0
-10.062783,-0.948854,-1.781162,2.537234,-0.108464,0.027334,42.68261,-4.510059,-19.317673,4.63583E+18,-0.034218,0.706105,-0.047696,-0.70567,-9.668486,-0.65646,-1.466225,0.83711,-0.097201,0.382338,42.352807,20.205547,-2.523747,4.63583E+18,0.380542,0.605866,0.421233,-0.557384,-8.689212,-2.173559,-2.040134,6.121396,-1.831911,-1.323605,30.855289,-34.747832,5.568303,4.63583E+18,-0.514667,0.351499,-0.625297,-0.469649,0
-10.098276,-0.884506,-1.862159,2.581411,-0.119386,0.029278,42.799156,-4.754683,-19.181215,4.63583E+18,-0.04187,0.705304,-0.055223,-0.705509,-9.615517,-0.857978,-0.996389,0.906093,-0.106956,0.395356,42.325368,20.191046,-2.750126,4.63583E+18,0.379107,0.607751,0.418096,-0.55867,-9.078886,-2.245521,-1.929732,6.175553,-1.842461,-1.419794,31.259632,-33.955739,6.679926,4.63583E+18,-0.53071,0.338172,-0.63121,-0.453387,0
-10.15656,-0.786839,-1.932652,2.61361,-0.142882,0.025636,42.698221,-5.211909,-18.99252,4.63583E+18,-0.049627,0.704344,-0.062824,-0.70533,-9.678168,-0.668181,-0.702731,0.984228,-0.100083,0.405332,42.320994,19.988356,-2.85423,4.63583E+18,0.377482,0.609779,0.414759,-0.560046,-9.445235,-2.645382,-1.868282,6.327401,-1.838321,-1.498968,31.916428,-33.247132,7.971998,4.63583E+18,-0.546706,0.324474,-0.636835,-0.436199,0
-10.175966,-0.69695,-1.898284,2.609978,-0.189872,0.025296,42.431307,-5.680822,-18.932554,4.63583E+18,-0.057381,0.70316,-0.070395,-0.705207,-9.783889,0.015896,-0.872024,0.996763,-0.071667,0.418492,42.535891,19.602324,-3.020757,4.63583E+18,0.375792,0.611908,0.411387,-0.561346,-9.726773,-2.866762,-1.916123,6.547892,-1.82558,-1.555782,32.563528,-32.539103,9.26598,4.63583E+18,-0.562633,0.310193,-0.642309,-0.417927,0
-10.233115,-0.67415,-1.709705,2.585067,-0.250169,0.021173,42.280391,-5.948217,-19.009669,4.63583E+18,-0.065084,0.701721,-0.077859,-0.705187,-9.954544,0.501154,-1.249954,0.962002,-0.062679,0.427057,42.579422,19.460913,-3.213983,4.63583E+18,0.374184,0.614008,0.408079,-0.562541,-10.092227,-2.82035,-2.02544,6.757355,-1.820172,-1.60816,33.21052,-31.589123,10.644648,4.63583E+18,-0.578431,0.295311,-0.647551,-0.398605,0
-10.28971,-0.759609,-1.404495,2.592091,-0.294802,0.011849,42.192666,-6.374293,-19.029158,4.63583E+18,-0.072842,0.700067,-0.085295,-0.705212,-10.06672,0.026564,-1.531193,0.922118,-0.059293,0.425667,42.447693,19.446394,-3.328234,4.63583E+18,0.372704,0.616008,0.404912,-0.563624,-10.639846,-2.577988,-2.316735,6.93811,-1.796839,-1.654142,33.857438,-30.262079,12.023921,4.63583E+18,-0.593949,0.279891,-0.652519,-0.37829,0
-10.32803,-0.821776,-1.149763,2.644322,-0.313208,0.004761,42.228154,-6.979145,-18.876047,4.63583E+18,-0.08077,0.698259,-0.092848,-0.705188,-9.94147,-0.379275,-1.716601,0.806359,-0.084458,0.444627,42.491651,19.304548,-3.344829,4.63583E+18,0.371602,0.617791,0.401924,-0.564538,-11.189179,-2.358033,-2.900018,7.102751,-1.780749,-1.683138,34.395564,-29.00405,12.931609,4.63583E+18,-0.609102,0.263916,-0.657142,-0.357081,0
-10.233223,-0.830103,-1.049837,2.723399,-0.304731,-0.004802,42.317479,-7.389818,-18.633056,4.63583E+18,-0.088942,0.696362,-0.100596,-0.705018,-9.96307,-0.490124,-1.076975,0.667887,-0.171284,0.468125,42.718943,19.072858,-3.577855,4.63583E+18,0.370757,0.619395,0.398738,-0.565594,-11.665935,-2.356029,-3.449685,7.266187,-1.771077,-1.69081,35.029458,-27.819264,13.931725,4.63583E+18,-0.623822,0.247312,-0.661384,-0.335043,0
-9.982456,-0.802949,-1.084749,2.818025,-0.243336,-0.018249,42.306522,-7.66112,-18.487488,4.63583E+18,-0.097389,0.694519,-0.108593,-0.704533,-10.105159,-1.270503,-0.119313,0.676008,-0.263348,0.489852,42.975298,18.899632,-3.939678,4.63583E+18,0.370337,0.620647,0.395601,-0.566699,-12.008927,-2.247177,-4.107804,7.427478,-1.750882,-1.673945,35.579504,-26.478057,15.114032,4.63583E+18,-0.637994,0.230024,-0.665252,-0.312238,0
-9.692227,-0.725258,-1.179097,2.902715,-0.141527,-0.033981,42.139957,-8.095433,-18.623476,4.63583E+18,-0.106068,0.692845,-0.116819,-0.703611,-9.828197,-1.235766,-0.184197,0.720667,-0.2779,0.528945,42.887178,18.730804,-4.247186,4.63583E+18,0.369906,0.621994,0.392222,-0.567852,-12.036274,-2.040554,-4.70653,7.553845,-1.722121,-1.637806,36.286068,-24.990109,16.201392,4.63583E+18,-0.651491,0.2121,-0.668699,-0.288815,0
-9.514594,-0.675859,-1.209107,2.950451,-0.05019,-0.046119,42.170978,-8.750701,-18.564299,4.63583E+18,-0.114858,0.691319,-0.125174,-0.702294,-9.3911,-0.233942,-0.77898,0.746205,-0.245808,0.545074,42.799411,18.559917,-4.297006,4.63583E+18,0.369443,0.623434,0.388845,-0.568895,-11.782513,-1.796744,-5.437734,7.600515,-1.679523,-1.593023,37.211798,-23.258913,16.997581,4.63583E+18,-0.664161,0.193754,-0.671646,-0.26503,0
-9.488454,-0.670832,-1.199627,2.980408,-0.011397,-0.055782,42.214351,-9.320124,-18.250796,4.63583E+18,-0.123725,0.689788,-0.133588,-0.700742,-9.476331,0.044419,-0.86075,0.793273,-0.253447,0.536255,42.857861,18.257326,-4.286876,4.63583E+18,0.368843,0.624905,0.385362,-0.570039,-11.296418,-1.588905,-6.327302,7.623161,-1.612465,-1.541817,37.825029,-21.682879,17.803062,4.63583E+18,-0.675893,0.175074,-0.674127,-0.240979,0
-9.556657,-0.680319,-1.252327,3.006481,-0.057904,-0.059189,42.086856,-9.64928,-18.038666,4.63583E+18,-0.132683,0.688,-0.142025,-0.6992,-9.823601,-0.394818,-0.530355,0.854476,-0.264333,0.528756,43.024352,17.927726,-4.679873,4.63583E+18,0.368076,0.626421,0.381731,-0.571313,-10.771905,-1.405587,-7.230427,7.622313,-1.553644,-1.504307,38.120945,-20.192954,18.608652,4.63583E+18,-0.686697,0.156172,-0.67608,-0.216732,0
-9.658762,-0.631495,-1.243619,3.026536,-0.170061,-0.054527,41.869857,-9.870529,-18.05358,4.63583E+18,-0.141729,0.685759,-0.15045,-0.697863,-9.847481,-0.366749,-0.555041,0.901537,-0.267741,0.53121,43.126415,17.800736,-4.993852,4.63583E+18,0.366725,0.628299,0.377458,-0.572955,-10.307391,-0.883847,-8.000857,7.579977,-1.479017,-1.464801,38.498609,-18.546266,19.329784,4.63583E+18,-0.696501,0.137187,-0.677522,-0.192431,0
-9.67836,-0.609783,-0.999722,3.042167,-0.295167,-0.055728,41.815754,-10.223342,-18.037732,4.63583E+18,-0.150878,0.683033,-0.158819,-0.696763,-9.677109,0.032953,-0.786449,0.915198,-0.268991,0.52662,43.211863,17.725415,-5.122687,4.63583E+18,0.365741,0.629896,0.373615,-0.574349,-9.916115,0.511611,-8.769832,7.395481,-1.398965,-1.439038,39.106732,-16.898461,19.941112,4.63583E+18,-0.705241,0.118594,-0.67837,-0.168476,0
-9.509806,-0.681265,-0.53373,3.062646,-0.354338,-0.062682,41.986656,-10.653299,-17.830207,4.63583E+18,-0.160118,0.680012,-0.167165,-0.695703,-9.674234,0.312439,-1.063062,0.901404,-0.279808,0.51578,43.297315,17.500241,-5.129188,4.63583E+18,0.364788,0.631407,0.369824,-0.575747,-9.779419,1.758121,-8.837574,7.007588,-1.337905,-1.465242,39.69285,-15.093486,20.370056,4.63583E+18,-0.712967,0.101147,-0.678472,-0.14534,0
-9.268356,-0.839374,-0.050243,3.097874,-0.338203,-0.058902,42.05298,-11.222935,-17.645921,4.63583E+18,-0.169409,0.676895,-0.175608,-0.694461,-9.781745,0.272995,-1.28304,0.895654,-0.298828,0.507576,43.332121,17.183147,-5.370168,4.63583E+18,0.363847,0.632842,0.366025,-0.577192,-9.48793,1.878898,-9.382285,6.656815,-1.19872,-1.500413,40.049134,-13.286578,20.507165,4.63583E+18,-0.719562,0.084842,-0.67818,-0.122899,0
-9.085252,-1.006986,0.229585,3.165071,-0.300952,-0.047256,41.894291,-11.909466,-17.511644,4.63583E+18,-0.178797,0.67371,-0.184275,-0.692957,-9.843049,0.215852,-1.450037,0.900424,-0.313804,0.496556,43.346406,16.853585,-5.896007,4.63583E+18,0.362858,0.634234,0.362189,-0.578706,-9.013634,0.417023,-10.088726,6.399598,-1.024957,-1.529311,40.330564,-11.721899,20.750243,4.63583E+18,-0.725029,0.069418,-0.677737,-0.100934,0
-8.902156,-1.149,0.302497,3.282459,-0.281313,-0.027509,41.816917,-12.370292,-17.32704,4.63583E+18,-0.188409,0.670354,-0.193318,-0.691199,-9.810871,0.298657,-1.53785,0.916579,-0.32769,0.489236,43.348488,16.726507,-6.226726,4.63583E+18,0.361817,0.635594,0.3583,-0.580284,-8.658448,1.3217,-12.042046,6.106216,-0.773623,-1.520067,40.695966,-10.231895,21.091111,4.63583E+18,-0.729178,0.054916,-0.677448,-0.079676,0
-8.680338,-1.323176,0.158977,3.432098,-0.26495,-0.000077,41.910701,-12.614431,-17.061173,4.63583E+18,-0.198308,0.66677,-0.202844,-0.689164,-9.691175,0.489509,-1.560465,0.938279,-0.340688,0.466882,43.348488,16.641064,-6.274605,4.63583E+18,0.360746,0.636867,0.354466,-0.581908,-9.501364,2.442906,-11.432224,5.73525,-0.569145,-1.577101,41.050099,-8.65796,21.43292,4.63583E+18,-0.732217,0.041737,-0.67721,-0.059186,0
-8.3442,-1.51521,-0.179249,3.550941,-0.191874,0.023578,41.945827,-12.963081,-16.849785,4.63583E+18,-0.208364,0.663132,-0.212796,-0.686701,-9.597402,0.575534,-1.441071,0.941221,-0.343761,0.456308,43.227012,16.21144,-6.507435,4.63583E+18,0.359637,0.638107,0.350642,-0.58355,-12.930685,18.930663,-16.261633,5.571958,0.191232,-1.112237,41.259007,-7.168013,21.593354,4.63583E+18,-0.732547,0.027912,-0.678943,-0.040399,0
-7.995546,-1.673907,-0.555291,3.62441,-0.041288,0.044394,41.864842,-13.618122,-16.564246,4.63583E+18,-0.218381,0.659692,-0.2231,-0.683625,-9.795415,0.019011,-1.112339,1.035824,-0.429871,0.405423,43.282992,15.852632,-6.869219,4.63583E+18,0.358271,0.639191,0.346587,-0.585623,-13.919273,20.047389,-23.513982,5.090165,0.275892,-0.676101,41.309378,-5.993019,21.84876,4.63583E+18,-0.732144,0.014326,-0.680567,-0.02427,0
-7.891324,-1.755195,-0.619907,3.753477,0.165383,0.074923,41.774932,-14.312692,-16.082869,4.63583E+18,-0.228421,0.656535,-0.233992,-0.67973,-10.810862,-1.889221,1.278182,1.436164,-0.567118,0.48998,43.441364,15.725527,-7.257703,4.63583E+18,0.356231,0.640636,0.341114,-0.588494,-15.935379,34.5149,-23.620969,3.303118,0.697641,-0.104903,41.297764,-5.135416,22.201826,4.63583E+18,-0.730146,0.004608,-0.683113,-0.014906,0
-8.217058,-1.661996,-0.484133,3.959463,0.357749,0.10064,41.755866,-14.688477,-15.488527,4.63583E+18,-0.238703,0.653528,-0.245663,-0.67496,-9.80664,1.243607,-0.327126,1.186956,-0.374778,0.457255,43.480683,15.579351,-7.557232,4.63583E+18,0.354489,0.642113,0.336612,-0.590526,-13.489268,35.551277,-27.283776,0.699698,0.468035,0.088922,41.067986,-4.667792,22.495361,4.63583E+18,-0.728665,0.002236,-0.684733,-0.013532,0
-8.98072,-1.432165,-0.305783,4.178218,0.44664,0.101683,41.853523,-15.164524,-14.894854,4.63583E+18,-0.249416,0.65036,-0.25797,-0.669534,-9.801338,2.87642,-2.933204,0.859902,-0.295515,0.356142,43.351177,15.410517,-7.848153,4.63583E+18,0.353254,0.643143,0.333296,-0.592024,-6.127788,-4.980563,-16.006477,-0.000771,-0.075798,-0.594556,40.969005,-4.43357,22.401546,4.63583E+18,-0.728761,0.003906,-0.68465,-0.012084,0
-9.799206,-0.909089,-0.632842,4.315551,0.486912,0.084804,41.924092,-15.928188,-14.284534,4.63583E+18,-0.260423,0.64697,-0.270578,-0.663625,-11.167179,1.343392,-1.822729,0.994207,-0.475269,0.489864,43.465775,15.320599,-8.060135,4.63583E+18,0.352231,0.644101,0.329019,-0.593981,-3.504457,-8.501983,-6.139606,-0.113241,0.283705,-0.6405,41.04057,-4.201629,22.291799,4.63583E+18,-0.727827,0.006065,-0.685648,-0.01081,0
-10.14255,-0.415387,-1.724372,4.276987,0.53321,0.055445,41.936299,-16.420424,-13.623868,4.63583E+18,-0.271269,0.643569,-0.282964,-0.657392,-10.395841,-1.136677,-1.541996,1.036441,-0.546547,0.491145,43.636677,15.095536,-8.326299,4.63583E+18,0.350062,0.645539,0.323304,-0.596833,-4.796465,0.543481,-9.366267,-0.42097,0.727256,-0.603876,40.968774,-4.126832,22.484091,4.63583E+18,-0.725607,0.00907,-0.687969,-0.010516,0
-10.337519,-0.166177,-2.549798,4.142587,0.530674,0.018399,41.975585,-16.629404,-12.908989,4.63583E+18,-0.281772,0.640152,-0.294795,-0.65108,-9.209328,-0.99784,-2.208226,1.018574,-0.534703,0.497338,43.615274,14.636754,-8.607069,4.63583E+18,0.349051,0.646352,0.318842,-0.598942,-5.728129,1.601534,-13.254612,-0.792024,0.568844,-0.771627,40.738441,-4.053596,22.776062,4.63583E+18,-0.723818,0.01367,-0.689772,-0.010784,0
-10.797134,-0.01668,-2.647927,4.047635,0.383492,-0.005732,42.022959,-17.000915,-12.310875,4.63583E+18,-0.292184,0.636285,-0.306047,-0.645062,-9.343027,0.234278,-1.716375,0.983748,-0.543267,0.545054,43.544124,14.277982,-8.968772,4.63583E+18,0.348256,0.647139,0.314318,-0.600943,-8.55347,-0.068549,-12.617058,-1.532853,0.106113,-0.835732,40.591074,-4.052858,22.972387,4.63583E+18,-0.723289,0.020663,-0.690113,-0.013014,0
-11.428052,0.119891,-2.139451,4.051441,0.015503,0.004187,41.985126,-17.458271,-11.71658,4.63583E+18,-0.302962,0.631227,-0.316802,-0.639846,-9.594044,0.059136,-1.344115,0.926003,-0.5715,0.612804,43.612551,14.079964,-9.266207,4.63583E+18,0.347815,0.647843,0.309708,-0.602832,-17.765919,-5.873861,-3.269035,-1.438761,-0.770866,-0.804638,40.734627,-4.052858,22.877659,4.63583E+18,-0.725249,0.027231,-0.687781,-0.015143,0
-11.984851,0.687752,-1.42109,4.0399,-0.467131,0.021416,41.970267,-17.879811,-11.153869,4.63583E+18,-0.314212,0.62469,-0.326874,-0.635756,-9.570923,-0.459558,-1.385061,0.95702,-0.6255,0.6594,43.700096,13.919166,-9.557119,4.63583E+18,0.347466,0.648497,0.304808,-0.604823,-20.095034,-3.564266,10.928509,-1.29921,-0.555583,-0.34224,40.965706,-4.125364,22.489974,4.63583E+18,-0.726545,0.03206,-0.686128,-0.018244,0
-12.31095,1.718288,-0.685707,3.757239,-0.770327,-0.004444,41.920223,-18.34484,-10.737855,4.63583E+18,-0.32512,0.617582,-0.335647,-0.632638,-10.388125,-0.701113,-1.333021,1.013416,-0.676275,0.686003,43.866492,13.547991,-9.839955,4.63583E+18,0.346383,0.649466,0.298858,-0.607369,-14.450242,-2.561315,6.069195,-0.686634,0.297891,-0.258231,40.95596,-4.271114,22.111422,4.63583E+18,-0.725458,0.034857,-0.6871,-0.019736,0
-12.302232,2.633927,-0.210588,3.295827,-0.719126,-0.089024,41.869979,-18.678743,-10.561241,4.63583E+18,-0.334915,0.611209,-0.342981,-0.629777,-11.217099,0.390697,-1.844556,0.974591,-0.679371,0.736062,43.907941,13.203777,-10.201667,4.63583E+18,0.346159,0.65009,0.29354,-0.609419,-10.707245,-4.859181,1.47508,0.08187,0.566643,-0.174958,40.895425,-4.200094,22.397597,4.63583E+18,-0.7237,0.035112,-0.688953,-0.019241,0
-11.872725,2.890511,-0.290325,2.998631,-0.502032,-0.171776,41.715141,-18.810386,-10.424311,4.63583E+18,-0.343798,0.605826,-0.349567,-0.626562,-11.302293,0.743998,-2.013895,1.065468,-0.702179,0.763274,43.646951,12.864058,-10.74199,4.63583E+18,0.34584,0.650765,0.287945,-0.611545,-10.488049,1.36314,-0.033587,0.232436,0.453039,-0.026111,40.894802,-4.05437,22.763028,4.63583E+18,-0.722273,0.034473,-0.690493,-0.018774,0
-11.236154,2.924866,-0.987503,2.886072,-0.397699,-0.180201,41.642088,-18.991832,-10.163312,4.63583E+18,-0.352212,0.600792,-0.355936,-0.623141,-10.60388,-0.404526,-1.480102,1.280177,-0.73013,0.774897,43.602753,12.461582,-11.153807,4.63583E+18,0.344988,0.651665,0.281719,-0.613963,-10.135841,4.110019,0.12029,0.190587,0.418003,-0.193687,40.894802,-3.968298,22.960087,4.63583E+18,-0.720951,0.034436,-0.691897,-0.017928,0
-10.73646,3.175328,-1.375842,2.783933,-0.533187,-0.132297,41.727538,-19.298674,-9.795259,4.63583E+18,-0.360394,0.595396,-0.361911,-0.620194,-9.713092,-0.475005,-1.245826,1.466294,-0.710984,0.796019,43.756599,12.046539,-11.451293,4.63583E+18,0.343644,0.652871,0.274974,-0.616487,-9.467747,2.628316,1.330069,0.135167,0.543428,-0.327596,40.592801,-3.979486,23.155405,4.63583E+18,-0.719265,0.034962,-0.693651,-0.016822,0
-10.327774,3.164036,-0.67002,2.644315,-0.694567,-0.085939,41.762763,-19.375776,-9.53321,4.63583E+18,-0.368303,0.589639,-0.36735,-0.617845,-9.103135,0.511524,-1.311793,1.569064,-0.682144,0.831911,43.666554,11.773124,-12.055805,4.63583E+18,0.342061,0.654301,0.267893,-0.618965,-9.496978,0.764152,1.366974,0.145157,0.585978,-0.334275,40.360095,-3.907134,23.350723,4.63583E+18,-0.717453,0.03548,-0.695527,-0.015661,0
-9.815681,2.719935,0.217414,2.52452,-0.617701,-0.059127,41.712696,-19.534627,-9.334028,4.63583E+18,-0.375682,0.584148,-0.372621,-0.615457,-8.918033,0.445052,-1.06763,1.793813,-0.671011,0.864162,43.651582,11.31662,-12.48433,4.63583E+18,0.339912,0.65607,0.260143,-0.621577,-9.316161,0.430573,-0.106525,0.149496,0.58747,-0.368154,40.357674,-3.67685,23.533962,4.63583E+18,-0.715633,0.03608,-0.697396,-0.014384,0
-9.317186,2.068307,0.356334,2.420423,-0.436792,-0.043794,41.716559,-19.855882,-9.126503,4.63583E+18,-0.382445,0.579193,-0.377905,-0.612748,-8.575549,-0.448825,-1.175038,2.200939,-0.63256,0.934075,43.946981,10.543059,-12.609894,4.63583E+18,0.335841,0.658899,0.250209,-0.624867,-9.374642,0.644672,-0.738078,0.113607,0.519842,-0.400217,40.430146,-3.360387,23.620422,4.63583E+18,-0.714,0.03687,-0.699051,-0.013121,0
-8.917601,1.313482,-0.16886,2.358687,-0.363696,-0.05123,41.724903,-20.081179,-8.953748,4.63583E+18,-0.388921,0.574472,-0.383093,-0.609887,-8.15457,-0.794515,-1.997424,2.844377,-0.546989,0.993466,44.098714,9.915236,-12.935988,4.63583E+18,0.330872,0.662467,0.239419,-0.627964,-9.701405,1.166367,-0.877515,-0.020999,0.46839,-0.414295,40.346369,-3.127545,23.717953,4.63583E+18,-0.712492,0.038095,-0.700539,-0.012212,0
-8.590024,0.73867,-0.95704,2.35871,-0.424797,-0.078106,41.724903,-20.131379,-8.825204,4.63583E+18,-0.395523,0.56958,-0.388081,-0.607069,-8.243105,-1.98296,-2.878718,3.82826,-0.445037,1.025997,43.925414,9.541707,-13.63799,4.63583E+18,0.323105,0.667539,0.226059,-0.631579,-9.741121,1.268539,-1.78482,-0.073161,0.392811,-0.4081,40.345467,-3.125095,23.718985,4.63583E+18,-0.711191,0.039453,-0.701797,-0.011488,0
-8.304944,0.419685,-1.469423,2.391372,-0.541192,-0.118484,41.675351,-20.289427,-8.630684,4.63583E+18,-0.40245,0.564345,-0.392826,-0.604348,-8.428307,-3.758852,-3.52295,5.125252,-0.352047,1.041381,43.784491,8.585137,-14.316027,4.63583E+18,0.311623,0.674338,0.209348,-0.635871,-9.439582,-0.070981,-2.482879,0.041483,0.293733,-0.389011,40.357543,-3.125095,23.815602,4.63583E+18,-0.710195,0.040411,-0.702766,-0.010504,0
-7.929933,0.224145,-1.546246,2.438009,-0.618754,-0.1702,41.543999,-20.398571,-8.407518,4.63583E+18,-0.409699,0.558857,-0.397395,-0.601583,-8.742847,-5.452412,-3.504263,6.648482,-0.310809,1.077201,43.925321,7.367339,-14.80327,4.63583E+18,0.295475,0.682897,0.188157,-0.641048,-9.134397,-0.785919,-2.405771,0.120925,0.219757,-0.345479,40.273137,-3.052633,23.901183,4.63583E+18,-0.709424,0.041003,-0.703525,-0.009429,0
-7.621844,0.062867,-1.356469,2.483738,-0.608446,-0.213309,41.518865,-20.398571,-8.173771,4.63583E+18,-0.417097,0.553324,-0.401954,-0.598579,-9.327313,-6.40481,-2.953335,8.146016,-0.270986,1.122213,44.07008,5.980655,-15.335822,4.63583E+18,0.275046,0.692701,0.16289,-0.646516,-9.131138,-0.950483,-2.259934,0.390181,0.123864,-0.320707,40.11522,-2.749925,23.998711,4.63583E+18,-0.708978,0.040718,-0.704013,-0.00765,0
-7.590078,-0.117655,-1.031663,2.513584,-0.50839,-0.242634,41.626526,-20.446682,-8.046501,4.63583E+18,-0.424419,0.547971,-0.406648,-0.595175,-9.871098,-5.198396,-3.400433,9.325513,-0.202787,1.197339,44.00214,4.483708,-15.73349,4.63583E+18,0.251007,0.703135,0.134096,-0.651625,-9.469254,-1.664636,-2.028934,0.785082,0.077403,-0.316218,40.028999,-2.589683,23.999754,4.63583E+18,-0.708729,0.039253,-0.704372,-0.004735,0
-7.925649,-0.234537,-0.693553,2.559906,-0.411067,-0.259821,41.766719,-20.60538,-7.791964,4.63583E+18,-0.431673,0.54274,-0.411545,-0.591373,-10.315086,-1.563113,-3.728039,10.197464,-0.214015,1.327164,43.821517,2.909481,-16.089565,4.63583E+18,0.224412,0.713315,0.10238,-0.656003,-9.859363,-1.406752,-1.543407,0.881286,0.086416,-0.251718,40.028076,-2.515516,24.096359,4.63583E+18,-0.708459,0.037316,-0.704762,-0.001728,0
-8.503022,-0.294459,-0.400991,2.617643,-0.368025,-0.268299,41.808875,-20.690068,-7.405078,4.63583E+18,-0.438951,0.537459,-0.416594,-0.58729,-10.439042,1.680588,-3.50927,10.756964,-0.277346,1.416659,43.838497,0.979024,-16.352562,4.63583E+18,0.195993,0.722489,0.068609,-0.659462,-10.117168,-0.787998,-1.272471,0.834743,0.106596,-0.167542,40.100527,-2.128307,24.266472,4.63583E+18,-0.708114,0.035265,-0.705217,0.000902,0
-9.055705,-0.439115,-0.215655,2.668302,-0.342323,-0.252501,41.70122,-20.578712,-7.085831,4.63583E+18,-0.446202,0.532051,-0.421801,-0.583018,-10.318116,3.675395,-3.303055,10.998636,-0.334581,1.464748,43.89954,-1.083804,-16.364214,4.63583E+18,0.166589,0.730196,0.033837,-0.661753,-10.216531,-0.515643,-1.209199,0.783512,0.137453,-0.108524,40.016802,-1.737717,24.36491,4.63583E+18,-0.707662,0.033185,-0.705764,0.003218,0
-9.465163,-0.719852,-0.077691,2.729437,-0.294294,-0.207677,41.642402,-20.507689,-6.869455,4.63583E+18,-0.453335,0.526496,-0.427292,-0.578542,-10.027992,4.080709,-3.62542,11.073222,-0.335982,1.501099,43.819044,-3.250092,-16.155728,4.63583E+18,0.136702,0.736375,-0.001329,-0.662618,-10.10893,-0.174636,-1.280978,0.714281,0.151525,-0.058228,40.015869,-1.504044,24.450496,4.63583E+18,-0.707154,0.031158,-0.706354,0.005188,0
-9.699318,-0.948837,0.031811,2.796146,-0.202284,-0.144757,41.765226,-20.718149,-6.572793,4.63583E+18,-0.460236,0.520852,-0.4332,-0.573789,-9.46809,3.505364,-4.194095,11.099721,-0.283921,1.513347,43.709198,-5.081032,-15.850986,4.63583E+18,0.106474,0.741102,-0.036577,-0.661886,-9.974915,0.143023,-1.305926,0.645908,0.144282,-0.029155,39.931349,-1.429066,24.36691,4.63583E+18,-0.706653,0.029247,-0.706922,0.006871,0
-9.889843,-1.010626,-0.088033,2.856873,-0.029038,-0.084449,41.725647,-20.995991,-6.241689,4.63583E+18,-0.466745,0.515322,-0.439659,-0.568588,-8.867792,2.825517,-4.398085,11.091899,-0.194731,1.483678,43.589217,-6.768245,-15.523467,4.63583E+18,0.075975,0.744453,-0.071598,-0.659462,-9.695778,-0.058746,-1.318265,0.652556,0.129411,-0.035178,40.002854,-1.271322,24.450486,4.63583E+18,-0.706191,0.027332,-0.707442,0.008591,0
-10.115854,-0.917415,-0.64325,2.938243,0.155523,-0.042436,41.618736,-21.128791,-5.766,4.63583E+18,-0.472921,0.509917,-0.446698,-0.562842,-8.643618,2.093447,-4.74254,10.967455,-0.067823,1.422412,43.477248,-8.723721,-14.799643,4.63583E+18,0.045572,0.746524,-0.105899,-0.655294,-9.511589,-0.278344,-1.342545,0.758274,0.115513,-0.042643,39.931225,-1.112626,24.632519,4.63583E+18,-0.705775,0.025127,-0.70791,0.010644,0
-10.380687,-0.65927,-1.388574,3.043263,0.218427,-0.027479,41.730764,-21.202027,-5.03552,4.63583E+18,-0.479091,0.504344,-0.454071,-0.556712,-8.951915,2.308986,-5.011831,10.674179,0.021457,1.370348,43.49878,-10.454583,-13.903163,4.63583E+18,0.015887,0.747255,-0.139008,-0.649642,-9.497495,-0.292843,-1.789502,0.976006,0.0805,-0.07336,39.857979,-1.038438,24.827702,4.63583E+18,-0.705476,0.022376,-0.708253,0.013426,0
-10.651816,-0.241659,-1.890255,3.153894,0.162961,-0.047442,41.972748,-21.349199,-4.224283,4.63583E+18,-0.485563,0.498373,-0.461476,-0.550358,-9.75904,3.815555,-4.407054,10.199293,0.00872,1.341549,43.456653,-11.793582,-12.926917,4.63583E+18,-0.012431,0.746491,-0.170482,-0.643065,-9.569787,-0.11191,-2.047983,1.017504,0.068493,-0.042015,39.772674,-0.880704,24.733289,4.63583E+18,-0.705205,0.01941,-0.708551,0.016237,0
-10.923742,0.239613,-2.056006,3.246931,0.071291,-0.095767,41.933197,-21.566785,-3.633063,4.63583E+18,-0.492425,0.492005,-0.468729,-0.543822,-10.235786,6.478572,-2.797194,9.410963,-0.10644,1.266583,43.274354,-13.265161,-12.008933,4.63583E+18,-0.038556,0.744236,-0.199323,-0.636315,-9.836169,0.034987,-1.966346,0.97464,0.028225,-0.037433,39.904503,-0.565083,24.53906,4.63583E+18,-0.705039,0.016556,-0.708723,0.018909,0
-11.052516,0.72975,-2.13148,3.298274,-0.032268,-0.155155,41.822563,-21.484361,-3.254679,4.63583E+18,-0.499635,0.48532,-0.47568,-0.537177,-10.222207,8.708523,-0.48948,8.288067,-0.259224,1.14488,43.066834,-14.637375,-11.034867,4.63583E+18,-0.061592,0.740815,-0.224515,-0.630074,-9.935737,0.32633,-1.856751,0.854797,0.002422,-0.028935,39.978427,-0.404615,24.440312,4.63583E+18,-0.704932,0.01403,-0.708819,0.021203,0
-10.961601,1.04679,-2.133725,3.305341,-0.143583,-0.216681,41.826258,-21.362156,-2.84303,4.63583E+18,-0.507119,0.478398,-0.482203,-0.530515,-10.154863,7.766529,1.331379,7.131638,-0.405631,1.001487,42.98057,-15.838716,-10.046068,4.63583E+18,-0.083486,0.735866,-0.248295,-0.624405,-9.973036,0.208903,-1.493434,0.722494,0.004248,0.00918,39.906828,-0.258008,24.52371,4.63583E+18,-0.704807,0.011779,-0.708928,0.022995,0
-10.636171,1.245479,-2.062727,3.27865,-0.221023,-0.274529,41.864327,-21.54302,-2.299315,4.63583E+18,-0.514734,0.471385,-0.488299,-0.52384,-9.820986,4.807361,2.098529,6.270193,-0.512695,0.842772,42.919534,-16.66705,-9.299792,4.63583E+18,-0.101233,0.731206,-0.266814,-0.619596,-9.816543,-0.202844,-1.525512,0.660802,-0.009457,0.032847,39.809444,0.190223,24.428115,4.63583E+18,-0.704716,0.009631,-0.708999,0.024543,0
-10.079149,1.337995,-1.93327,3.232876,-0.250762,-0.312377,41.95829,-21.601327,-1.661179,4.63583E+18,-0.522304,0.464392,-0.49407,-0.51714,-9.571844,1.681762,1.914421,5.787438,-0.589036,0.677961,42.787776,-17.423834,-8.765703,4.63583E+18,-0.117954,0.726254,-0.283388,-0.615087,-9.754404,-0.243735,-1.320741,0.646386,-0.014894,0.054235,39.953178,0.509131,24.318388,4.63583E+18,-0.704638,0.007458,-0.709052,0.025992,0
-9.464322,1.358715,-1.760941,3.196535,-0.207372,-0.32934,42.017883,-21.289092,-1.158776,4.63583E+18,-0.529652,0.45752,-0.499737,-0.510301,-9.493567,-0.287235,1.431168,5.531771,-0.642919,0.508866,42.631184,-18.049329,-8.194484,4.63583E+18,-0.134332,0.721067,-0.298617,-0.61061,-9.777851,-0.014851,-0.980489,0.666293,0.008277,0.082987,40.039309,0.211005,24.329216,4.63583E+18,-0.70449,0.005145,-0.709166,0.02741,0
-9.003315,1.322912,-1.577011,3.147894,-0.091958,-0.335919,41.969872,-21.140966,-0.785168,4.63583E+18,-0.536585,0.450931,-0.505458,-0.50324,-9.363907,-1.252802,0.867939,5.371482,-0.679861,0.352291,42.472488,-18.495936,-7.608529,4.63583E+18,-0.150599,0.715684,-0.312793,-0.606034,-9.729857,0.422249,-0.867978,0.660188,0.012769,0.101267,40.040283,0.135116,24.232809,4.63583E+18,-0.704325,0.002798,-0.709289,0.028754,0
-8.724296,1.150579,-1.551774,3.086464,0.027689,-0.327024,41.910883,-21.240057,-0.309613,4.63583E+18,-0.543037,0.444632,-0.511251,-0.496019,-9.197228,-1.543182,0.203325,5.205528,-0.70785,0.196725,42.384528,-18.779614,-7.103452,4.63583E+18,-0.166716,0.710178,-0.32591,-0.601361,-9.632755,0.342781,-1.023613,0.685459,0.031825,0.109922,40.028215,0.508397,24.316174,4.63583E+18,-0.704099,0.000343,-0.709461,0.030154,0
-8.619558,0.911265,-1.640914,3.030679,0.112734,-0.30412,42.129777,-21.299058,0.298996,4.63583E+18,-0.549066,0.438513,-0.517083,-0.488731,-9.218271,-0.918107,-0.318639,4.963213,-0.734553,0.046967,42.371899,-19.177396,-6.45353,4.63583E+18,-0.182459,0.704639,-0.337826,-0.596713,-9.535119,-0.225264,-1.001291,0.737481,0.05527,0.111075,39.955683,0.66956,24.510193,4.63583E+18,-0.703798,-0.002274,-0.709688,0.031707,0
-8.601397,0.647523,-1.727498,3.002959,0.181795,-0.267479,42.385534,-21.054308,0.729653,4.63583E+18,-0.554729,0.432446,-0.523005,-0.481385,-9.521763,-0.165035,-0.716015,4.636841,-0.763909,-0.092666,42.513329,-19.453121,-5.759812,4.63583E+18,-0.197566,0.699168,-0.348376,-0.592255,-9.534918,-0.190014,-0.990048,0.781253,0.080794,0.120919,39.954518,0.600035,24.409814,4.63583E+18,-0.703415,-0.005049,-0.709978,0.033358,0
-8.681167,0.385242,-1.773764,2.993695,0.270142,-0.229453,42.397163,-20.68729,1.120527,4.63583E+18,-0.560017,0.426426,-0.5291,-0.473913,-9.784833,0.327016,-1.023699,4.288181,-0.803536,-0.226908,42.674114,-19.565931,-5.316586,4.63583E+18,-0.211972,0.693826,-0.357519,-0.588094,-9.572788,0.019071,-1.039501,0.797497,0.107279,0.12941,39.942623,0.675463,24.22448,4.63583E+18,-0.702947,-0.007901,-0.710335,0.035033,0
-8.918244,0.202407,-1.797048,2.994565,0.352295,-0.196066,42.315979,-20.530588,1.711098,4.63583E+18,-0.564969,0.420424,-0.535369,-0.466299,-9.988553,0.26145,-1.235845,3.972335,-0.860212,-0.348039,42.701496,-19.520078,-5.097689,4.63583E+18,-0.225767,0.688588,-0.365368,-0.584279,-9.655125,0.281702,-1.111184,0.780743,0.125191,0.135899,39.938896,0.83383,24.421949,4.63583E+18,-0.702419,-0.010728,-0.710739,0.036642,0
-9.249257,0.145355,-1.864331,2.998614,0.385576,-0.181361,42.435782,-20.552152,2.480687,4.63583E+18,-0.569732,0.414376,-0.541667,-0.458579,-10.133371,-0.182132,-1.471557,3.747598,-0.925329,-0.450694,42.499509,-19.578126,-4.823688,4.63583E+18,-0.239209,0.68336,-0.372225,-0.58073,-9.616327,0.31118,-1.125566,0.736641,0.133763,0.145132,39.792097,0.974729,24.690919,4.63583E+18,-0.701861,-0.013456,-0.711167,0.038094,0
-9.602949,0.23363,-1.955736,2.992579,0.36747,-0.182578,42.507041,-20.384399,3.021158,4.63583E+18,-0.574434,0.408244,-0.547826,-0.450831,-10.176756,-0.621998,-1.594503,3.632291,-0.988014,-0.543837,42.44725,-19.522196,-4.530739,4.63583E+18,-0.252585,0.678055,-0.378386,-0.577292,-9.501728,0.079172,-1.223548,0.721467,0.143323,0.139818,39.639311,0.90522,24.509971,4.63583E+18,-0.701268,-0.016123,-0.711619,0.039515,0
-9.856743,0.474348,-2.023009,2.968535,0.329641,-0.199691,42.348353,-20.102774,3.51822,4.63583E+18,-0.579122,0.402072,-0.553738,-0.443091,-10.100191,-1.23101,-1.833531,3.579454,-1.026992,-0.63658,42.647099,-19.436745,-4.318551,4.63583E+18,-0.26603,0.672684,-0.384023,-0.573803,-9.672591,0.314458,-1.329989,0.696513,0.150203,0.135411,39.712537,0.982465,24.41697,4.63583E+18,-0.700648,-0.018707,-0.712089,0.040877,0
-10.046968,0.802825,-2.110743,2.934305,0.294239,-0.227165,42.340927,-19.979829,4.147342,4.63583E+18,-0.583792,0.395918,-0.559373,-0.435358,-9.972252,-1.817358,-2.314097,3.560401,-1.037316,-0.725965,42.891223,-19.280626,-4.204025,4.63583E+18,-0.279575,0.667285,-0.389252,-0.570133,-9.839476,0.673571,-1.306192,0.615469,0.13437,0.125501,39.781764,1.214406,24.50273,4.63583E+18,-0.700074,-0.021027,-0.712522,0.042033,0
-10.161655,1.167876,-2.128918,2.879042,0.280477,-0.262957,42.653197,-19.945491,4.874627,4.63583E+18,-0.588379,0.389898,-0.564736,-0.427625,-9.938939,-2.179038,-2.919714,3.55005,-1.026756,-0.806661,42.792106,-19.049172,-4.035711,4.63583E+18,-0.293194,0.661884,-0.394147,-0.566211,-9.851066,0.750369,-1.307119,0.539577,0.125555,0.104462,39.696621,1.442637,24.60039,4.63583E+18,-0.699524,-0.023066,-0.712939,0.043031,0
-10.233492,1.521616,-2.086063,2.803805,0.264509,-0.300541,42.753492,-19.73464,5.47479,4.63583E+18,-0.592861,0.384064,-0.569787,-0.419944,-9.957018,-2.375301,-3.602917,3.563405,-0.996968,-0.877759,42.752439,-18.865581,-3.852586,4.63583E+18,-0.306831,0.656525,-0.398748,-0.561987,-9.837013,0.494658,-1.340046,0.462069,0.106465,0.095891,39.627386,1.523772,24.697731,4.63583E+18,-0.699034,-0.024852,-0.713312,0.043827,0
-10.223577,1.738531,-2.019055,2.710966,0.22753,-0.331714,42.565822,-19.282125,5.938616,4.63583E+18,-0.597255,0.378417,-0.574461,-0.41241,-10.031907,-2.48562,-4.187637,3.629262,-0.947958,-0.9463,42.942134,-18.634119,-3.578632,4.63583E+18,-0.320872,0.650976,-0.403542,-0.557158,-9.750024,0.267332,-1.233255,0.403033,0.09301,0.086358,39.710682,1.444473,24.78349,4.63583E+18,-0.698584,-0.026433,-0.713655,0.044475,0
-10.114629,1.795638,-1.998328,2.605852,0.189666,-0.35906,42.535665,-19.043549,6.376658,4.63583E+18,-0.601543,0.372983,-0.578748,-0.405069,-10.097168,-2.482328,-4.668407,3.743081,-0.885903,-1.002294,43.244736,-18.309217,-3.124142,4.63583E+18,-0.335002,0.645445,-0.408243,-0.551827,-9.608764,0.223732,-1.248846,0.374435,0.095945,0.079896,39.706376,1.603169,24.873767,4.63583E+18,-0.698126,-0.027917,-0.71401,0.04506,0
-9.880153,1.696357,-1.989807,2.49541,0.179147,-0.38274,42.629637,-19.017748,6.755087,4.63583E+18,-0.605652,0.367822,-0.582721,-0.397905,-10.04716,-2.306489,-5.122193,3.87015,-0.823581,-1.044218,43.420799,-17.90684,-2.7267,4.63583E+18,-0.349369,0.63976,-0.413101,-0.545891,-9.671019,0.379042,-1.392256,0.354809,0.088281,0.071459,39.535493,1.759703,24.678776,4.63583E+18,-0.697689,-0.02932,-0.714346,0.045617,0
-9.630027,1.430106,-1.993492,2.397749,0.193275,-0.390297,42.711402,-18.832795,7.126133,4.63583E+18,-0.609524,0.362908,-0.586497,-0.390896,-9.923441,-1.866779,-5.351778,3.985078,-0.765162,-1.066957,43.506719,-17.552358,-2.590549,4.63583E+18,-0.363874,0.633891,-0.418111,-0.539408,-9.777211,0.396108,-1.414222,0.319935,0.073595,0.067293,39.373164,1.825293,24.505156,4.63583E+18,-0.697297,-0.03061,-0.714644,0.046085,0
-9.474099,1.142215,-2.002014,2.337473,0.211392,-0.384615,42.766219,-18.391987,7.509592,4.63583E+18,-0.613187,0.358126,-0.590174,-0.383983,-9.738704,-1.2675,-5.353184,4.030099,-0.712787,-1.069401,43.650612,-17.422553,-2.333512,4.63583E+18,-0.378297,0.627875,-0.423169,-0.532534,-9.739671,0.133975,-1.340365,0.300176,0.069617,0.067293,39.545902,1.597333,24.702313,4.63583E+18,-0.696918,-0.031837,-0.714934,0.046491,0
-9.459583,0.970378,-1.990961,2.308772,0.210728,-0.368472,42.748951,-17.96517,7.93916,4.63583E+18,-0.616721,0.353341,-0.593772,-0.377146,-9.533297,-0.776151,-5.256001,3.986888,-0.666816,-1.055085,43.809304,-17.276542,-1.879045,4.63583E+18,-0.392384,0.621797,-0.428126,-0.525464,-9.669482,0.125731,-1.243327,0.300871,0.076933,0.06732,39.785756,1.533848,24.96414,4.63583E+18,-0.696516,-0.033066,-0.715243,0.046897,0
-9.499886,0.924079,-1.958025,2.292107,0.206595,-0.347755,42.715074,-17.760402,8.317562,4.63583E+18,-0.620148,0.348507,-0.597311,-0.370376,-9.245053,-0.584807,-4.924116,3.869862,-0.626373,-1.028283,43.887247,-16.835278,-1.481628,4.63583E+18,-0.405919,0.61576,-0.432841,-0.51838,-9.719531,0.271915,-1.174044,0.286425,0.077948,0.068415,39.855037,1.845146,24.959265,4.63583E+18,-0.696111,-0.034264,-0.715557,0.047263,0
-9.556073,0.915555,-1.948341,2.268152,0.219005,-0.32982,42.826288,-17.575552,8.747488,4.63583E+18,-0.623422,0.343677,-0.600819,-0.363659,-8.86923,-0.723013,-4.57597,3.723841,-0.587736,-1.002092,43.958374,-16.405429,-1.264678,4.63583E+18,-0.418832,0.609837,-0.437249,-0.511362,-9.815057,0.399798,-1.258277,0.250028,0.076667,0.070631,39.76776,1.912602,24.766689,4.63583E+18,-0.695715,-0.035365,-0.715872,0.047517,0
-9.596179,0.930285,-1.976439,2.226576,0.241335,-0.318087,42.971422,-17.182575,9.27107,4.63583E+18,-0.626504,0.338928,-0.604286,-0.357013,-8.609789,-0.928423,-4.183703,3.536329,-0.559879,-0.950848,44.031619,-16.121573,-1.000831,4.63583E+18,-0.431,0.604049,-0.441329,-0.504572,-9.824534,0.278344,-1.290649,0.210724,0.067134,0.075918,39.611506,1.757866,24.690647,4.63583E+18,-0.695352,-0.036365,-0.716166,0.047638,0
-9.559561,0.979109,-2.042505,2.175311,0.265578,-0.313815,43.009011,-16.892343,9.709129,4.63583E+18,-0.62939,0.334307,-0.607698,-0.350443,-8.256745,-1.408434,-3.952423,3.434462,-0.501571,-0.919845,44.23606,-15.734022,-0.709969,4.63583E+18,-0.442634,0.598366,-0.445278,-0.497757,-9.728088,0.184931,-1.161219,0.179668,0.061097,0.079282,39.553806,1.761505,24.97847,4.63583E+18,-0.695013,-0.037284,-0.716447,0.047657,0
-9.541343,1.046338,-2.128935,2.122432,0.278449,-0.307933,42.957851,-16.74721,10.087541,4.63583E+18,-0.632107,0.329802,-0.611025,-0.343976,-8.10035,-0.280523,-3.081039,3.176516,-0.44525,-0.849182,44.528522,-15.30892,-0.427111,4.63583E+18,-0.453278,0.593015,-0.44888,-0.491303,-9.686535,0.259691,-1.228017,0.145036,0.068979,0.088789,39.627052,1.904658,25.059372,4.63583E+18,-0.694656,-0.038137,-0.716755,0.047549,0
-9.598892,1.14517,-2.067704,2.064205,0.258967,-0.298963,42.97994,-16.562353,10.399736,4.63583E+18,-0.634729,0.325372,-0.614185,-0.337681,-7.707951,3.497189,-3.450252,2.452613,-0.3378,-0.687843,44.581436,-15.234839,-0.136256,4.63583E+18,-0.461537,0.588849,-0.451543,-0.486157,-9.925826,0.383696,-1.515529,0.092677,0.050505,0.094182,39.698475,1.912639,24.962028,4.63583E+18,-0.694362,-0.038854,-0.717019,0.047273,0
-9.7074,1.222089,-1.906503,2.001291,0.224483,-0.293741,43.005333,-16.099484,10.532657,4.63583E+18,-0.637297,0.321023,-0.61713,-0.331583,-7.014103,2.944378,-3.665467,2.118112,-0.176855,-0.648965,44.510801,-15.174296,0.13654,4.63583E+18,-0.46855,0.585512,-0.453897,-0.481264,-9.969224,0.108961,-1.589075,0.039665,0.019925,0.102187,39.694552,1.755754,24.878689,4.63583E+18,-0.69417,-0.039434,-0.717203,0.046819,0
-9.715758,1.289134,-1.733289,1.932604,0.204441,-0.296316,42.901503,-15.647222,10.727279,4.63583E+18,-0.639783,0.316812,-0.619882,-0.32566,-6.259436,6.315675,-5.169769,1.324504,-0.038818,-0.475148,44.485894,-14.879094,0.263826,4.63583E+18,-0.472985,0.583636,-0.455325,-0.477843,-9.80345,0.069624,-1.673018,0.002333,0.004496,0.130948,39.537969,1.672414,24.876577,4.63583E+18,-0.694036,-0.03999,-0.717345,0.046173,0
-9.600873,1.302513,-1.618568,1.857626,0.212605,-0.30293,42.824909,-15.502064,11.229137,4.63583E+18,-0.642114,0.312809,-0.622508,-0.319881,-5.906183,9.38033,-5.349982,0.517641,0.051062,-0.284538,44.614921,-14.607942,0.119364,4.63583E+18,-0.474884,0.583167,-0.455762,-0.476112,-9.838566,-0.079851,-1.701634,-0.032439,-0.02976,0.156633,39.466534,1.670612,24.790833,4.63583E+18,-0.694013,-0.040518,-0.717389,0.045358,0
-9.43615,1.282946,-1.528263,1.780686,0.246261,-0.306032,42.910365,-15.365095,11.706076,4.63583E+18,-0.644222,0.309045,-0.625083,-0.314231,-5.324845,10.539534,-5.554471,-0.045933,0.290264,-0.067583,44.642475,-14.563432,0.085452,4.63583E+18,-0.474519,0.58388,-0.456072,-0.475304,-9.815654,-0.345411,-1.896652,-0.048329,-0.067224,0.184694,39.47224,1.59917,24.69768,4.63583E+18,-0.69411,-0.04108,-0.717322,0.04442,0
-9.336159,1.250006,-1.421925,1.679503,0.274309,-0.311694,42.970058,-15.064634,11.953711,4.63583E+18,-0.646097,0.305588,-0.627561,-0.308776,-5.212561,13.142625,-7.206978,-0.660792,0.452271,0.274769,44.571867,-14.644126,0.317445,4.63583E+18,-0.471678,0.585468,-0.456324,-0.475937,-9.850774,-0.488596,-2.07676,-0.058801,-0.107761,0.224504,39.702378,1.59917,24.781029,4.63583E+18,-0.694336,-0.041725,-0.717131,0.043346,0
-9.287333,1.192501,-1.183674,1.556033,0.275247,-0.319389,42.992121,-14.632407,12.150339,4.63583E+18,-0.647789,0.302469,-0.629844,-0.303608,-7.370999,7.608388,-6.918833,-0.808269,0.419029,0.27153,44.496504,-14.731694,0.527601,4.63583E+18,-0.468477,0.58734,-0.456125,-0.476981,-9.827258,-0.494228,-2.13779,-0.061564,-0.146262,0.275795,39.855078,1.601262,24.778638,4.63583E+18,-0.694686,-0.042513,-0.716819,0.042125,0
-9.249535,1.032488,-0.835848,1.424952,0.286017,-0.321706,43.094776,-14.20913,12.384626,4.63583E+18,-0.649263,0.299712,-0.631964,-0.298752,-9.479076,-6.100593,-5.99051,-0.860192,0.556113,-0.032932,44.55438,-14.80706,0.490937,4.63583E+18,-0.465688,0.589963,-0.455587,-0.476989,-9.838868,-0.245045,-2.199126,-0.089807,-0.187374,0.328135,39.768135,1.680737,24.683668,4.63583E+18,-0.69517,-0.043374,-0.716381,0.040681,0
-9.303496,0.776005,-0.589494,1.281942,0.341315,-0.29947,43.214207,-14.034838,12.597136,4.63583E+18,-0.65036,0.297341,-0.634063,-0.294253,-12.428565,-6.477496,-6.498542,-0.875649,0.678361,0.069234,44.498642,-14.890374,0.556759,4.63583E+18,-0.462278,0.592788,-0.455326,-0.477053,-9.826661,-0.28077,-2.270278,-0.137616,-0.24917,0.380656,39.625233,1.518157,24.693187,4.63583E+18,-0.695854,-0.044245,-0.71576,0.038954,0
-9.650742,0.375356,-0.365648,1.149292,0.348463,-0.254993,43.166412,-14.026306,12.881597,4.63583E+18,-0.6512,0.295212,-0.636056,-0.290208,-17.544722,-0.157067,1.487232,-0.208099,0.239541,0.466272,44.554368,-15.046422,0.654423,4.63583E+18,-0.460555,0.592694,-0.456522,-0.477693,-9.827773,-0.273372,-2.25837,-0.218485,-0.305633,0.439915,39.629376,1.199064,24.595846,4.63583E+18,-0.696727,-0.045047,-0.714973,0.036824,0
-10.432322,-0.117604,0.151991,1.052081,0.283842,-0.169597,43.029785,-13.927078,13.167189,4.63583E+18,-0.651972,0.293036,-0.637848,-0.286726,-17.397107,0.559932,7.111201,0.249492,0.118424,0.202009,44.569229,-15.217329,0.671407,4.63583E+18,-0.460715,0.591984,-0.45774,-0.477254,-10.36845,0.022935,-2.265176,-0.330873,-0.399578,0.478051,39.799982,0.810498,24.510099,4.63583E+18,-0.697902,-0.045621,-0.713917,0.034262,0
-11.44782,-0.533926,0.734223,1.057259,0.20777,-0.041419,43.021496,-13.619551,13.410011,4.63583E+18,-0.652785,0.290409,-0.639585,-0.283665,-14.168814,2.791042,0.684786,-0.034986,0.343505,-0.008208,44.569229,-15.035293,0.913411,4.63583E+18,-0.460165,0.592662,-0.45831,-0.476394,-11.030463,-0.051712,-2.545058,-0.451347,-0.490869,0.54737,39.956606,0.50916,24.410368,4.63583E+18,-0.699373,-0.046039,-0.712592,0.031159,0
-12.2285,-1.028385,1.205096,1.15472,0.106379,0.088449,43.188727,-13.46607,13.538011,4.63583E+18,-0.653817,0.287044,-0.641305,-0.280815,-12.358272,2.194803,-3.746281,-0.539505,0.314369,0.040256,44.488563,-14.930192,1.196299,4.63583E+18,-0.458338,0.594145,-0.457954,-0.47665,-10.818839,-0.668328,-2.781816,-0.519495,-0.559248,0.655318,40.028371,0.357094,24.224923,4.63583E+18,-0.701063,-0.046575,-0.711043,0.027556,0
-12.325329,-1.514074,1.245984,1.19141,0.051468,0.19684,43.273941,-13.500084,13.567403,4.63583E+18,-0.654896,0.283219,-0.643033,-0.27822,-11.615666,-2.461146,-2.331314,-0.369052,0.067737,0.091021,44.481652,-15.119112,1.013241,4.63583E+18,-0.457294,0.594721,-0.457582,-0.477292,-10.443648,-1.03439,-2.709884,-0.579672,-0.628446,0.766405,40.045878,-0.02163,23.944153,4.63583E+18,-0.702968,-0.047258,-0.709261,0.023464,0
-11.688884,-1.817837,0.795377,1.201169,0.206765,0.274991,43.166444,-13.392588,13.690781,4.63583E+18,-0.655461,0.27933,-0.645274,-0.275623,-9.444767,-3.786857,-1.732961,-0.086434,0.09333,0.114149,44.554351,-15.161595,0.803073,4.63583E+18,-0.456844,0.594775,-0.457862,-0.477387,-10.198323,-0.898637,-2.196585,-0.654055,-0.687566,0.877157,40.274285,-0.410205,23.665444,4.63583E+18,-0.705055,-0.048046,-0.707272,0.018842,0
-10.780795,-1.855288,0.307318,1.204155,0.458049,0.308581,43.011423,-13.27798,13.932678,4.63583E+18,-0.655294,0.275624,-0.648225,-0.272809,-7.910151,-2.942224,-2.584024,0.02859,0.131887,0.173072,44.629721,-15.02045,0.849721,4.63583E+18,-0.456486,0.594577,-0.458587,-0.47728,-9.905673,-0.703635,-1.664504,-0.711848,-0.718616,0.974168,40.359725,-0.719163,23.475129,4.63583E+18,-0.70723,-0.048953,-0.705152,0.013774,0
-10.008199,-1.489918,0.081778,1.097035,0.554047,0.284389,42.934738,-13.317205,14.285378,4.63583E+18,-0.654753,0.272378,-0.651271,-0.270101,-8.051482,-2.565194,-2.02503,0.176813,0.077619,0.204197,44.450921,-15.202408,0.94738,4.63583E+18,-0.456539,0.593925,-0.459586,-0.47708,-9.642482,-0.519645,-1.3267,-0.731562,-0.752771,1.063508,40.447228,-1.185095,23.480305,4.63583E+18,-0.709488,-0.050063,-0.702887,0.008394,0
-9.327149,-0.740183,0.073244,0.919102,0.531772,0.213021,42.968768,-13.402438,14.57832,4.63583E+18,-0.654133,0.269779,-0.653961,-0.267701,-8.15029,-1.539157,-0.799322,0.30298,0.059865,0.206525,44.279503,-15.458713,1.04502,4.63583E+18,-0.456938,0.592989,-0.460812,-0.476681,-10.088295,-0.322469,-0.645334,-0.767007,-0.789498,1.137594,40.619595,-1.735892,23.195142,4.63583E+18,-0.711834,-0.051285,-0.700468,0.0027,0
-8.779321,0.219197,0.102617,0.743195,0.453463,0.125446,42.861293,-13.26926,14.838239,4.63583E+18,-0.653615,0.267808,-0.656132,-0.265625,-8.386387,-0.252042,-0.291507,0.198404,0.097556,0.167344,44.382878,-15.503402,1.223325,4.63583E+18,-0.457086,0.592396,-0.46181,-0.47631,-10.352353,-1.077022,0.56198,-0.626097,-0.977151,1.229374,40.85355,-2.342692,22.733354,4.63583E+18,-0.714665,-0.053189,-0.697436,-0.002814,0
-8.524344,1.007539,0.152545,0.58706,0.347578,0.053366,42.728297,-13.04714,15.021352,4.63583E+18,-0.653284,0.26634,-0.657756,-0.263895,-9.05014,0.267879,-0.514155,-0.01235,0.119857,0.132696,44.481085,-15.563877,1.337995,4.63583E+18,-0.456743,0.592313,-0.462349,-0.47622,-12.891382,-3.252891,6.633176,-0.039087,-1.317941,1.403782,41.166863,-2.800743,22.352593,4.63583E+18,-0.718313,-0.057353,-0.693316,-0.007062,0
-8.469541,1.402653,0.139224,0.489946,0.204128,0.016664,42.699101,-12.953328,15.178745,4.63583E+18,-0.653274,0.265077,-0.658837,-0.262489,-9.774618,-0.023159,-1.269188,-0.19502,0.092852,0.106826,44.364959,-15.647199,1.274391,4.63583E+18,-0.456049,0.592575,-0.462408,-0.476501,-13.926385,-5.9997,9.33407,1.045747,-1.312017,1.503502,41.31335,-3.020767,21.874175,4.63583E+18,-0.721628,-0.065051,-0.689166,-0.008469,0
-8.568467,1.464959,0.225872,0.482605,0.047777,0.031322,42.728312,-13.035107,15.305754,4.63583E+18,-0.653666,0.263622,-0.659499,-0.261315,-10.101781,-0.490734,-1.57732,-0.24919,0.060063,0.055802,44.337288,-15.531073,1.096101,4.63583E+18,-0.455376,0.592983,-0.462159,-0.476878,-14.85578,-6.594907,10.072707,1.841165,-1.317094,1.620955,41.458081,-3.25268,21.307456,4.63583E+18,-0.724656,-0.07547,-0.684919,-0.007937,0
-8.716146,1.55034,0.31625,0.508128,-0.04743,0.081853,42.655072,-13.112014,15.501057,4.63583E+18,-0.654288,0.261855,-0.659983,-0.260311,-10.134275,-0.52336,-1.369514,-0.188967,0.050067,0.016831,44.337288,-15.503402,0.900802,4.63583E+18,-0.45494,0.59334,-0.461903,-0.477098,-15.830392,-0.693792,7.01455,2.182829,-0.967059,1.822383,41.535388,-3.488392,21.031035,4.63583E+18,-0.726466,-0.087474,-0.681576,-0.007142,0
-8.882229,1.377954,0.434595,0.522324,-0.022277,0.143582,42.552487,-13.146114,15.578999,4.63583E+18,-0.654787,0.259905,-0.660614,-0.259408,-10.172449,-0.573168,-1.268019,-0.120513,0.049135,-0.035165,44.337288,-15.704925,1.03802,4.63583E+18,-0.454786,0.593658,-0.461663,-0.477082,-15.730386,-0.713329,2.307489,2.349801,-0.895666,1.918919,41.777505,-3.873227,20.933667,4.63583E+18,-0.727887,-0.100238,-0.678302,-0.006186,0
-9.220438,0.727252,0.466341,0.529704,0.071378,0.184903,42.432934,-13.038668,15.442365,4.63583E+18,-0.654986,0.257921,-0.661551,-0.258494,-10.493364,-0.60611,-1.26744,-0.032239,0.03679,-0.076605,44.337288,-15.74755,1.225408,4.63583E+18,-0.454965,0.593856,-0.461483,-0.476839,-15.997152,-4.962757,2.342205,2.798467,-0.917673,2.075085,41.934162,-4.017967,20.84101,4.63583E+18,-0.729034,-0.114786,-0.67477,-0.004417,0
-9.775918,-0.091822,0.559165,0.569348,0.113322,0.190229,42.432934,-12.901976,15.49736,4.63583E+18,-0.655103,0.255859,-0.662648,-0.257439,-10.559403,-0.61037,-1.22926,0.088027,0.026245,-0.107123,44.397753,-15.546002,1.4186,4.63583E+18,-0.455529,0.593857,-0.461455,-0.476327,-14.699243,-5.714392,3.311785,3.422126,-0.878126,2.19645,42.003945,-4.094963,20.455279,4.63583E+18,-0.729575,-0.13154,-0.67113,-0.001271,0
-10.397166,-0.811931,0.695822,0.654375,0.086191,0.148666,42.436599,-12.86418,15.684121,4.63583E+18,-0.655424,0.253649,-0.663712,-0.256062,-10.206781,-0.862244,-1.20059,0.205228,0.018396,-0.137721,44.340008,-15.432878,1.452681,4.63583E+18,-0.456457,0.593679,-0.461568,-0.475549,-14.257093,-4.720777,4.46589,3.817986,-0.838067,2.301785,41.93243,-4.328923,20.272168,4.63583E+18,-0.729546,-0.149744,-0.667332,0.002646,0
-10.825617,-1.287969,0.666496,0.764934,0.074568,0.064276,42.467136,-12.915433,15.850121,4.63583E+18,-0.655977,0.251356,-0.664769,-0.254159,-10.011237,-0.90548,-0.994813,0.30208,0.010037,-0.15283,44.395611,-15.347421,1.372076,4.63583E+18,-0.457664,0.593335,-0.461812,-0.474582,-14.201952,-3.064633,4.373844,4.150192,-0.821493,2.432084,41.937886,-4.642259,20.084485,4.63583E+18,-0.728982,-0.169259,-0.663239,0.007085,0
-11.154023,-1.534508,0.539502,0.87089,0.122647,-0.03176,42.54405,-12.816442,15.969783,4.63583E+18,-0.656601,0.249087,-0.665961,-0.251647,-9.955428,-0.973879,-0.972329,0.353574,0.013835,-0.158408,44.470987,-15.191436,1.274414,4.63583E+18,-0.458992,0.592916,-0.46214,-0.4735,-13.881114,-3.100245,4.011929,4.396695,-0.870226,2.472561,42.16954,-4.788748,19.706055,4.63583E+18,-0.728062,-0.189559,-0.65867,0.012124,0
-11.486006,-1.629702,0.347871,0.95291,0.172292,-0.135249,42.603836,-12.512535,16.169984,4.63583E+18,-0.65727,0.24693,-0.667259,-0.248568,-9.989333,-0.928351,-1.127713,0.392769,0.005257,-0.161799,44.352806,-15.161595,1.16669,4.63583E+18,-0.460379,0.592469,-0.462446,-0.472415,-13.420679,-3.554812,3.830254,4.676211,-0.901642,2.465247,42.384393,-4.933801,19.340833,4.63583E+18,-0.726659,-0.210594,-0.653677,0.017982,0
-11.715459,-1.665087,0.15012,1.021905,0.149637,-0.226457,42.57819,-12.316038,16.35792,4.63583E+18,-0.658155,0.24481,-0.668462,-0.245067,-9.947473,-0.653525,-1.169781,0.399487,-0.009141,-0.158831,44.244456,-15.101126,1.38937,4.63583E+18,-0.461802,0.591973,-0.462743,-0.471355,-13.096754,-2.114585,3.707623,4.893842,-0.906783,2.508636,42.394313,-5.017243,19.515353,4.63583E+18,-0.724703,-0.232291,-0.648271,0.024303,0
-11.689764,-1.611361,-0.136778,1.077553,0.066212,-0.289045,42.496403,-12.256233,16.387231,4.63583E+18,-0.659379,0.242622,-0.669417,-0.241319,-9.805785,-0.557843,-1.464232,0.353623,-0.021452,-0.166024,44.368543,-15.08835,1.682395,4.63583E+18,-0.463148,0.591554,-0.462908,-0.470398,-12.488307,-1.229101,3.553707,4.965169,-0.902828,2.53254,42.310574,-5.017243,19.327671,4.63583E+18,-0.722273,-0.25414,-0.642487,0.030739,0
-11.234404,-1.485628,-0.595775,1.119531,-0.030558,-0.312006,42.467122,-12.157321,16.506867,4.63583E+18,-0.660923,0.24028,-0.670111,-0.237482,-10.040187,-0.91218,-1.798061,0.29632,-0.069359,-0.156234,44.599909,-15.007718,1.733451,4.63583E+18,-0.464877,0.590685,-0.463459,-0.46924,-11.445825,-2.105175,3.086113,4.938522,-0.867604,2.439511,42.30408,-5.016957,18.955812,4.63583E+18,-0.719369,-0.275524,-0.636553,0.037341,0
-10.52519,-1.333039,-1.073044,1.176782,-0.129144,-0.304635,42.591643,-11.802098,16.648461,4.63583E+18,-0.662774,0.237657,-0.670582,-0.233599,-10.045129,-1.039194,-1.754737,0.263334,-0.118728,-0.116774,44.642475,-15.061243,1.501638,4.63583E+18,-0.46615,0.590091,-0.463457,-0.468727,-10.210763,-2.840346,2.478956,4.953816,-0.834746,2.342371,42.534288,-5.005035,18.85788,4.63583E+18,-0.715958,-0.296553,-0.630479,0.044228,0
-9.907484,-1.141375,-1.28056,1.241192,-0.206048,-0.286903,42.784515,-11.41267,16.666757,4.63583E+18,-0.664868,0.234725,-0.670905,-0.229654,-9.601096,-1.483227,-1.703215,0.240854,-0.149157,-0.086022,44.440898,-15.01567,1.442602,4.63583E+18,-0.467365,0.589421,-0.463425,-0.46839,-9.381783,-2.728272,2.509041,4.762174,-0.854839,2.242606,42.689005,-5.005035,18.744036,4.63583E+18,-0.71245,-0.31659,-0.624174,0.050921,0
-9.520551,-0.965604,-1.24027,1.269814,-0.215552,-0.270882,42.810141,-11.13437,16.531263,4.63583E+18,-0.666981,0.231652,-0.671226,-0.225675,-9.297963,-1.997965,-1.545683,0.242419,-0.171447,-0.02916,44.388251,-14.932364,1.521085,4.63583E+18,-0.468454,0.588655,-0.463416,-0.468276,-8.094905,-5.03627,2.245855,4.68646,-0.776144,1.945637,42.677082,-5.003046,18.469801,4.63583E+18,-0.708434,-0.335493,-0.618207,0.05818,0
-9.389935,-0.817895,-0.9949,1.253685,-0.179021,-0.269708,42.775964,-10.950038,16.416517,4.63583E+18,-0.668954,0.228649,-0.671616,-0.221703,-9.202826,-2.158006,-1.271867,0.270872,-0.17694,0.035628,44.527198,-14.846907,1.457516,4.63583E+18,-0.469681,0.587512,-0.463843,-0.468058,-7.127145,-5.311118,1.178563,4.610132,-0.669753,1.64662,42.680758,-4.917887,18.47178,4.63583E+18,-0.703867,-0.353274,-0.612714,0.065957,0
-9.526649,-0.732444,-0.708035,1.210213,-0.110021,-0.287331,42.861411,-10.680265,16.552011,4.63583E+18,-0.670689,0.225874,-0.672125,-0.21773,-9.423954,-1.961293,-1.089735,0.305749,-0.174667,0.089323,44.557022,-15.033543,1.521093,4.63583E+18,-0.470764,0.586319,-0.464323,-0.467991,-7.040279,-4.857316,-0.09252,4.286042,-0.672801,1.303348,42.837191,-4.838988,18.548466,4.63583E+18,-0.699415,-0.369084,-0.607565,0.073895,0
-9.897715,-0.681192,-0.522482,1.16781,-0.020092,-0.313177,42.91757,-10.350693,16.770523,4.63583E+18,-0.672137,0.223365,-0.672805,-0.213713,-9.704697,-1.704963,-1.011663,0.340994,-0.182925,0.132654,44.29504,-15.217209,1.457523,4.63583E+18,-0.471797,0.585022,-0.464876,-0.468025,-6.897183,-5.824963,-0.389789,3.895141,-0.760582,0.944399,42.899926,-4.519901,18.257753,4.63583E+18,-0.69545,-0.382699,-0.602632,0.08201,0
-10.307894,-0.473679,-0.561514,1.127754,0.059492,-0.351736,42.909023,-10.043058,16.847428,4.63583E+18,-0.673341,0.221143,-0.673622,-0.20962,-9.894778,-1.5796,-0.900248,0.361254,-0.190961,0.165495,44.239628,-15.105984,1.198652,4.63583E+18,-0.472828,0.583604,-0.465533,-0.468103,-6.897183,-5.378045,-0.353455,3.370313,-0.901471,0.628742,43.034455,-4.129076,18.062201,4.63583E+18,-0.692392,-0.393854,-0.597817,0.089932,0
-10.631387,-0.199014,-0.798333,1.087595,0.084382,-0.393927,42.88706,-9.790372,16.932877,4.63583E+18,-0.674459,0.219168,-0.67442,-0.205494,-9.934695,-1.300574,-0.73787,0.358949,-0.201965,0.197353,44.441146,-15.005612,1.147496,4.63583E+18,-0.474105,0.581812,-0.466605,-0.467974,-6.898862,-4.616533,-0.330159,2.825053,-1.039702,0.332066,43.178985,-3.733786,17.846559,4.63583E+18,-0.690331,-0.402568,-0.59318,0.097566,0
-10.868216,-0.000032,-0.963154,1.029502,0.085137,-0.429815,42.832118,-9.495028,17.01466,4.63583E+18,-0.675537,0.217453,-0.675124,-0.201424,-9.83608,-1.08396,-0.697955,0.324331,-0.20049,0.216171,44.614749,-15.131737,1.318766,4.63583E+18,-0.475021,0.580287,-0.467364,-0.468181,-6.977702,-4.17483,-0.348699,2.303798,-1.197087,0.046871,43.243377,-3.654947,17.288937,4.63583E+18,-0.689324,-0.408955,-0.588699,0.104985,0
-10.943958,0.059846,-0.977826,0.952706,0.047345,-0.453319,42.874781,-9.156828,17.062292,4.63583E+18,-0.676656,0.215986,-0.675623,-0.197534,-9.794604,-0.959167,-0.816715,0.291676,-0.206796,0.229548,44.45106,-15.373158,1.193831,4.63583E+18,-0.475839,0.578789,-0.468074,-0.468495,-7.297562,-3.638045,-0.113167,1.782311,-1.370009,-0.238534,43.452828,-3.333695,16.900295,4.63583E+18,-0.689435,-0.413022,-0.584377,0.112231,0
-10.828052,-0.080475,-0.933888,0.88114,-0.03692,-0.455783,43.063974,-8.972526,17.02082,4.63583E+18,-0.677938,0.214653,-0.675813,-0.19391,-9.891082,-0.929896,-0.912832,0.286264,-0.22063,0.236196,44.279567,-15.548918,1.079108,4.63583E+18,-0.476655,0.577263,-0.468757,-0.468866,-7.725656,-3.112291,0.2758,1.248968,-1.538168,-0.534314,43.743856,-2.845677,16.586481,4.63583E+18,-0.690681,-0.414723,-0.580284,0.119309,0
-10.576598,-0.330741,-0.839935,0.808617,-0.137546,-0.444354,43.226414,-8.702784,16.969479,4.63583E+18,-0.679417,0.21341,-0.67566,-0.190609,-9.801619,-0.786754,-0.978123,0.293314,-0.236462,0.224791,44.322341,-15.576647,1.062044,4.63583E+18,-0.477539,0.575711,-0.469394,-0.469236,-8.186197,-2.55604,0.58846,0.748862,-1.679598,-0.825772,43.951105,-2.369588,15.898692,4.63583E+18,-0.69294,-0.414179,-0.576497,0.126257,0
-10.311714,-0.563845,-0.65442,0.740571,-0.205281,-0.436233,43.200819,-8.373212,17.051266,4.63583E+18,-0.68101,0.212279,-0.675261,-0.187579,-9.768057,-0.605768,-1.059309,0.29569,-0.252486,0.201022,44.337288,-15.576647,0.981462,4.63583E+18,-0.478502,0.574171,-0.469943,-0.469592,-8.500806,-2.230337,0.697214,0.33375,-1.792794,-1.110553,44.148373,-1.891831,15.03837,4.63583E+18,-0.69595,-0.41182,-0.572939,0.133412,0
-10.08096,-0.856812,-0.442006,0.70295,-0.233599,-0.434736,43.166556,-8.094809,17.073323,4.63583E+18,-0.682639,0.211226,-0.674744,-0.184682,-10.017747,-0.422653,-1.134689,0.292351,-0.275559,0.169216,44.196267,-15.647158,0.883801,4.63583E+18,-0.47951,0.572706,-0.470297,-0.469999,-8.696655,-2.069721,0.755198,0.030038,-1.858696,-1.376977,44.429109,-1.344224,14.452483,4.63583E+18,-0.699468,-0.407711,-0.569885,0.140524,0
-9.950276,-1.080319,-0.268635,0.696228,-0.244491,-0.436015,43.27393,-7.884955,17.026843,4.63583E+18,-0.684285,0.210185,-0.674183,-0.181806,-10.11139,-0.118732,-1.348907,0.273981,-0.301884,0.129061,44.166386,-15.662099,0.866726,4.63583E+18,-0.480602,0.571303,-0.470466,-0.470422,-8.915557,-1.818099,0.681677,-0.150846,-1.910284,-1.617918,44.708217,-0.868136,13.864315,4.63583E+18,-0.703206,-0.402428,-0.567146,0.14798,0
-9.935585,-1.130392,-0.10269,0.671357,-0.261576,-0.439329,43.432634,-7.580932,17.045258,4.63583E+18,-0.685951,0.209208,-0.673544,-0.179002,-10.019225,-0.171821,-1.68371,0.256142,-0.351501,0.081232,44.236885,-15.662099,0.796227,4.63583E+18,-0.482128,0.569644,-0.470733,-0.470605,-9.101126,-1.244143,0.594858,-0.256501,-1.929557,-1.838733,44.913516,-0.385218,13.178852,4.63583E+18,-0.70691,-0.396403,-0.56462,0.156036,0
-9.968553,-1.14384,0.184166,0.625848,-0.286464,-0.442316,43.540152,-7.31118,16.935386,4.63583E+18,-0.68764,0.208349,-0.67279,-0.176336,-9.88709,-0.457146,-1.735588,0.245221,-0.424477,0.0462,44.191416,-15.662099,0.700711,4.63583E+18,-0.483551,0.568217,-0.470398,-0.471205,-9.396306,-0.673335,0.451123,-0.404323,-1.950269,-2.04768,45.027239,0.394403,12.413641,4.63583E+18,-0.710675,-0.389381,-0.562409,0.164374,0
-9.94546,-1.098747,0.455248,0.590809,-0.304102,-0.453949,43.553525,-6.981632,16.821882,4.63583E+18,-0.689349,0.207609,-0.671943,-0.173747,-9.722601,-0.573131,-1.4817,0.232964,-0.467899,0.023848,44.168523,-15.591608,0.673545,4.63583E+18,-0.48507,0.566772,-0.469897,-0.471883,-9.786942,-0.770352,0.425607,-0.522124,-1.941298,-2.238445,45.304152,1.106011,11.811625,4.63583E+18,-0.714373,-0.381507,-0.560544,0.172959,0
-9.745463,-0.962085,0.520116,0.569441,-0.286098,-0.478184,43.630408,-6.652087,16.703481,4.63583E+18,-0.690999,0.207008,-0.671105,-0.17113,-9.561784,-0.616162,-1.267165,0.235125,-0.486592,0.007079,44.307348,-15.576647,0.600925,4.63583E+18,-0.486953,0.565026,-0.469669,-0.472264,-10.175068,-1.363788,0.351549,-0.558295,-1.866646,-2.40927,45.410171,1.975922,11.040183,4.63583E+18,-0.717761,-0.372967,-0.559217,0.181633,0
-9.395113,-0.835007,0.371337,0.548846,-0.212124,-0.50884,43.690296,-6.399184,16.626484,4.63583E+18,-0.692439,0.206603,-0.670432,-0.168416,-9.513843,-0.572229,-0.950994,0.234298,-0.497142,-0.008944,44.538684,-15.576647,0.34428,4.63583E+18,-0.488647,0.563525,-0.469094,-0.472878,-10.453647,-1.74922,0.242778,-0.493261,-1.749331,-2.530128,45.351324,2.987495,10.165631,4.63583E+18,-0.720514,-0.364518,-0.558195,0.190801,0
-9.056985,-0.828848,0.077242,0.499116,-0.108922,-0.535871,43.664741,-6.223728,16.589977,4.63583E+18,-0.69356,0.206487,-0.669993,-0.165672,-9.489434,-0.541408,-0.49855,0.238328,-0.498825,-0.025843,44.450574,-15.647112,0.131915,4.63583E+18,-0.490381,0.562046,-0.468479,-0.473453,-10.640083,-1.903254,0.181734,-0.339173,-1.593364,-2.610521,45.389605,3.92757,9.486346,4.63583E+18,-0.722484,-0.356406,-0.557558,0.200302,0
-8.760241,-0.883723,-0.247567,0.411867,-0.043285,-0.552652,43.626748,-5.786772,16.497108,4.63583E+18,-0.694428,0.206715,-0.669664,-0.163064,-9.565687,-0.527059,-0.153313,0.220767,-0.488255,-0.044695,44.221404,-15.591631,0.017124,4.63583E+18,-0.492036,0.560709,-0.467742,-0.47405,-10.970967,-1.850893,0.123709,-0.127014,-1.437117,-2.65532,45.496173,4.86732,9.000072,4.63583E+18,-0.723619,-0.3489,-0.557202,0.210166,0
-8.602569,-1.010588,-0.383451,0.31806,-0.023609,-0.555128,43.725547,-5.418947,16.509199,4.63583E+18,-0.695156,0.207233,-0.669321,-0.160692,-9.673405,-0.524918,-0.017132,0.174557,-0.470153,-0.061278,44.379911,-15.576647,-0.070461,4.63583E+18,-0.493746,0.559367,-0.467108,-0.474482,-11.358607,-1.6371,0.196953,0.116309,-1.266332,-2.650356,45.456009,5.80729,8.593413,4.63583E+18,-0.723895,-0.342231,-0.557067,0.220295,0
-8.623217,-1.202256,-0.262517,0.249568,-0.026474,-0.54242,43.862339,-5.35905,16.603208,4.63583E+18,-0.695821,0.207911,-0.668931,-0.158548,-9.743007,-0.404131,-0.040263,0.118883,-0.457973,-0.080823,44.493201,-15.576647,-0.316962,4.63583E+18,-0.495221,0.558316,-0.466203,-0.475073,-11.616324,-1.156706,0.268018,0.349875,-1.101819,-2.614678,45.26587,6.747258,8.023481,4.63583E+18,-0.723442,-0.336301,-0.55718,0.230399,0
-8.720873,-1.363459,-0.230684,0.205006,-0.049632,-0.522036,43.871135,-5.234943,16.659455,4.63583E+18,-0.696494,0.208646,-0.668459,-0.156606,-9.693321,-0.418692,-0.20988,0.085171,-0.456099,-0.107283,44.437733,-15.576647,-0.527273,4.63583E+18,-0.496662,0.55739,-0.465169,-0.47567,-11.933409,-1.025422,0.243064,0.57029,-0.983576,-2.56028,45.300861,7.688746,7.622851,4.63583E+18,-0.722297,-0.331371,-0.557204,0.240841,0
-8.807574,-1.469664,-0.325682,0.17138,-0.097229,-0.489247,43.729442,-4.896565,16.676439,4.63583E+18,-0.697246,0.209355,-0.667852,-0.154893,-9.630142,-0.51785,-0.324673,0.046643,-0.450815,-0.123605,44.291888,-15.576647,-0.652131,4.63583E+18,-0.498034,0.556582,-0.464031,-0.476291,-12.23754,-1.011255,0.193956,0.904357,-0.878981,-2.508526,45.260966,8.700169,7.320083,4.63583E+18,-0.720464,-0.327478,-0.557153,0.251534,0
-8.86496,-1.56367,-0.53937,0.117902,-0.178049,-0.455289,43.699979,-4.785302,16.707164,4.63583E+18,-0.698151,0.210073,-0.667003,-0.153496,-9.599305,-0.54719,-0.422323,-0.000107,-0.443526,-0.127803,44.193594,-15.506195,-0.671407,4.63583E+18,-0.499241,0.555941,-0.462746,-0.477026,-12.49549,-0.362184,0.131843,1.316497,-0.779085,-2.435616,45.075707,9.628092,7.118284,4.63583E+18,-0.717817,-0.325045,-0.5568,0.262789,0
-8.92839,-1.656427,-0.637305,0.042277,-0.271659,-0.412681,43.820669,-4.712318,16.547461,4.63583E+18,-0.699221,0.210832,-0.665868,-0.152513,-9.605083,-0.649975,-0.499852,-0.007665,-0.454542,-0.127297,44.249043,-15.350296,-0.912948,4.63583E+18,-0.500448,0.555291,-0.461423,-0.477799,-12.82667,0.91729,0.021989,1.625654,-0.701827,-2.350434,44.79497,10.569302,6.632201,4.63583E+18,-0.714562,-0.32377,-0.556146,0.274366,0
-9.000505,-1.773583,-0.516638,-0.033678,-0.339819,-0.361623,44.030701,-4.490078,16.333506,4.63583E+18,-0.700377,0.211626,-0.664528,-0.151948,-9.647483,-0.882755,-0.512711,-0.007477,-0.465973,-0.124468,44.394879,-15.320292,-1.115348,4.63583E+18,-0.501937,0.554354,-0.46039,-0.478322,-13.227934,2.083659,-0.091684,1.765197,-0.656152,-2.277269,44.516065,11.572592,6.239351,4.63583E+18,-0.710914,-0.32323,-0.555202,0.286138,0
-9.023649,-1.871379,-0.248273,-0.091916,-0.388875,-0.315479,44.145618,-4.395774,16.333506,4.63583E+18,-0.701586,0.212431,-0.663046,-0.151721,-9.746623,-0.937826,-0.502648,-0.003955,-0.486339,-0.11422,44.493183,-15.24985,-1.308504,4.63583E+18,-0.503231,0.553559,-0.459089,-0.479132,-13.551026,2.445603,-0.369995,1.792564,-0.621952,-2.227927,44.318882,12.662232,5.749227,4.63583E+18,-0.707096,-0.322879,-0.554179,0.297743,0
-9.083417,-1.916403,0.080218,-0.122823,-0.409101,-0.275735,44.125008,-4.408301,16.245995,4.63583E+18,-0.702796,0.213203,-0.661518,-0.151711,-9.876612,-1.000346,-0.470315,0.006481,-0.509651,-0.104231,44.437754,-15.1644,-1.503818,4.63583E+18,-0.50457,0.552676,-0.45778,-0.479996,-13.579333,2.082372,-0.537126,1.802317,-0.586449,-2.168436,44.036537,13.357972,5.177691,4.63583E+18,-0.70315,-0.322687,-0.553091,0.309102,0
-9.146991,-2.056701,0.305021,-0.1284,-0.394426,-0.246549,44.078394,-4.22409,15.949382,4.63583E+18,-0.703939,0.213919,-0.660052,-0.151788,-9.950517,-1.073591,-0.514195,0.030557,-0.536672,-0.09902,44.422741,-15.149387,-1.779638,4.63583E+18,-0.505999,0.55168,-0.456467,-0.480887,-13.235649,1.855793,-0.538734,1.818785,-0.539709,-2.075202,43.684398,14.058889,4.705624,4.63583E+18,-0.699222,-0.322545,-0.552051,0.319834,0
-9.148263,-2.236152,0.408861,-0.119759,-0.332858,-0.235742,44.133409,-4.052858,15.764501,4.63583E+18,-0.704912,0.214619,-0.658779,-0.151816,-9.951181,-1.036157,-0.444436,0.066059,-0.567079,-0.096509,44.634007,-15.139327,-2.072558,4.63583E+18,-0.507555,0.550545,-0.45516,-0.481786,-12.809464,1.869341,-0.610638,1.855055,-0.504812,-1.9682,43.419321,14.981823,4.408626,4.63583E+18,-0.695219,-0.322755,-0.550849,0.33025,0
-9.127492,-2.428933,0.426157,-0.100132,-0.234726,-0.240096,44.141972,-4.052858,15.833002,4.63583E+18,-0.705634,0.215336,-0.657801,-0.151688,-9.898729,-1.055605,-0.326649,0.080557,-0.583091,-0.090851,44.477876,-15.13718,-2.285064,4.63583E+18,-0.509159,0.549334,-0.453857,-0.482704,-12.431879,1.942577,-0.62711,1.888275,-0.485587,-1.85311,43.311334,15.682838,3.932326,4.63583E+18,-0.690801,-0.323954,-0.549054,0.341155,0
-9.129866,-2.62934,0.355286,-0.0667,-0.125425,-0.257186,44.138326,-4.030986,15.774676,4.63583E+18,-0.706097,0.21607,-0.657148,-0.151319,-9.767261,-1.001677,-0.305185,0.076085,-0.583584,-0.07916,44.294092,-15.006384,-2.319407,4.63583E+18,-0.51069,0.548142,-0.452525,-0.483691,-12.091138,2.023287,-0.839168,1.877706,-0.466571,-1.749103,43.28132,16.083607,3.444297,4.63583E+18,-0.686672,-0.324917,-0.547375,0.351129,0
-9.16284,-2.752493,0.311381,-0.037306,-0.047589,-0.274275,44.177133,-3.954107,15.579383,4.63583E+18,-0.706382,0.216813,-0.656728,-0.150748,-9.691207,-0.757419,-0.295125,0.058926,-0.592891,-0.081308,44.324404,-14.908064,-2.399887,4.63583E+18,-0.512199,0.546969,-0.451132,-0.484724,-11.796296,2.43647,-1.254218,1.824625,-0.457261,-1.627335,43.000819,16.938119,2.966078,4.63583E+18,-0.682689,-0.325981,-0.545574,0.360584,0
-9.176322,-2.964777,0.246694,-0.014681,-0.02232,-0.288496,44.335842,-3.821266,15.464234,4.63583E+18,-0.706628,0.217546,-0.656381,-0.150049,-9.770998,-0.748264,-0.06163,0.044982,-0.612561,-0.091929,44.417757,-14.963442,-2.658472,4.63583E+18,-0.513985,0.545568,-0.449926,-0.485533,-11.420591,2.765994,-1.667855,1.786319,-0.46174,-1.505756,42.733898,17.784001,2.394573,4.63583E+18,-0.678876,-0.327173,-0.543596,0.369578,0
-9.142249,-3.245537,0.169808,0.020344,-0.031583,-0.29119,44.447155,-3.577127,15.54112,4.63583E+18,-0.706931,0.218177,-0.656027,-0.149255,-9.83057,-0.837326,0.138667,0.013682,-0.630403,-0.093117,44.434948,-15.109242,-3.021852,4.63583E+18,-0.515519,0.544395,-0.448373,-0.486658,-11.16182,3.093245,-2.019259,1.754085,-0.475674,-1.391752,42.539089,18.242897,1.922407,4.63583E+18,-0.675248,-0.328475,-0.541424,0.378161,0
-9.016728,-3.471634,0.109867,0.059224,-0.058587,-0.280095,44.399792,-3.405865,15.604705,4.63583E+18,-0.707336,0.218646,-0.655626,-0.14841,-9.889458,-0.794168,0.120612,0.003077,-0.649254,-0.097329,44.505357,-15.207588,-3.088473,4.63583E+18,-0.517077,0.543204,-0.446753,-0.487825,-10.795906,3.314007,-2.247217,1.712578,-0.491048,-1.291774,42.366362,18.47982,1.627619,4.63583E+18,-0.671809,-0.329826,-0.539091,0.386353,0
-8.826141,-3.580224,0.142657,0.092146,-0.085866,-0.260454,44.262956,-3.453229,15.558619,4.63583E+18,-0.707832,0.218949,-0.655181,-0.147557,-10.020904,-0.720924,0.019342,0.02942,-0.67112,-0.107951,44.520401,-15.081815,-3.249406,4.63583E+18,-0.518754,0.541926,-0.445114,-0.488962,-10.444031,3.588045,-2.297876,1.627115,-0.477118,-1.210765,42.109508,18.950204,1.245038,4.63583E+18,-0.668689,-0.330897,-0.536916,0.393807,0
-8.707719,-3.707211,0.256158,0.117444,-0.084849,-0.232271,44.228504,-3.542707,15.426515,4.63583E+18,-0.70833,0.219101,-0.654781,-0.146716,-9.996401,-0.838788,-0.010058,0.057251,-0.692671,-0.121461,44.449992,-14.850562,-3.53525,4.63583E+18,-0.520555,0.540568,-0.443449,-0.490064,-10.188462,4.10903,-2.429011,1.442866,-0.460866,-1.137039,41.832672,19.709567,0.675486,4.63583E+18,-0.66555,-0.332043,-0.534689,0.401122,0
-8.601511,-3.773374,0.36365,0.148528,-0.058487,-0.198733,44.313943,-3.465835,15.447074,4.63583E+18,-0.708764,0.219086,-0.654507,-0.145864,-9.875041,-0.927061,0.088352,0.078671,-0.701712,-0.123905,44.304222,-14.938307,-3.820263,4.63583E+18,-0.522373,0.539188,-0.441746,-0.491186,-9.968205,4.446641,-2.417328,1.234188,-0.434323,-1.062177,41.735275,20.025123,0.30099,4.63583E+18,-0.662878,-0.332594,-0.53288,0.407447,0
-8.514773,-3.72583,0.444175,0.174182,-0.031745,-0.169874,44.373913,-3.405865,15.541093,4.63583E+18,-0.709129,0.218933,-0.654353,-0.145002,-9.710582,-1.010366,0.06964,0.114806,-0.704601,-0.128305,44.205856,-14.895881,-4.030653,4.63583E+18,-0.524281,0.537727,-0.440097,-0.492233,-9.723042,4.589723,-2.427709,1.008201,-0.415327,-0.982756,41.647489,20.261992,0.099958,4.63583E+18,-0.660584,-0.332709,-0.531376,0.413004,0
-8.464657,-3.674428,0.516351,0.193297,-0.01904,-0.149466,44.34843,-3.3549,15.542815,4.63583E+18,-0.709465,0.218677,-0.654267,-0.144135,-9.710638,-1.115923,0.081148,0.142006,-0.714656,-0.125726,44.251135,-14.609322,-4.396902,4.63583E+18,-0.526259,0.536176,-0.438484,-0.493253,-9.427978,4.576733,-2.351335,0.803919,-0.406371,-0.885212,41.451125,20.719093,-0.360013,4.63583E+18,-0.658697,-0.332483,-0.530096,0.417817,0
-8.436603,-3.674428,0.510359,0.219118,0.002284,-0.131945,44.28846,-3.213122,15.376623,4.63583E+18,-0.709754,0.218309,-0.654275,-0.14323,-9.686927,-1.125233,0.165895,0.156894,-0.720247,-0.117055,44.203712,-14.621613,-4.779627,4.63583E+18,-0.528256,0.534561,-0.436904,-0.494272,-9.039656,4.527111,-2.132625,0.686396,-0.378986,-0.771425,41.212193,20.862714,-0.638717,4.63583E+18,-0.657263,-0.33201,-0.529061,0.421745,0
