Accelerometer-X,Accelerometer-Y,Accelerometer-Z,Gyroscope-X,Gyroscope-Y,Gyroscope-Z,Magnetometer-X,Magnetometer-Y,Magnetometer-Z,Barometer-pressure,Orientation-S,Orientation-X,Orientation-Y,Orientation-Z,Accelerometer-X,Accelerometer-Y,Accelerometer-Z,Gyroscope-X,Gyroscope-Y,Gyroscope-Z,Magnetometer-X,Magnetometer-Y,Magnetometer-Z,Barometer-pressure,Orientation-S,Orientation-X,Orientation-Y,Orientation-Z,Accelerometer-X,Accelerometer-Y,Accelerometer-Z,Gyroscope-X,Gyroscope-Y,Gyroscope-Z,Magnetometer-X,Magnetometer-Y,Magnetometer-Z,Barometer-pressure,Orientation-S,Orientation-X,Orientation-Y,Orientation-Z,jump
-9.577303,-0.861217,0.492613,1.103957,-0.126009,-0.11181,43.627324,-14.527628,10.02466,4.63583E+18,0.699676,-0.123861,0.668273,0.220277,-9.656056,-1.283163,-0.429795,0.212481,0.029162,0.032065,44.302053,-14.793073,5.31022,4.63583E+18,0.566248,-0.496131,0.534758,0.383734,-6.943403,-1.984969,2.0023,3.633359,-0.314954,0.706166,44.734763,12.600725,5.931941,4.63583E+18,0.581941,0.463273,0.5421,-0.39096,0
-9.611168,-0.838369,0.532802,1.136409,-0.133967,-0.115223,43.543005,-14.497267,10.188475,4.63583E+18,0.700772,-0.120812,0.668792,0.216888,-9.663427,-1.357556,-0.471252,0.230881,0.028941,0.042424,44.335905,-14.87,5.31022,4.63583E+18,0.566629,-0.495507,0.53528,0.383248,-6.157045,-2.666546,2.194933,3.80082,-0.195509,0.511318,44.847315,12.493544,5.501102,4.63583E+18,0.57573,0.473301,0.534421,-0.398642,0
-9.695049,-0.745037,0.6344,1.166075,-0.134001,-0.125526,43.507187,-14.288944,10.371582,4.63583E+18,0.701876,-0.117701,0.669317,0.213382,-9.662051,-1.362173,-0.480928,0.258106,0.02477,0.051069,44.254149,-14.955441,5.339692,4.63583E+18,0.567062,-0.494793,0.535852,0.382731,-5.726788,-2.963987,1.431496,4.042718,-0.027795,0.348131,44.880968,12.448862,5.122693,4.63583E+18,0.568241,0.483694,0.526919,-0.406816,0
-9.764346,-0.569026,0.782059,1.200115,-0.119461,-0.139755,43.762354,-14.356691,10.488521,4.63583E+18,0.702951,-0.114541,0.669891,0.209729,-9.634167,-1.253468,-0.474931,0.268713,0.019006,0.0578,44.199324,-14.96354,5.40788,4.63583E+18,0.567518,-0.494029,0.536441,0.382217,-5.768082,-4.468219,-0.111733,4.39506,0.083543,0.186206,44.863106,12.561684,4.653813,4.63583E+18,0.559345,0.494603,0.519245,-0.415795,0
-9.825381,-0.31701,0.808446,1.221306,-0.10461,-0.155535,43.959638,-14.326376,10.434971,4.63583E+18,0.70399,-0.111373,0.670502,0.205962,-9.694051,-1.163387,-0.588917,0.249485,0.011187,0.064632,44.23869,-14.796311,5.437351,4.63583E+18,0.56794,-0.493282,0.536995,0.381777,-6.058099,-6.242375,-0.640173,4.786898,0.107074,0.044047,44.838689,12.720381,4.080065,4.63583E+18,0.549139,0.505976,0.511048,-0.425752,0
-9.886413,-0.086269,0.796239,1.222685,-0.095686,-0.169076,43.797046,-13.995251,10.403466,4.63583E+18,0.704999,-0.108243,0.671117,0.202143,-9.761081,-1.182959,-0.852407,0.232838,-0.006767,0.070617,44.375275,-14.707603,5.535002,4.63583E+18,0.568358,-0.492531,0.537491,0.381426,-6.223074,-5.427908,-0.527621,5.032792,0.131863,-0.065274,44.887771,12.918633,3.551607,4.63583E+18,0.537936,0.517509,0.502487,-0.436252,0
-9.919104,0.124029,0.774581,1.20377,-0.078286,-0.17776,43.739124,-13.715232,10.315657,4.63583E+18,0.705941,-0.105203,0.671745,0.198338,-9.770764,-1.20485,-0.9888,0.223123,-0.030487,0.075516,44.41285,-14.784531,5.603198,4.63583E+18,0.568801,-0.491755,0.537924,0.381156,-6.403709,-3.35509,-0.646565,5.018167,0.164852,-0.209685,45.022042,13.196678,3.024681,4.63583E+18,0.526197,0.528538,0.494116,-0.446782,0
-9.934067,0.284281,0.75017,1.183581,-0.056341,-0.185236,43.805262,-13.527811,10.498699,4.63583E+18,0.706801,-0.102258,0.672402,0.194554,-9.746351,-1.170548,-0.929881,0.21178,-0.053968,0.07767,44.361702,-14.895756,5.544279,4.63583E+18,0.569269,-0.490963,0.538288,0.380965,-6.771075,-2.115915,-1.146646,4.789273,0.144511,-0.365773,45.048926,13.401022,2.450026,4.63583E+18,0.514491,0.538482,0.486261,-0.45704,0
-9.889584,0.326841,0.697409,1.16022,-0.039697,-0.19106,43.758436,-13.290761,10.776721,4.63583E+18,0.707593,-0.099407,0.67307,0.190805,-9.718256,-1.144006,-0.734579,0.195997,-0.06709,0.086316,44.361702,-15.040876,5.437331,4.63583E+18,0.56972,-0.490167,0.538613,0.380856,-7.289604,-1.896893,-1.745413,4.47757,0.054559,-0.506653,44.838258,13.440351,1.843344,4.63583E+18,0.503204,0.547098,0.478939,-0.466998,0
-9.7813,0.272906,0.655268,1.140613,-0.018955,-0.19392,43.739124,-13.10999,10.906316,4.63583E+18,0.708305,-0.096634,0.673767,0.187092,-9.677953,-1.261236,-0.528216,0.196132,-0.071566,0.09337,44.387472,-15.074788,5.53499,4.63583E+18,0.57017,-0.489348,0.538942,0.380772,-7.899935,-1.86571,-2.087675,4.165038,-0.059963,-0.634309,44.603829,13.694615,1.138985,4.63583E+18,0.492442,0.554398,0.472116,-0.476707,0
-9.649789,0.171326,0.609201,1.122456,0.002648,-0.196883,43.80526,-12.94186,10.99176,4.63583E+18,0.708936,-0.093938,0.674497,0.183408,-9.640168,-1.355022,-0.351498,0.207661,-0.070922,0.102881,44.421388,-14.989339,5.544303,4.63583E+18,0.570626,-0.488481,0.539309,0.380683,-8.487673,-1.59201,-2.229414,3.831978,-0.157697,-0.752452,44.601311,14.20437,0.461262,4.63583E+18,0.482266,0.560429,0.465892,-0.486091,0
-9.55331,0.089811,0.550931,1.109259,0.018222,-0.198434,43.890702,-12.714299,11.152773,4.63583E+18,0.709504,-0.091292,0.675248,0.179747,-9.653721,-1.314542,-0.335792,0.211054,-0.067498,0.114307,44.313863,-14.981174,5.349001,4.63583E+18,0.571062,-0.487584,0.539712,0.380606,-8.907956,-0.902205,-2.49835,3.436528,-0.232031,-0.859976,44.621698,14.566542,-0.068167,4.63583E+18,0.472822,0.565168,0.460456,-0.49498,0
-9.458405,-0.002332,0.584361,1.104121,0.037069,-0.197022,43.8439,-12.592948,11.269766,4.63583E+18,0.710001,-0.08867,0.676037,0.176095,-9.723285,-1.25754,-0.418909,0.207016,-0.065597,0.126599,44.206687,-15.152077,5.245681,4.63583E+18,0.571466,-0.486673,0.540138,0.380563,-9.056984,-0.526209,-2.92087,2.98277,-0.292739,-0.96212,44.450604,14.838934,-0.492506,4.63583E+18,0.46426,0.568581,0.455986,-0.503245,0
-9.34186,-0.081093,0.635948,1.100917,0.060668,-0.187447,43.758452,-12.507501,11.216278,4.63583E+18,0.710408,-0.086047,0.676882,0.172471,-9.773282,-1.357532,-0.545826,0.221474,-0.077039,0.14262,44.237291,-15.219949,5.436492,4.63583E+18,0.571898,-0.485672,0.540591,0.380549,-8.985378,-0.310836,-3.487488,2.530938,-0.325546,-1.048251,44.188615,15.217528,-0.9161,4.63583E+18,0.456579,0.570801,0.452534,-0.510819,0
-9.248135,-0.154328,0.684772,1.110109,0.086886,-0.176525,43.861909,-12.167049,11.316972,4.63583E+18,0.710722,-0.083381,0.677802,0.168839,-9.797695,-1.32911,-0.633613,0.253296,-0.093265,0.155423,44.284781,-15.074809,5.700857,4.63583E+18,0.57241,-0.48454,0.541081,0.380525,-9.073331,-0.148967,-3.933689,2.070052,-0.316143,-1.139268,44.072544,15.613594,-1.392132,4.63583E+18,0.449729,0.571925,0.450244,-0.517616,0
-9.191014,-0.180349,0.695822,1.117142,0.084664,-0.165843,43.963941,-11.884209,11.419005,4.63583E+18,0.711023,-0.080657,0.678708,0.165215,-9.777968,-1.103192,-0.703342,0.275055,-0.105658,0.159476,44.232111,-15.066605,5.583146,4.63583E+18,0.572987,-0.483326,0.541583,0.380486,-10.300451,4.504515,-5.131378,1.802459,-0.129794,-1.038547,44.133577,15.930966,-1.783501,4.63583E+18,0.443346,0.573088,0.448601,-0.523232,0
-9.236636,-0.164221,0.894164,1.145623,0.07233,-0.160121,43.926605,-11.76286,11.589455,4.63583E+18,0.711348,-0.077823,0.679585,0.16153,-9.696356,-0.849351,-0.790976,0.260121,-0.121475,0.156038,44.15551,-15.25957,5.284474,4.63583E+18,0.573573,-0.48213,0.542016,0.380504,-12.220308,14.417579,-7.802518,1.420125,0.017058,-0.70591,44.121213,16.169324,-2.076495,4.63583E+18,0.438299,0.574452,0.447242,-0.527137,0
-9.29099,-0.007584,0.923844,1.128808,0.104965,-0.163286,43.787252,-11.743522,11.850879,4.63583E+18,0.711562,-0.075068,0.68053,0.157871,-9.771072,-0.659052,-0.756859,0.193347,-0.139837,0.14698,44.240953,-15.430158,5.254185,4.63583E+18,0.57408,-0.481083,0.54228,0.380688,-13.464665,16.747762,-8.786202,0.788455,0.049094,-0.45845,43.955792,16.281935,-2.273482,4.63583E+18,0.435235,0.575176,0.446723,-0.529321,0
-9.481487,0.244401,0.925,1.085194,0.112881,-0.171106,43.751335,-11.611299,12.13165,4.63583E+18,0.711729,-0.072467,0.681454,0.154307,-9.954035,-0.610518,-0.764213,0.132103,-0.16241,0.145899,44.29699,-15.382356,5.351844,4.63583E+18,0.574517,-0.48015,0.54239,0.381052,-13.717917,18.740027,-9.304479,0.43511,0.364999,-0.055825,43.756827,16.321299,-2.229072,4.63583E+18,0.433314,0.576701,0.446586,-0.529355,0
-9.6945,0.531799,1.097723,1.048118,0.124548,-0.175519,43.940177,-11.383773,12.185753,4.63583E+18,0.711842,-0.069994,0.682373,0.150829,-10.040661,-0.762,-0.744508,0.113855,-0.200309,0.138962,44.214928,-15.297198,5.361262,4.63583E+18,0.575012,-0.479215,0.542365,0.381516,-12.225413,20.890846,-10.364392,-0.212426,0.458503,0.282298,43.644213,16.389049,-1.994232,4.63583E+18,0.433518,0.577888,0.447231,-0.527345,0
-9.864248,0.871969,1.175821,0.991634,0.157919,-0.181201,43.986038,-11.139638,12.173547,4.63583E+18,0.711834,-0.067722,0.683341,0.147483,-10.090665,-0.915555,-0.677575,0.112385,-0.226688,0.13415,44.047987,-15.40469,5.195368,4.63583E+18,0.575572,-0.478251,0.542265,0.382023,-9.557017,7.861908,-7.063262,-1.098431,0.208712,-0.019218,43.678232,16.541175,-1.758639,4.63583E+18,0.435652,0.576356,0.450091,-0.524823,0
-10.022959,1.103261,1.193561,0.924476,0.169936,-0.179348,43.926618,-10.952124,12.23688,4.63583E+18,0.71176,-0.06565,0.684294,0.144328,-10.067315,-0.915555,-0.698192,0.141483,-0.255536,0.124641,44.082238,-15.51561,5.156502,4.63583E+18,0.576268,-0.477193,0.542122,0.382499,-7.987049,-4.486472,-2.040429,-1.435039,0.24253,-0.378906,43.763542,16.665995,-1.530385,4.63583E+18,0.437732,0.573595,0.454599,-0.522225,0
-10.030578,1.175818,1.385141,0.874299,0.156034,-0.175076,44.03276,-10.781247,12.397845,4.63583E+18,0.711699,-0.063704,0.685166,0.141331,-9.899976,-0.875145,-0.569846,0.201505,-0.292173,0.109035,44.112582,-15.467852,5.224769,4.63583E+18,0.57719,-0.475967,0.541954,0.382874,-7.921934,-3.471667,-0.578174,-1.283557,0.458769,-0.251328,43.740966,16.672429,-1.11418,4.63583E+18,0.439302,0.571802,0.45885,-0.519146,0
-9.918449,1.118045,1.487669,0.82201,0.178106,-0.172456,44.068726,-10.676442,12.580929,4.63583E+18,0.71155,-0.061918,0.686064,0.138484,-9.707265,-0.773929,-0.401655,0.240655,-0.327306,0.083827,43.996568,-15.382622,5.166007,4.63583E+18,0.578308,-0.474645,0.541713,0.383169,-8.410436,1.594548,-1.218204,-1.151957,0.538669,-0.103167,43.680853,16.660342,-0.630756,4.63583E+18,0.440712,0.570689,0.462596,-0.515841,0
-9.831358,0.93819,1.388233,0.763401,0.234591,-0.172798,43.87993,-10.468268,12.764052,4.63583E+18,0.711218,-0.060337,0.687089,0.135787,-9.68911,-0.731151,-0.500712,0.245258,-0.361713,0.059694,43.937033,-15.490109,4.970688,4.63583E+18,0.579549,-0.473311,0.541347,0.383461,-9.052673,2.29014,-1.479047,-1.222143,0.443727,-0.229781,43.64711,16.739224,-0.297486,4.63583E+18,0.442187,0.568983,0.466605,-0.512843,0
-9.805313,0.692922,1.326705,0.721759,0.238968,-0.16891,43.824577,-10.280769,12.947151,4.63583E+18,0.710852,-0.058868,0.688096,0.133218,-9.787956,-0.64203,-0.715473,0.262573,-0.408823,0.036074,44.107929,-15.601062,4.808427,4.63583E+18,0.580966,-0.471911,0.540846,0.383749,-9.269021,0.856625,-1.295548,-1.331277,0.338603,-0.363948,43.625467,16.779538,0.113021,4.63583E+18,0.443825,0.566571,0.470958,-0.510113,0
-9.76479,0.493205,1.261768,0.68792,0.203851,-0.154485,44.013351,-10.185379,12.988677,4.63583E+18,0.710565,-0.057439,0.688978,0.130797,-9.85018,-0.518681,-0.858279,0.27653,-0.449594,0.001045,44.227421,-15.575364,4.719311,4.63583E+18,0.582555,-0.470489,0.540198,0.384,-9.881459,-0.541871,-1.035781,-1.249502,0.238889,-0.326842,43.558788,16.806821,0.550448,4.63583E+18,0.445529,0.564154,0.474849,-0.507693,0
-9.649902,0.338424,1.433906,0.691971,0.193577,-0.144828,44.134789,-10.168767,12.988677,4.63583E+18,0.710296,-0.055964,0.689827,0.128397,-9.868447,-0.170367,-0.999903,0.244559,-0.466692,-0.036139,44.249448,-15.489912,4.621651,4.63583E+18,0.584177,-0.469198,0.539381,0.384263,-12.994134,-2.827193,2.175795,-0.838826,0.044359,-0.177399,43.479908,16.919547,0.662903,4.63583E+18,0.44696,0.562371,0.477148,-0.506255,0
-9.694923,0.314621,1.706333,0.691236,0.152878,-0.138178,44.097561,-10.159331,13.139654,4.63583E+18,0.710134,-0.054452,0.690552,0.126028,-9.895423,0.235357,-1.077837,0.155741,-0.497361,-0.085594,44.352056,-15.404463,4.523996,4.63583E+18,0.585771,-0.468184,0.538248,0.384664,-14.18524,-2.312228,5.843472,-0.3407,0.154375,-0.101887,43.4283,17.078242,0.565244,4.63583E+18,0.447161,0.561894,0.478422,-0.505405,0
-9.707656,0.50613,1.817258,0.661949,0.190539,-0.143329,44.014874,-10.033881,13.391606,4.63583E+18,0.709854,-0.053059,0.691365,0.123719,-10.027221,-0.147986,-0.986328,0.020976,-0.532265,-0.123269,44.445882,-15.29333,4.36763,4.63583E+18,0.587237,-0.467524,0.536738,0.38534,-11.521653,0.013886,3.728417,0.008881,0.497885,-0.114963,43.495064,17.129764,0.552197,4.63583E+18,0.44583,0.562764,0.479627,-0.50447,0
-9.714323,0.806907,1.623492,0.632237,0.263713,-0.155177,43.99548,-9.743059,13.594116,4.63583E+18,0.709357,-0.051823,0.692372,0.121441,-10.106532,-0.551954,-0.930159,-0.049659,-0.554932,-0.130851,44.334743,-15.148114,4.10034,4.63583E+18,0.588625,-0.467015,0.535041,0.386199,-10.458112,-1.23216,0.06716,0.240562,0.630295,-0.100048,43.659391,17.056524,0.727884,4.63583E+18,0.443719,0.564369,0.480554,-0.503656,0
-9.830326,1.07709,1.345518,0.610247,0.284226,-0.167994,44.061533,-9.536159,13.701722,4.63583E+18,0.708798,-0.050697,0.693419,0.119183,-10.095452,-0.863267,-0.74684,-0.030106,-0.594971,-0.136192,44.167514,-15.114035,3.90016,4.63583E+18,0.590145,-0.466403,0.533263,0.387076,-10.545266,-1.816363,-1.844626,0.332707,0.597136,-0.044592,43.683653,17.05096,1.014294,4.63583E+18,0.44157,0.56618,0.481091,-0.502998,0
-9.976797,1.154158,1.215735,0.594082,0.280242,-0.191542,44.146976,-9.431318,13.938116,4.63583E+18,0.708253,-0.049684,0.694437,0.116903,-9.988062,-1.088864,-0.380775,0.000231,-0.611196,-0.142495,44.133551,-15.19948,3.68405,4.63583E+18,0.591767,-0.4657,0.531479,0.387899,-10.531274,-0.053526,-1.80722,0.306349,0.541295,-0.016185,43.497697,17.158037,1.262141,4.63583E+18,0.439652,0.567879,0.48151,-0.502363,0
-10.057248,1.093656,1.120842,0.563441,0.306031,-0.227329,44.034288,-9.279812,14.067939,4.63583E+18,0.707639,-0.048877,0.695503,0.114599,-9.922154,-1.066975,-0.207466,0.042005,-0.616111,-0.150077,44.36056,-15.233577,3.449764,4.63583E+18,0.593488,-0.464901,0.529732,0.388617,-10.49924,1.343916,-1.011125,0.179312,0.526348,-0.036088,43.406736,17.236853,1.406699,4.63583E+18,0.43802,0.56927,0.482211,-0.501541,0
-10.174888,0.961036,0.985451,0.503429,0.258725,-0.255873,43.806791,-8.98627,14.153386,4.63583E+18,0.707159,-0.048305,0.696391,0.112393,-9.873325,-1.153627,-0.122074,0.098725,-0.621878,-0.156381,44.497244,-15.173802,3.355776,4.63583E+18,0.595338,-0.463962,0.528046,0.389203,-10.175191,1.338895,-0.735287,0.062751,0.525777,-0.087112,43.451786,17.236853,1.582353,4.63583E+18,0.436556,0.570341,0.483273,-0.500577,0
-10.120481,0.805117,1.065389,0.470808,0.230913,-0.279032,43.751335,-8.788759,14.238835,4.63583E+18,0.70676,-0.047882,0.697173,0.110218,-9.809833,-1.148658,-0.118407,0.160352,-0.63,-0.16685,44.531354,-15.148135,3.207997,4.63583E+18,0.597338,-0.462876,0.526416,0.38964,-9.765847,1.049837,-1.046218,-0.029442,0.510565,-0.131226,43.458355,17.270676,1.823645,4.63583E+18,0.435248,0.571121,0.484601,-0.499541,0
-9.878561,0.693601,1.155265,0.464062,0.23742,-0.289905,43.751335,-8.686676,14.484642,4.63583E+18,0.706341,-0.047514,0.697964,0.108029,-9.726841,-0.989961,-0.087866,0.215461,-0.649015,-0.185975,44.497237,-15.062683,2.885685,4.63583E+18,0.599511,-0.461661,0.524787,0.389942,-9.572471,1.061111,-1.49595,-0.152778,0.462001,-0.167709,43.424533,17.383381,1.92877,4.63583E+18,0.434254,0.5715,0.486183,-0.498435,0
-9.663845,0.652544,1.209637,0.45945,0.21475,-0.290779,43.760767,-8.601235,14.617247,4.63583E+18,0.705984,-0.047151,0.698683,0.105856,-9.667014,-0.816606,-0.032956,0.248455,-0.664814,-0.215456,44.557022,-14.999232,2.524393,4.63583E+18,0.601825,-0.460397,0.52311,0.390125,-9.563099,0.995341,-1.727844,-0.284232,0.408352,-0.200487,43.345657,17.468794,1.973861,4.63583E+18,0.433611,0.571461,0.488016,-0.497247,0
-9.506258,0.665855,1.164152,0.477216,0.203094,-0.292187,43.886149,-8.515786,14.636677,4.63583E+18,0.705661,-0.046735,0.699371,0.10363,-9.607226,-0.561448,-0.075729,0.250368,-0.662358,-0.249957,44.58268,-14.943042,2.260762,4.63583E+18,0.604187,-0.459204,0.521372,0.390208,-9.532097,0.649774,-1.846141,-0.379443,0.354704,-0.213054,43.305295,17.429349,2.201113,4.63583E+18,0.433275,0.57111,0.489977,-0.496014,0
-9.482376,0.605388,0.968301,0.50756,0.169696,-0.291847,44.044844,-8.430334,14.702696,4.63583E+18,0.705437,-0.046215,0.699969,0.101323,-9.640214,-0.283193,-0.231971,0.21404,-0.660757,-0.293004,44.63881,-14.729367,2.094766,4.63583E+18,0.60654,-0.458193,0.51949,0.390255,-9.427877,-0.045965,-1.790744,-0.392177,0.304424,-0.196377,43.390735,17.383343,2.489361,4.63583E+18,0.433105,0.570663,0.49183,-0.494841,0
-9.447427,0.501073,0.906124,0.523925,0.129688,-0.282527,44.014912,-8.354313,14.722128,4.63583E+18,0.705324,-0.045603,0.700455,0.099005,-9.746412,-0.294243,-0.324722,0.1491,-0.664817,-0.334231,44.652257,-14.43888,1.993445,4.63583E+18,0.608838,-0.457424,0.517409,0.390342,-9.302052,-0.845081,-1.475245,-0.290054,0.281005,-0.152091,43.443336,17.422776,2.633037,4.63583E+18,0.432829,0.57044,0.493324,-0.493851,0
-9.436323,0.400638,1.035386,0.527422,0.093468,-0.260874,43.99548,-8.139598,14.637246,4.63583E+18,0.705304,-0.044901,0.700835,0.096746,-9.833072,-0.527398,-0.297841,0.098053,-0.674003,-0.367233,44.754805,-14.293638,1.832294,4.63583E+18,0.611107,-0.456836,0.515154,0.390469,-9.250391,-1.261115,-1.109951,-0.103129,0.283798,-0.099259,43.295916,17.496961,2.820833,4.63583E+18,0.432211,0.570668,0.494311,-0.493142,0
-9.436323,0.340704,1.074252,0.537568,0.059044,-0.239608,44.118089,-7.836086,14.593399,4.63583E+18,0.705375,-0.044092,0.701119,0.094525,-9.85747,-0.787402,-0.144025,0.076264,-0.67699,-0.391158,44.922046,-14.233832,1.518549,4.63583E+18,0.613373,-0.456345,0.512804,0.390583,-9.329258,-1.220768,-0.884593,0.10916,0.302198,-0.048322,43.177586,17.569255,3.018031,4.63583E+18,0.431154,0.57142,0.494772,-0.492734,0
-9.474039,0.348458,1.027106,0.552033,0.016619,-0.220967,44.154179,-7.697905,14.814145,4.63583E+18,0.705561,-0.043167,0.701282,0.092323,-9.789109,-0.904565,0.001229,0.068255,-0.663639,-0.40547,45.033112,-14.182545,1.215848,4.63583E+18,0.616074,-0.455317,0.510983,0.389918,-9.375286,-1.005754,-0.788793,0.316053,0.330628,-0.006662,43.245168,17.688498,2.973947,4.63583E+18,0.42963,0.572685,0.494759,-0.492608,0
-9.522871,0.429451,1.041503,0.570288,-0.038146,-0.202808,44.031593,-7.61245,14.946831,4.63583E+18,0.705899,-0.042115,0.701292,0.090132,-9.718315,-0.926538,0.057375,0.075945,-0.652425,-0.419888,44.959873,-14.040957,1.1182,4.63583E+18,0.61832,-0.454921,0.50863,0.389901,-9.482295,-0.381426,-0.791595,0.455922,0.345505,0.02062,43.250858,17.773979,2.958853,4.63583E+18,0.427796,0.574285,0.494418,-0.492684,0
-9.581126,0.536533,1.17241,0.588689,-0.089222,-0.190425,43.863478,-7.461002,14.815417,4.63583E+18,0.70638,-0.040952,0.701155,0.087933,-9.707322,-1.118169,0.103743,0.100508,-0.64484,-0.436444,44.810928,-13.960397,0.932688,4.63583E+18,0.620617,-0.454505,0.506299,0.389771,-9.708589,0.520042,-0.846052,0.467042,0.342631,0.023093,43.13159,17.734561,3.109108,4.63583E+18,0.425944,0.575901,0.49404,-0.492782,0
-9.689303,0.693538,1.415958,0.606847,-0.12928,-0.183044,43.956574,-7.365531,14.770958,4.63583E+18,0.706974,-0.0397,0.700904,0.085709,-9.715884,-1.36842,0.275866,0.140989,-0.644524,-0.449261,44.887829,-13.818816,0.600632,4.63583E+18,0.623004,-0.454006,0.504005,0.389517,-9.821329,0.860188,-0.980296,0.389815,0.342052,0.002553,43.16534,17.688528,3.201136,4.63583E+18,0.424233,0.577333,0.493866,-0.492756,0
-9.735956,0.873921,1.675163,0.622534,-0.149345,-0.18241,44.118095,-7.282834,14.912435,4.63583E+18,0.707623,-0.038392,0.700594,0.083445,-9.571889,-1.634479,0.224733,0.187234,-0.61046,-0.463038,44.995231,-13.571029,0.434606,4.63583E+18,0.625422,-0.453466,0.501844,0.389062,-9.842906,0.668662,-1.211278,0.301159,0.348051,-0.019057,43.329659,17.761725,3.331628,4.63583E+18,0.422678,0.578574,0.493935,-0.49257,0
-9.684911,1.047614,1.959838,0.644093,-0.145317,-0.187605,44.088148,-7.131346,14.869174,4.63583E+18,0.708261,-0.037036,0.700298,0.081102,-9.364308,-2.015367,-0.222108,0.260281,-0.567081,-0.480021,45.128311,-13.340289,0.25278,4.63583E+18,0.627908,-0.452836,0.499876,0.388323,-9.887049,0.531496,-1.387853,0.226882,0.34986,-0.037707,43.421734,17.813445,3.475319,4.63583E+18,0.421258,0.579647,0.494201,-0.492257,0
-9.59281,1.26566,2.120746,0.676668,-0.128277,-0.199791,44.002703,-6.96989,14.768749,4.63583E+18,0.708852,-0.035625,0.700055,0.078625,-9.415502,-2.275434,-0.390669,0.379907,-0.568249,-0.497326,45.157645,-13.195005,-0.100023,4.63583E+18,0.630643,-0.451922,0.49806,0.387287,-9.838284,0.541806,-1.372924,0.166079,0.352732,-0.052992,43.387958,17.7008,3.572972,4.63583E+18,0.419946,0.580585,0.494633,-0.491837,0
-9.580035,1.469301,2.073052,0.69376,-0.12473,-0.215327,44.049293,-6.811198,14.737112,4.63583E+18,0.709435,-0.034208,0.69982,0.076052,-9.653547,-2.27432,-0.253973,0.502525,-0.577767,-0.509183,45.077091,-13.036401,-0.338107,4.63583E+18,0.633639,-0.450689,0.496388,0.385978,-9.704011,0.561541,-1.24333,0.111607,0.358731,-0.064658,43.314719,17.615282,3.670625,4.63583E+18,0.418729,0.581416,0.495214,-0.49131,0
-9.601674,1.551443,1.994256,0.697258,-0.128274,-0.231349,44.125315,-6.577051,14.724904,4.63583E+18,0.710027,-0.032825,0.699567,0.073421,-9.845207,-2.163092,-0.192809,0.610199,-0.555448,-0.523597,45.030645,-12.703143,-0.473579,4.63583E+18,0.636804,-0.44923,0.494913,0.384361,-9.592243,0.499629,-1.155976,0.073383,0.367929,-0.0824,43.269618,17.722221,3.723258,4.63583E+18,0.417548,0.58216,0.49593,-0.490711,0
-9.626089,1.524822,1.958737,0.682646,-0.131722,-0.247371,44.207989,-6.396146,14.788147,4.63583E+18,0.710625,-0.03153,0.699291,0.070785,-10.247764,-2.074305,-0.117463,0.708997,-0.553808,-0.541551,45.15509,-12.438156,-0.698151,4.63583E+18,0.640168,-0.44754,0.493559,0.382482,-9.540561,0.359719,-1.235648,0.068438,0.37845,-0.10393,43.263039,17.954162,3.723258,4.63583E+18,0.416312,0.582871,0.496726,-0.490112,0
-9.716513,1.400556,1.962615,0.662596,-0.144002,-0.25349,44.227421,-6.294046,14.883021,4.63583E+18,0.711252,-0.030308,0.698965,0.068192,-10.921908,-1.459,0.608762,0.780176,-0.598277,-0.552748,45.351681,-12.378307,-0.899692,4.63583E+18,0.64376,-0.445604,0.492168,0.380501,-9.533982,0.263887,-1.536059,0.083141,0.375912,-0.116261,43.229272,18.006005,3.768279,4.63583E+18,0.415019,0.583575,0.497515,-0.489569,0
-9.798094,1.169178,2.021978,0.66293,-0.157307,-0.248443,44.161406,-6.085985,14.744913,4.63583E+18,0.71191,-0.029066,0.698595,0.065613,-10.914804,-1.262044,0.968399,0.772923,-0.573518,-0.587251,45.433471,-12.254036,-0.865555,4.63583E+18,0.647328,-0.443786,0.490757,0.378388,-9.562117,0.148491,-1.778466,0.111638,0.361209,-0.121026,43.116644,17.88108,3.865932,4.63583E+18,0.413677,0.584286,0.498231,-0.489129,0
-9.852473,0.95056,2.038636,0.685017,-0.167648,-0.242616,44.132542,-5.841853,14.54683,4.63583E+18,0.712593,-0.027736,0.698194,0.062989,-10.761961,-1.589232,0.439682,0.771606,-0.537067,-0.615343,45.481128,-11.838984,-0.838584,4.63583E+18,0.650849,-0.442077,0.48938,0.376126,-9.572512,-0.008393,-1.825484,0.171429,0.351421,-0.123905,42.963575,17.868777,4.008606,4.63583E+18,0.412202,0.585073,0.498814,-0.488839,0
-9.901301,0.837339,1.897188,0.720796,-0.192114,-0.229025,44.139194,-5.597712,14.634413,4.63583E+18,0.71334,-0.026253,0.697725,0.060302,-10.871899,-1.96993,0.128285,0.812835,-0.527678,-0.644823,45.472576,-11.548203,-0.974036,4.63583E+18,0.654458,-0.44032,0.488027,0.373674,-9.512436,-0.032909,-1.790776,0.264005,0.347483,-0.123905,42.918361,18.054524,4.153273,4.63583E+18,0.410508,0.586009,0.499199,-0.48875,0
-9.978413,0.827325,1.638664,0.750995,-0.225901,-0.205579,44.198542,-5.410159,14.7393,4.63583E+18,0.714176,-0.024601,0.697158,0.0576,-10.932864,-2.391409,-0.069446,0.876669,-0.501198,-0.672601,45.498162,-11.522618,-1.169354,4.63583E+18,0.658156,-0.438477,0.486783,0.370959,-9.501068,0.129366,-1.77474,0.356372,0.338446,-0.129319,42.9916,18.265025,4.238719,4.63583E+18,0.408595,0.587071,0.499392,-0.488882,0
-10.054434,0.896102,1.395615,0.761442,-0.253724,-0.167569,44.215214,-5.248688,14.758751,4.63583E+18,0.715076,-0.0228,0.696508,0.054984,-11.05742,-2.501122,-0.264832,0.985732,-0.469141,-0.694494,45.623812,-11.283676,-1.335429,4.63583E+18,0.662005,-0.436415,0.485743,0.367893,-9.505855,0.292021,-1.822615,0.424507,0.322433,-0.144023,43.036723,18.271727,4.290424,4.63583E+18,0.406516,0.588183,0.499452,-0.489218,0
-10.137107,1.028696,1.267387,0.755233,-0.311534,-0.123437,44.337785,-5.089992,14.447614,4.63583E+18,0.716126,-0.020876,0.695679,0.052522,-11.185453,-2.741674,-0.349114,1.069395,-0.461003,-0.708299,45.803335,-10.817098,-1.403851,4.63583E+18,0.665989,-0.43415,0.484812,0.364594,-9.534817,0.271437,-1.855525,0.459953,0.305826,-0.163164,42.93081,18.225653,4.252008,4.63583E+18,0.404344,0.589277,0.499455,-0.489697,0
-10.184845,1.212898,1.339439,0.743144,-0.368102,-0.084349,44.307913,-5.053865,14.21448,4.63583E+18,0.717321,-0.018862,0.694675,0.050218,-11.419881,-2.840672,-0.402748,1.14132,-0.471903,-0.691857,45.863213,-10.727808,-1.374631,4.63583E+18,0.670078,-0.43162,0.483975,0.361202,-9.669089,0.282556,-1.866773,0.456363,0.296789,-0.178537,42.726046,18.259396,4.204971,4.63583E+18,0.402166,0.590311,0.499485,-0.490214,0
-10.089494,1.427033,1.452064,0.740226,-0.379436,-0.049445,44.222476,-5.119848,14.172795,4.63583E+18,0.718532,-0.016755,0.693631,0.048031,-11.55551,-2.751749,-0.590584,1.246068,-0.477992,-0.671343,45.85956,-10.65493,-1.309845,4.63583E+18,0.674312,-0.428731,0.483297,0.357654,-9.758377,0.392417,-1.874317,0.414419,0.287176,-0.186674,42.713563,18.33826,4.205931,4.63583E+18,0.400092,0.591235,0.499602,-0.490678,0
-10.068327,1.590215,1.561935,0.759197,-0.403937,-0.024336,44.391539,-5.007344,14.02197,4.63583E+18,0.719802,-0.014512,0.692511,0.045865,-11.612792,-2.512425,-0.899494,1.263444,-0.475663,-0.648611,45.920396,-10.239913,-1.347616,4.63583E+18,0.678511,-0.425735,0.482674,0.354117,-9.80062,0.429184,-1.81713,0.385504,0.265264,-0.199478,42.832892,18.457441,4.238704,4.63583E+18,0.398107,0.592037,0.49977,-0.491155,0
-10.042827,1.736708,1.662378,0.773867,-0.430209,-0.014278,44.692257,-4.779875,13.741804,4.63583E+18,0.721137,-0.012189,0.691306,0.043688,-11.597336,-2.556996,-1.120478,1.265338,-0.445462,-0.624219,46.130424,-9.897904,-1.445276,4.63583E+18,0.682591,-0.422711,0.482163,0.350577,-9.860694,0.177946,-1.785978,0.45515,0.227963,-0.22174,42.799309,18.57678,4.329778,4.63583E+18,0.39598,0.592828,0.499786,-0.491903,0
-9.996782,1.883183,1.807157,0.759224,-0.38137,0.000378,44.698568,-4.60173,13.738273,4.63583E+18,0.722319,-0.009875,0.690237,0.041593,-11.132532,-3.124568,-1.385171,1.437359,-0.386944,-0.64203,46.241642,-9.77813,-1.513718,4.63583E+18,0.686943,-0.419176,0.482128,0.346343,-9.905826,-0.287861,-1.936975,0.550211,0.202301,-0.241388,42.640612,18.650025,4.43306,4.63583E+18,0.393629,0.593679,0.499609,-0.492942,0
-9.985656,2.076795,1.683085,0.714525,-0.314173,0.004273,44.679096,-4.631547,13.833147,4.63583E+18,0.723297,-0.007696,0.689356,0.039637,-10.451371,-3.592511,-1.801442,1.743772,-0.307189,-0.683464,46.241642,-9.727021,-1.517369,4.63583E+18,0.691545,-0.415144,0.482487,0.341509,-9.901168,-0.423726,-2.153964,0.539499,0.188177,-0.239532,42.555008,18.689535,4.492324,4.63583E+18,0.391335,0.594483,0.499424,-0.493987,0
-10.023358,2.142939,1.400155,0.675625,-0.31805,0.000974,44.745075,-4.585042,13.779999,4.63583E+18,0.724278,-0.005643,0.688449,0.037783,-9.822633,-3.719492,-2.144621,2.01714,-0.201243,-0.730033,46.237991,-9.534213,-1.525925,4.63583E+18,0.696416,-0.410549,0.483417,0.335801,-9.831787,-0.226491,-2.263025,0.452746,0.16756,-0.212353,42.549387,18.796334,4.402388,4.63583E+18,0.389353,0.595155,0.499313,-0.494855,0
-10.006213,2.205049,1.387153,0.658521,-0.335194,-0.004123,44.632607,-4.311112,13.81429,4.63583E+18,0.725301,-0.00365,0.687482,0.035962,-9.317003,-3.727148,-2.292598,2.148014,-0.098872,-0.767878,46.225785,-9.260872,-1.471172,4.63583E+18,0.701362,-0.405669,0.484798,0.329386,-9.659085,-0.22425,-2.204062,0.405236,0.142581,-0.18251,42.469702,18.988951,4.297006,4.63583E+18,0.3876,0.595759,0.499183,-0.495635,0
-9.865943,2.29713,1.36616,0.641826,-0.318815,-0.010288,44.593643,-4.104049,13.830988,4.63583E+18,0.726272,-0.001726,0.686555,0.034168,-9.178447,-3.44049,-1.90075,2.155469,-0.044455,-0.774099,46.213579,-8.875304,-1.288077,4.63583E+18,0.706154,-0.400817,0.486295,0.322815,-9.494609,-0.689582,-2.044384,0.50835,0.11735,-0.172788,42.423478,19.107337,4.336379,4.63583E+18,0.385662,0.596494,0.498772,-0.496675,0
-9.836382,2.159223,1.373867,0.632737,-0.284935,-0.000207,44.782094,-4.262939,13.538889,4.63583E+18,0.727138,0.000192,0.685724,0.032433,-9.262175,-3.393976,-0.850417,2.111015,0.007016,-0.76682,46.274347,-8.405269,-1.101323,4.63583E+18,0.710694,-0.396114,0.487851,0.316241,-9.482274,-0.953404,-1.97664,0.636353,0.094345,-0.158529,42.503299,19.119672,4.337466,4.63583E+18,0.383481,0.597413,0.498021,-0.498011,0
-9.810899,2.158994,1.332324,0.613961,-0.265932,0.011449,44.894328,-4.387379,13.16046,4.63583E+18,0.727943,0.002082,0.684943,0.030791,-8.705074,-3.981995,-0.656739,2.100786,0.137621,-0.757258,46.458846,-8.03277,-0.909676,4.63583E+18,0.714877,-0.391559,0.489754,0.309473,-9.639863,-0.561006,-2.02917,0.550367,0.080279,-0.112697,42.464076,19.113911,4.155464,4.63583E+18,0.381635,0.598257,0.497308,-0.499127,0
-9.717742,2.14465,1.224174,0.579988,-0.267711,0.025429,44.788545,-4.340915,13.074129,4.63583E+18,0.728745,0.00391,0.684148,0.029288,-7.899937,-3.699012,-1.32712,2.16125,0.253178,-0.710402,46.481038,-7.784996,-0.66824,4.63583E+18,0.718797,-0.386842,0.492113,0.302505,-9.77813,-0.733455,-2.19333,0.394563,0.082894,-0.058717,42.338163,19.153416,4.049008,4.63583E+18,0.380283,0.598967,0.496787,-0.499826,0
-9.570185,2.07976,1.224593,0.528587,-0.206513,0.050276,44.742917,-4.198928,13.064706,4.63583E+18,0.729366,0.005646,0.683527,0.028008,-7.38406,-2.38173,-1.083451,2.238949,0.336396,-0.631637,46.408902,-7.557811,-0.344504,4.63583E+18,0.722505,-0.381799,0.494899,0.295451,-9.817487,-1.057689,-2.410329,0.30713,0.082753,0.002562,42.371744,19.18715,4.146667,4.63583E+18,0.379276,0.599664,0.496293,-0.500246,0
-9.458611,2.006523,1.166998,0.475521,-0.12699,0.074748,44.872033,-4.096775,13.127871,4.63583E+18,0.729755,0.007283,0.683138,0.026954,-6.68304,-0.702254,-0.422587,2.229684,0.467256,-0.518422,46.447731,-7.369963,-0.152845,4.63583E+18,0.725719,-0.376675,0.498201,0.28852,-9.829847,-0.658694,-2.474405,0.229803,0.072395,0.054365,42.564175,19.232282,4.193724,4.63583E+18,0.378592,0.600323,0.495814,-0.500449,0
-9.50227,1.83907,1.034443,0.451211,-0.082572,0.101544,44.967562,-4.020746,13.072005,4.63583E+18,0.730013,0.008919,0.682878,0.026051,-6.246916,-0.162324,0.399923,2.133814,0.620031,-0.427212,46.508024,-7.168298,0.143198,4.63583E+18,0.728288,-0.3718,0.501947,0.281798,-9.706011,-0.420673,-2.418993,0.162668,0.060983,0.081812,42.616206,19.199515,4.102813,4.63583E+18,0.378156,0.600909,0.495387,-0.500498,0
-9.540617,1.747383,0.982165,0.432716,-0.068176,0.130965,44.98428,-4.004028,12.898977,4.63583E+18,0.730225,0.01058,0.682657,0.025291,-6.012408,-0.161486,0.196137,1.78586,0.837376,-0.352287,46.358975,-7.04402,0.653759,4.63583E+18,0.729718,-0.36805,0.50602,0.275671,-9.567879,-0.404775,-2.325199,0.105638,0.04447,0.104902,42.457521,19.187142,4.048996,4.63583E+18,0.377945,0.601418,0.494995,-0.500434,0
-9.527354,1.573351,1.042516,0.417615,-0.052216,0.162512,44.861851,-4.126458,12.939155,4.63583E+18,0.730386,0.012283,0.682479,0.024673,-5.98601,1.780696,-0.696358,1.227859,0.99102,-0.205368,46.315985,-6.847258,1.040738,4.63583E+18,0.729756,-0.365843,0.510117,0.270917,-9.516153,-0.37843,-2.128121,0.065187,0.030331,0.123314,42.444971,19.232281,4.141035,4.63583E+18,0.377902,0.601871,0.494619,-0.500293,0
-9.512358,1.422342,1.052627,0.428449,-0.026644,0.202794,44.759667,-4.228641,13.039595,4.63583E+18,0.730466,0.014129,0.682375,0.02415,-6.236706,2.939286,-0.27916,0.647806,1.081421,-0.101254,46.397786,-6.787316,1.481072,4.63583E+18,0.728575,-0.365266,0.513973,0.267564,-9.537669,-0.344708,-1.967325,0.037908,0.0226,0.133841,42.609278,19.165803,4.18714,4.63583E+18,0.377966,0.602287,0.494261,-0.500098,0
-9.4154,1.335144,1.04042,0.444959,0.018431,0.239752,44.871967,-4.116343,13.061921,4.63583E+18,0.730411,0.016128,0.682406,0.023693,-6.229608,2.232912,0.072156,0.168771,1.210299,-0.03291,46.423666,-6.81282,2.063384,4.63583E+18,0.726292,-0.366132,0.517778,0.265242,-9.593082,-0.37262,-1.985933,0.024974,0.016361,0.141148,42.735214,19.046455,4.102846,4.63583E+18,0.378091,0.602684,0.493901,-0.49988,0
-9.283922,1.403139,0.877565,0.444503,0.076868,0.267583,45.033439,-3.888962,13.043091,4.63583E+18,0.730184,0.018203,0.68261,0.023322,-6.116102,1.489883,-0.108008,-0.159559,1.354846,0.048345,46.389217,-6.872768,2.553325,4.63583E+18,0.723086,-0.367965,0.521766,0.263646,-9.625053,-0.434815,-2.061115,0.039488,0.010274,0.15322,42.769123,19.040645,3.959072,4.63583E+18,0.378217,0.603117,0.493471,-0.499689,0
-9.403873,1.400017,0.378119,0.414444,0.102328,0.29322,45.003817,-4.021452,13.122254,4.63583E+18,0.72988,0.020256,0.682884,0.023118,-6.070518,1.243873,-0.394279,-0.443981,1.474633,0.148707,46.471021,-6.872768,2.933682,4.63583E+18,0.719046,-0.370554,0.525937,0.262777,-9.609166,-0.280199,-2.059372,0.059884,0.006087,0.161782,42.728821,19.119503,3.906369,4.63583E+18,0.378317,0.60359,0.49297,-0.499536,0
-9.61803,1.391644,-0.217269,0.367994,0.049717,0.315561,44.927781,-4.265606,13.15679,4.63583E+18,0.729724,0.022234,0.682989,0.023113,-6.230292,1.236793,-0.384635,-0.720254,1.568742,0.266617,46.547907,-6.949247,3.548773,4.63583E+18,0.714211,-0.373799,0.530245,0.26271,-9.560339,-0.122074,-2.003957,0.072124,0.001238,0.161375,42.616255,19.126297,3.951314,4.63583E+18,0.378396,0.604071,0.492437,-0.49942,0
-9.753003,1.372813,-0.335184,0.369119,-0.054217,0.312206,44.911037,-4.38733,13.018348,4.63583E+18,0.729862,0.024216,0.682775,0.023085,-6.435452,1.090516,-0.294469,-0.949086,1.657413,0.393704,46.535036,-7.205593,4.115837,4.63583E+18,0.708636,-0.377533,0.534724,0.26339,-9.483419,-0.183873,-1.915801,0.092807,-0.000577,0.164646,42.502503,18.934102,4.054591,4.63583E+18,0.378434,0.604587,0.491849,-0.499347,0
-9.674562,1.433136,-0.009483,0.374431,-0.132836,0.297405,44.911037,-4.350381,12.901148,4.63583E+18,0.730221,0.02618,0.682323,0.022989,-6.653666,0.778507,-0.004732,-1.069197,1.728393,0.539746,46.338234,-7.436444,4.434273,4.63583E+18,0.702509,-0.381334,0.539482,0.264622,-9.390411,-0.301295,-1.770292,0.12812,0.001966,0.170327,42.508877,18.689753,4.153217,4.63583E+18,0.378389,0.605176,0.491176,-0.49933,0
-9.46496,1.509172,0.273756,0.365034,-0.148473,0.279736,44.967527,-4.39012,12.954133,4.63583E+18,0.730623,0.028067,0.68182,0.022864,-6.965064,0.310767,0.58251,-1.049299,1.767109,0.71406,46.256424,-7.607348,4.903712,4.63583E+18,0.69608,-0.384698,0.544609,0.266237,-9.362104,-0.314698,-1.667772,0.170758,0.009187,0.173852,42.588708,18.609699,4.199347,4.63583E+18,0.378228,0.605853,0.490418,-0.499375,0
-9.23304,1.572996,0.3296,0.369516,-0.149296,0.25087,45.050179,-4.595154,13.061196,4.63583E+18,0.731027,0.029884,0.681317,0.02264,-7.29548,0.214959,1.194963,-0.946617,1.770093,0.893908,46.13223,-7.829193,5.616394,4.63583E+18,0.689551,-0.387327,0.550102,0.268114,-9.414602,-0.18993,-1.687316,0.204723,0.01692,0.182227,42.734968,18.616289,4.154414,4.63583E+18,0.377984,0.606617,0.489578,-0.499457,0
-9.076428,1.624613,0.291949,0.40466,-0.164366,0.216359,44.947369,-4.782797,13.020448,4.63583E+18,0.73147,0.031709,0.680774,0.022213,-7.702385,0.987661,1.639916,-0.864612,1.737714,1.06669,45.866288,-8.269178,6.368461,4.63583E+18,0.682978,-0.389257,0.555826,0.270329,-9.483201,-0.136971,-1.767147,0.217817,0.019227,0.192908,42.893888,18.655601,4.05676,4.63583E+18,0.377723,0.607427,0.488688,-0.499543,0
-8.979792,1.701686,0.299597,0.436681,-0.181946,0.175342,44.722769,-4.75603,13.000884,4.63583E+18,0.731959,0.033518,0.680182,0.021567,-7.986582,2.13549,1.713626,-0.904373,1.687559,1.215134,45.596175,-8.940642,7.052133,4.63583E+18,0.67623,-0.390866,0.561555,0.273118,-9.543258,-0.284184,-1.846002,0.234693,0.017261,0.201132,42.933437,18.735433,4.004028,4.63583E+18,0.37744,0.608275,0.487737,-0.499653,0
-8.894346,1.81537,0.333423,0.448223,-0.173504,0.132619,44.789252,-4.670584,13.066773,4.63583E+18,0.732423,0.035241,0.679621,0.020758,-8.26312,2.742684,1.888535,-1.06815,1.629345,1.345444,45.441121,-9.539255,7.706615,4.63583E+18,0.66914,-0.392529,0.567094,0.276726,-9.610887,-0.313002,-1.937069,0.260521,0.008567,0.211386,42.933437,18.701989,3.959107,4.63583E+18,0.37713,0.609165,0.486692,-0.499822,0
-8.903019,1.97509,0.275921,0.441454,-0.182189,0.088247,45.01383,-4.716907,12.860442,4.63583E+18,0.732913,0.036819,0.679036,0.019834,-8.274277,1.118491,-0.53166,-1.589397,1.626661,1.34208,45.316471,-9.988303,8.208859,4.63583E+18,0.661135,-0.395608,0.571957,0.281531,-9.57086,-0.185068,-1.944891,0.278507,0.008437,0.225442,42.972739,18.509615,3.861453,4.63583E+18,0.376803,0.610111,0.485573,-0.500004,0
-8.920815,2.0801,0.3787,0.44889,-0.176799,0.040095,45.126201,-4.868229,12.576902,4.63583E+18,0.733387,0.03828,0.678473,0.018744,-9.804106,-5.072833,-1.251211,-1.557241,1.279378,1.34308,45.221402,-10.590655,8.543144,4.63583E+18,0.653927,-0.398165,0.575826,0.286825,-9.462698,-0.068877,-1.998807,0.285047,0.006775,0.22835,42.945911,18.38435,3.769414,4.63583E+18,0.376469,0.611067,0.484428,-0.500198,0
-8.914201,2.203192,0.471517,0.463355,-0.155169,-0.005745,45.086513,-4.775625,12.729037,4.63583E+18,0.733799,0.039655,0.677983,0.017477,-13.85652,-15.001107,5.602442,0.448258,0.756214,1.4452,45.049458,-11.309277,8.971434,4.63583E+18,0.651091,-0.394435,0.580739,0.28852,-9.486846,-0.092492,-2.124088,0.286731,-0.011235,0.214978,42.787214,18.38435,3.768167,4.63583E+18,0.376138,0.61196,0.483284,-0.500461,0
-8.996102,1.989274,0.572994,0.475839,-0.169303,-0.062959,45.069733,-4.548256,12.859235,4.63583E+18,0.73425,0.040909,0.677457,0.015996,-14.496696,-21.539797,5.459594,2.226166,0.889039,1.061882,44.810267,-11.609241,9.485141,4.63583E+18,0.651258,-0.386945,0.587468,0.284638,-9.546189,-0.199244,-2.101636,0.302667,-0.019632,0.204999,42.740788,18.345058,3.820917,4.63583E+18,0.375762,0.612839,0.482119,-0.500792,0
-8.823644,1.615416,0.880487,0.471943,-0.066481,-0.129607,45.069733,-4.435859,12.728237,4.63583E+18,0.734412,0.041957,0.677254,0.014339,-13.641704,-20.184524,4.55673,3.671141,0.737806,0.807867,44.681166,-11.685587,10.004335,4.63583E+18,0.654298,-0.375921,0.594975,0.276737,-9.568638,-0.045469,-2.153829,0.310426,-0.027256,0.201242,42.854295,18.30451,3.691836,4.63583E+18,0.375373,0.613706,0.480933,-0.501163,0
-9.009567,1.347141,0.550358,0.443638,-0.044061,-0.178202,44.937998,-4.353212,12.532937,4.63583E+18,0.734516,0.04278,0.677124,0.012618,-15.815161,-10.37171,11.610317,4.21278,-0.157216,0.646347,44.673977,-11.742037,10.362217,4.63583E+18,0.660407,-0.362681,0.60025,0.268374,-9.499612,0.045183,-2.173203,0.297891,-0.036636,0.187614,42.933437,18.311106,3.540147,4.63583E+18,0.375005,0.614504,0.479793,-0.501553,0
-9.7786,0.964657,0.794224,0.392168,-0.169673,-0.191287,44.776507,-4.267763,12.563448,4.63583E+18,0.734981,0.043414,0.676607,0.010981,-21.906786,2.264232,29.833833,3.898179,-0.984763,0.40591,44.043303,-11.058173,10.632065,4.63583E+18,0.668236,-0.349755,0.602427,0.261176,-9.381882,0.247892,-2.070631,0.276848,-0.046887,0.171998,42.939049,18.165206,3.585039,4.63583E+18,0.374679,0.615216,0.478719,-0.50195,0
-10.390258,0.085749,2.248886,0.454938,-0.16087,-0.17827,44.984776,-4.19172,12.435283,4.63583E+18,0.735407,0.044277,0.676115,0.009209,-16.41788,14.88191,26.102526,1.979996,-0.114398,0.440188,43.139514,-10.034052,10.799919,4.63583E+18,0.670928,-0.342968,0.604884,0.257572,-9.734331,0.536138,-2.207926,0.254765,-0.068307,0.160568,42.906373,17.960052,3.592926,4.63583E+18,0.374427,0.615824,0.477686,-0.502375,0
-10.614065,-0.767432,2.442026,0.621526,-0.012396,-0.152704,45.24569,-4.109074,12.30584,4.63583E+18,0.735378,0.045717,0.676076,0.007073,-8.063433,18.353115,3.722602,-0.349651,0.437179,0.645291,42.975127,-10.024135,10.769549,4.63583E+18,0.668652,-0.342754,0.60665,0.259615,-10.139732,0.044498,-2.448744,0.23837,-0.08626,0.147606,42.927504,17.954124,3.366259,4.63583E+18,0.374225,0.616343,0.476693,-0.502833,0
-10.851805,-1.140313,1.355107,0.698958,-0.031491,-0.129874,45.113539,-3.901345,12.497003,4.63583E+18,0.735383,0.047461,0.675971,0.004785,-8.06555,4.431494,-5.816153,-1.570189,0.65719,0.28036,43.177192,-10.572618,10.772574,4.63583E+18,0.66445,-0.34709,0.607168,0.263403,-9.968505,-0.498856,-2.391336,0.24195,-0.090706,0.149569,43.079595,17.960061,3.116849,4.63583E+18,0.374027,0.616861,0.475679,-0.503306,0
-10.706452,-1.48796,1.473177,0.739707,-0.002215,-0.081346,44.869374,-3.779479,12.711939,4.63583E+18,0.735289,0.049465,0.675942,0.002538,-9.347549,-4.801314,-6.873856,-1.645602,0.616623,0.065303,42.847591,-10.560016,10.984738,4.63583E+18,0.660444,-0.352116,0.607149,0.266832,-9.857632,-0.074958,-2.005026,0.247897,-0.088917,0.166861,43.165379,17.959723,3.103313,4.63583E+18,0.373846,0.617425,0.474609,-0.503758,0
-10.729517,-1.151451,1.157052,0.76688,0.013396,-0.010745,44.879226,-3.694033,12.681483,4.63583E+18,0.735137,0.051751,0.67594,0.000434,-11.489722,-1.86809,-0.581319,-0.878596,0.307054,0.147419,42.739504,-10.51196,11.185612,4.63583E+18,0.658231,-0.354467,0.607229,0.268992,-9.886356,0.309152,-1.564225,0.240854,-0.075147,0.167469,43.131731,18.039567,3.194373,4.63583E+18,0.373656,0.618007,0.473574,-0.504159,0
-10.905207,-0.357646,0.790289,0.815065,-0.067587,0.055787,45.086936,-3.674428,12.57443,4.63583E+18,0.735196,0.054372,0.675669,-0.001619,-10.511081,1.12379,3.659199,-0.749004,0.230554,0.033879,43.038357,-10.952387,11.139737,4.63583E+18,0.656523,-0.356661,0.60707,0.270622,-9.653138,0.166641,-1.278508,0.237849,-0.048302,0.167352,43.086526,18.079165,3.163062,4.63583E+18,0.373421,0.61864,0.472586,-0.504484,0
-10.696076,0.424481,1.152917,0.858267,-0.081984,0.099304,45.199413,-3.608586,12.549211,4.63583E+18,0.735276,0.057247,0.675336,-0.003662,-8.957567,1.220318,2.305005,-1.14595,0.354811,-0.074335,43.00469,-11.278644,10.923955,4.63583E+18,0.654021,-0.360348,0.606632,0.272771,-9.381262,0.016192,-1.204549,0.258656,-0.014299,0.174424,43.119166,18.00629,3.019213,4.63583E+18,0.373079,0.619389,0.471589,-0.50475,0
-10.394714,1.00259,1.234751,0.877212,-0.079866,0.117758,45.150386,-3.532545,12.624453,4.63583E+18,0.735337,0.060233,0.674996,-0.005702,-8.982048,-0.219478,0.04121,-1.421907,0.481476,-0.037903,43.026167,-11.069786,10.747138,4.63583E+18,0.650722,-0.364827,0.606261,0.275517,-9.369308,0.019433,-1.28539,0.26938,0.011717,0.175841,43.23825,17.819568,2.921555,4.63583E+18,0.372661,0.620212,0.470605,-0.504968,0
-10.129983,1.405196,1.032664,0.883445,-0.106442,0.124815,45.262424,-3.449905,12.637466,4.63583E+18,0.735461,0.063258,0.674564,-0.007743,-9.827925,-2.075512,-0.753525,-1.352517,0.456018,-0.004678,43.382467,-10.667299,10.902848,4.63583E+18,0.647531,-0.368992,0.605928,0.278207,-9.48777,0.180748,-1.340822,0.245336,0.028056,0.169203,43.357709,17.627861,2.823894,4.63583E+18,0.372258,0.621018,0.469712,-0.505105,0
-9.920634,1.715014,0.854332,0.89101,-0.154614,0.114521,45.423933,-3.43028,12.559426,4.63583E+18,0.735707,0.066274,0.673978,-0.009849,-10.118301,-3.535156,-1.642337,-1.067703,0.33982,0.031696,43.394026,-10.822976,11.112366,4.63583E+18,0.645011,-0.372151,0.605651,0.280447,-9.573216,0.382656,-1.417673,0.207005,0.043848,0.161955,43.330061,17.542038,2.776685,4.63583E+18,0.371908,0.621782,0.468943,-0.505137,0
-9.612482,1.998569,0.742665,0.880629,-0.192139,0.083111,45.460369,-3.43028,12.461773,4.63583E+18,0.73605,0.069168,0.673277,-0.012031,-9.818089,-4.154489,-2.767003,-0.659304,0.243088,0.074478,43.408494,-11.844995,11.073783,4.63583E+18,0.643309,-0.373986,0.605649,0.281918,-9.669878,0.488296,-1.53875,0.166382,0.052165,0.154827,43.211597,17.536433,2.828127,4.63583E+18,0.371632,0.622486,0.468291,-0.505079,0
-9.204899,2.260501,0.729639,0.839105,-0.19563,0.033635,45.328737,-3.364464,12.514563,4.63583E+18,0.736402,0.071795,0.672573,-0.014248,-9.584141,-3.982992,-3.47911,-0.162095,0.122443,0.095901,43.691266,-12.741871,10.962248,4.63583E+18,0.642658,-0.374291,0.605937,0.282377,-9.712488,0.454671,-1.667419,0.133761,0.055456,0.14553,43.238233,17.56906,2.875343,4.63583E+18,0.371414,0.623128,0.467735,-0.504962,0
-8.890476,2.469839,0.676032,0.772695,-0.191935,-0.015658,45.101426,-3.156788,12.377169,4.63583E+18,0.736753,0.074081,0.671891,-0.01643,-9.554769,-3.803407,-3.239714,0.413129,-0.021777,0.101993,43.544584,-12.452401,11.096455,4.63583E+18,0.643259,-0.37287,0.606525,0.281626,-9.631048,0.476682,-1.705438,0.098289,0.055141,0.140103,43.357691,17.615282,2.823918,4.63583E+18,0.371277,0.623704,0.467268,-0.504785,0
-8.760146,2.636937,0.45238,0.686329,-0.208473,-0.057139,45.045319,-3.166487,12.113257,4.63583E+18,0.737166,0.075984,0.671171,-0.018501,-9.549816,-3.681509,-2.379653,0.982686,-0.114717,0.105112,43.080899,-11.620475,11.413922,4.63583E+18,0.644969,-0.369802,0.607531,0.279584,-9.524781,0.532525,-1.700427,0.069063,0.052917,0.13485,43.363703,17.615282,2.776683,4.63583E+18,0.371209,0.624219,0.466871,-0.504565,0
-8.7499,2.70162,0.212048,0.584033,-0.241593,-0.090076,45.16751,-3.06394,12.039308,4.63583E+18,0.737696,0.077479,0.670363,-0.020396,-9.551145,-2.66366,-1.354679,1.395853,-0.13243,0.094093,43.318625,-11.756201,11.363162,4.63583E+18,0.647357,-0.365621,0.608938,0.276487,-9.485152,0.439875,-1.845506,0.059326,0.048908,0.125009,43.324074,17.581666,2.822507,4.63583E+18,0.371154,0.624691,0.466515,-0.504351,0
-8.79971,2.681843,0.121095,0.469232,-0.28038,-0.114474,45.326216,-2.895833,12.102301,4.63583E+18,0.738364,0.078549,0.669449,-0.022059,-9.548485,-1.122138,-0.403338,1.57739,-0.089631,0.050944,43.659358,-12.121716,11.351791,4.63583E+18,0.649937,-0.361094,0.61058,0.272737,-9.50756,0.331607,-2.061629,0.056297,0.040941,0.114065,43.329676,17.469213,2.913555,4.63583E+18,0.371099,0.62512,0.46618,-0.504168,0
-8.935938,2.588826,0.279056,0.348454,-0.312497,-0.12868,45.428506,-2.856532,12.046756,4.63583E+18,0.739157,0.079205,0.668449,-0.023439,-9.655318,0.08383,0.152263,1.543091,-0.022042,-0.014676,43.318299,-11.694244,11.718,4.63583E+18,0.652339,-0.356889,0.612242,0.268783,-9.573196,0.288379,-2.104691,0.049976,0.030435,0.109039,43.30267,17.310517,2.972001,4.63583E+18,0.371071,0.625508,0.465856,-0.504009,0
-9.122809,2.478973,0.526957,0.244791,-0.311975,-0.123159,45.382375,-2.922318,11.883322,4.63583E+18,0.73998,0.079556,0.667458,-0.02451,-9.863202,0.875126,0.650434,1.332292,0.018726,-0.070966,42.907112,-11.205441,12.004457,4.63583E+18,0.654363,-0.353433,0.613672,0.265144,-9.608231,0.240556,-1.999427,0.051322,0.029871,0.108863,43.263039,17.224646,2.933796,4.63583E+18,0.371039,0.625896,0.465528,-0.503853,0
-9.289944,2.331504,0.698741,0.158851,-0.299894,-0.105075,45.29692,-2.885592,11.841181,4.63583E+18,0.740798,0.079693,0.666505,-0.025282,-9.949034,1.060893,1.059951,0.958889,0.041908,-0.125241,42.812319,-11.094619,12.044128,4.63583E+18,0.655822,-0.351151,0.614659,0.26227,-9.60622,0.196325,-1.913981,0.070421,0.037385,0.106099,43.296641,17.224646,2.836143,4.63583E+18,0.370937,0.626324,0.465178,-0.503719,0
-9.439232,2.11643,0.779434,0.098811,-0.288722,-0.074914,45.27726,-2.86874,11.765997,4.63583E+18,0.741606,0.079729,0.665581,-0.02579,-9.909172,0.776314,1.246491,0.459632,0.054826,-0.16351,42.843411,-10.901979,11.971839,4.63583E+18,0.656552,-0.350341,0.615073,0.26055,-9.602632,0.222315,-1.83413,0.077611,0.042286,0.111765,43.369885,17.191043,2.783288,4.63583E+18,0.370819,0.626784,0.464806,-0.503578,0
-9.576319,1.893894,0.802879,0.049517,-0.282152,-0.031935,45.399428,-2.86874,11.517979,4.63583E+18,0.742416,0.079734,0.664668,-0.026026,-9.832867,0.630455,1.054091,-0.150697,0.044263,-0.166548,42.800101,-10.730308,11.963255,4.63583E+18,0.656419,-0.351197,0.61479,0.260399,-9.543613,0.251763,-1.844887,0.051702,0.041697,0.122925,43.448724,17.078604,2.828087,4.63583E+18,0.370794,0.627224,0.464458,-0.50337,0
-9.738777,1.645991,0.786896,0.005566,-0.282567,0.014814,45.435955,-2.812361,11.3002,4.63583E+18,0.743245,0.079732,0.663742,-0.025997,-9.832295,0.004928,0.448976,-0.646857,0.036517,-0.154313,42.885564,-10.75568,11.96688,4.63583E+18,0.655564,-0.353368,0.613963,0.261564,-9.542152,0.215144,-1.881959,0.022736,0.033691,0.126178,43.500577,16.992706,2.925739,4.63583E+18,0.370866,0.627608,0.46415,-0.503122,0
-9.8533,1.352058,0.809462,-0.042092,-0.27566,0.067566,45.492333,-2.729722,11.330395,4.63583E+18,0.744076,0.079731,0.662824,-0.025672,-9.696646,-0.76835,-0.179446,-0.812401,0.030632,-0.141918,42.945644,-10.81576,11.946437,4.63583E+18,0.654461,-0.355951,0.612952,0.263192,-9.600618,0.167323,-1.855525,0.005381,0.034092,0.134322,43.501586,16.992706,2.933814,4.63583E+18,0.371,0.627982,0.463856,-0.502827,0
-9.950959,1.159627,0.855481,-0.096982,-0.261936,0.114642,45.574972,-2.775817,11.352885,4.63583E+18,0.74489,0.07969,0.661937,-0.025044,-9.655706,-1.355297,-0.564468,-0.748566,0.001996,-0.161833,42.920254,-10.790369,11.848786,4.63583E+18,0.65354,-0.358374,0.611896,0.264642,-9.618423,0.100691,-1.855525,-0.005565,0.036718,0.143669,43.461387,16.992706,2.880947,4.63583E+18,0.371178,0.628361,0.463565,-0.50249,0
-10.058014,1.066704,0.753972,-0.138795,-0.287268,0.138128,45.59465,-2.917646,11.136773,4.63583E+18,0.745789,0.079582,0.660968,-0.024236,-9.781407,-1.539809,-0.795433,-0.591493,-0.025226,-0.19411,42.885582,-10.730308,11.751126,4.63583E+18,0.652954,-0.36042,0.610887,0.265643,-9.631641,0.111409,-1.833138,-0.015,0.038453,0.154527,43.460913,16.959124,3.009676,4.63583E+18,0.3714,0.628751,0.463267,-0.502113,0
-10.158466,1.021655,0.82357,-0.160556,-0.346839,0.149461,45.528895,-3.019949,10.931206,4.63583E+18,0.746857,0.07943,0.65981,-0.023352,-9.901174,-1.399255,-0.926434,-0.428016,-0.055883,-0.219976,43.018171,-10.726681,11.653474,4.63583E+18,0.652716,-0.36205,0.609933,0.266201,-9.620448,0.210081,-1.801099,-0.032137,0.038943,0.163072,43.652702,16.88588,3.161717,4.63583E+18,0.371685,0.629131,0.462983,-0.501689,0
-10.152791,1.041398,1.277265,-0.177647,-0.366212,0.140991,45.509201,-3.105404,10.889004,4.63583E+18,0.747981,0.079199,0.658595,-0.022453,-9.924994,-1.4176,-0.948553,-0.271,-0.08769,-0.243556,43.142672,-10.718101,11.555828,4.63583E+18,0.65282,-0.363277,0.609029,0.266344,-9.568048,0.245162,-1.766504,-0.054657,0.040501,0.170638,43.863756,16.812635,3.116942,4.63583E+18,0.372041,0.629493,0.462728,-0.501206,0
-10.069194,1.068626,1.516588,-0.185695,-0.3584,0.123816,45.443437,-3.190858,10.748083,4.63583E+18,0.749082,0.078895,0.657408,-0.021582,-9.839167,-1.696099,-0.932719,-0.07781,-0.123376,-0.273985,43.005717,-10.696346,11.45816,4.63583E+18,0.653339,-0.364016,0.608196,0.265967,-9.510582,0.243133,-1.744643,-0.065736,0.044106,0.175087,43.798108,16.7338,3.064058,4.63583E+18,0.372428,0.629853,0.46249,-0.500685,0
-9.93397,1.083645,1.475192,-0.186926,-0.355693,0.10566,45.545864,-3.154186,10.405298,4.63583E+18,0.750172,0.07854,0.656234,-0.020766,-9.850043,-1.762599,-0.879302,0.147192,-0.155335,-0.308164,43.018151,-10.594101,11.331502,4.63583E+18,0.654317,-0.364192,0.607472,0.264975,-9.49736,0.233971,-1.785847,-0.066136,0.052385,0.179672,43.598729,16.687521,3.153596,4.63583E+18,0.372811,0.630238,0.462252,-0.500134,0
-9.65598,1.039493,1.518434,-0.187748,-0.340899,0.079283,45.770308,-3.07155,10.230717,4.63583E+18,0.751216,0.078113,0.655112,-0.020027,-9.832298,-1.35425,-0.753614,0.319661,-0.172205,-0.346465,43.258654,-10.397842,11.223183,4.63583E+18,0.655639,-0.363975,0.606832,0.263466,-9.486169,0.207526,-1.802117,-0.060929,0.063155,0.187638,43.586539,16.687521,3.16985,4.63583E+18,0.373176,0.630669,0.461999,-0.499553,0
-9.338617,0.922109,1.556917,-0.209361,-0.309347,0.054554,45.826591,-3.051851,10.280526,4.63583E+18,0.752177,0.077553,0.654097,-0.019296,-9.758295,-0.860615,-0.590338,0.369963,-0.176896,-0.392628,43.421734,-10.166857,11.346212,4.63583E+18,0.657097,-0.36373,0.606162,0.26171,-9.495321,0.246684,-1.703965,-0.04215,0.07913,0.195203,43.738603,16.620393,3.024901,4.63583E+18,0.373476,0.631176,0.461711,-0.498954,0
-9.077606,0.74089,1.506204,-0.23713,-0.280676,0.045026,45.704514,-3.173929,10.387564,4.63583E+18,0.753066,0.076881,0.653176,-0.018509,-9.917556,-0.752652,-0.329415,0.343961,-0.211359,-0.430163,43.396367,-10.021326,11.445969,4.63583E+18,0.658639,-0.363612,0.605309,0.259968,-9.532959,0.393643,-1.555452,-0.023947,0.097733,0.196718,43.796616,16.501884,3.062494,4.63583E+18,0.373696,0.631752,0.46141,-0.498339,0
-8.861636,0.63009,1.479913,-0.246824,-0.265476,0.043794,45.602163,-3.276279,10.196938,4.63583E+18,0.753914,0.076175,0.652302,-0.017694,-10.135768,-1.180101,0.018271,0.287325,-0.244254,-0.453494,43.361641,-9.935881,11.319335,4.63583E+18,0.660199,-0.36367,0.604265,0.258352,-9.512639,0.501528,-1.506078,-0.007884,0.113975,0.190978,43.729991,16.45558,3.295918,4.63583E+18,0.37383,0.632375,0.461116,-0.49772,0
-8.625917,0.591587,1.561619,-0.237128,-0.238934,0.046259,45.704531,-3.23965,9.831619,4.63583E+18,0.754685,0.07551,0.651509,-0.01689,-10.104501,-1.126941,0.271241,0.183467,-0.251966,-0.471384,43.44347,-9.803333,11.210964,4.63583E+18,0.661636,-0.364048,0.603058,0.256959,-9.461762,0.493888,-1.514742,0.017972,0.132802,0.185458,43.723847,16.45558,3.365228,4.63583E+18,0.373848,0.633067,0.460811,-0.497109,0
-8.456909,0.585955,1.5494,-0.233924,-0.203029,0.04782,45.863219,-3.15702,9.666382,4.63583E+18,0.755356,0.074862,0.650826,-0.016081,-9.977469,-0.727337,0.165398,0.081905,-0.248831,-0.50763,43.491354,-9.508481,11.276018,4.63583E+18,0.662947,-0.364799,0.601692,0.255715,-9.48208,0.539645,-1.512694,0.058644,0.153806,0.179318,43.797091,16.382887,3.175501,4.63583E+18,0.373706,0.633853,0.46047,-0.49653,0
-8.40433,0.623512,1.416073,-0.232281,-0.184544,0.04971,45.899837,-3.268751,9.718962,4.63583E+18,0.755974,0.074225,0.6502,-0.015264,-9.929175,-0.494604,0.007651,0.039322,-0.237962,-0.564284,43.504498,-9.115192,11.209492,4.63583E+18,0.664221,-0.365819,0.600222,0.254403,-9.544139,0.686594,-1.559472,0.11156,0.177973,0.168727,43.842375,16.263337,3.204859,4.63583E+18,0.373355,0.63475,0.460085,-0.496004,0
-8.464415,0.700507,1.304326,-0.23261,-0.18405,0.053489,45.77778,-3.430261,9.750897,4.63583E+18,0.756591,0.073595,0.649574,-0.014432,-10.008728,-0.480645,-0.097251,0.040119,-0.245004,-0.637516,43.577744,-8.824084,11.014173,4.63583E+18,0.665588,-0.367009,0.598616,0.252895,-9.592965,0.923084,-1.621531,0.135036,0.193065,0.157956,43.888124,16.25718,3.530333,4.63583E+18,0.37289,0.635694,0.459702,-0.4955,0
-8.596812,0.795348,1.291166,-0.239428,-0.192183,0.051189,45.741138,-3.466902,9.678605,4.63583E+18,0.757229,0.072937,0.648922,-0.013591,-10.099662,-0.560196,-0.212078,0.064976,-0.252916,-0.715008,43.676333,-8.653186,10.847829,4.63583E+18,0.667087,-0.368312,0.596892,0.25112,-9.557941,0.9726,-1.675951,0.117996,0.201431,0.150299,43.973577,16.2298,3.646022,4.63583E+18,0.372439,0.636613,0.459387,-0.494952,0
-8.696349,0.949324,1.51929,-0.237294,-0.19276,0.040346,45.797466,-3.466902,9.656056,4.63583E+18,0.757866,0.072256,0.64827,-0.01279,-10.442453,-0.882786,-0.378507,0.16494,-0.26851,-0.794214,43.787956,-8.435238,10.717599,4.63583E+18,0.668854,-0.369513,0.5951,0.248898,-9.485152,0.749345,-1.759343,0.086582,0.206732,0.144959,43.98077,16.07773,3.50102,4.63583E+18,0.372049,0.637483,0.459159,-0.494337,0
-8.744248,1.16716,1.662062,-0.257417,-0.178303,0.023421,46.002132,-3.466902,9.721768,4.63583E+18,0.758468,0.071467,0.647669,-0.011985,-11.022939,-1.771577,-0.566932,0.381066,-0.29956,-0.88998,43.758997,-8.080299,10.60057,4.63583E+18,0.671119,-0.370312,0.59329,0.245916,-9.513096,0.56566,-1.835669,0.039239,0.206642,0.143042,43.833846,15.952577,3.588826,4.63583E+18,0.37178,0.638274,0.459032,-0.493634,0
-8.846582,1.380326,1.778495,-0.290117,-0.173287,0.008549,46.124245,-3.466902,9.675796,4.63583E+18,0.759063,0.070535,0.647089,-0.011138,-11.181422,-2.068381,-0.478359,0.57619,-0.304497,-0.938312,43.733729,-7.665262,10.723562,4.63583E+18,0.673733,-0.370672,0.59158,0.24232,-9.512657,0.389758,-1.933768,-0.005636,0.204287,0.14909,43.748244,15.939779,3.786794,4.63583E+18,0.371648,0.639003,0.458977,-0.492842,0
-8.884169,1.578446,2.031966,-0.325116,-0.142652,-0.016834,46.012576,-3.476289,9.505876,4.63583E+18,0.759583,0.069425,0.646613,-0.010268,-10.619012,-1.614043,-0.718961,0.672307,-0.291684,-0.955282,43.905534,-7.246627,10.794487,4.63583E+18,0.676465,-0.370808,0.589962,0.238413,-9.394712,0.082093,-2.048781,-0.031232,0.202279,0.161727,43.899718,15.985079,3.833125,4.63583E+18,0.371613,0.639711,0.458938,-0.491986,0
-8.88699,1.764373,2.137217,-0.368577,-0.112987,-0.048959,45.916766,-3.47911,9.38565,4.63583E+18,0.760032,0.068092,0.646241,-0.009375,-10.322076,-1.345079,-1.364106,0.75444,-0.317206,-0.980523,44.115759,-6.823001,10.595558,4.63583E+18,0.679394,-0.370739,0.588299,0.234267,-9.296454,-0.137803,-2.11437,-0.040191,0.206461,0.179124,44.143851,15.92465,3.827537,4.63583E+18,0.371629,0.640446,0.458876,-0.491074,0
-8.952683,1.872389,2.214197,-0.414503,-0.083822,-0.073856,45.956145,-3.47911,9.222306,4.63583E+18,0.760412,0.066547,0.645968,-0.008429,-10.852379,-1.567518,-1.997489,0.909507,-0.35866,-1.020358,44.245506,-6.404367,10.420602,4.63583E+18,0.68268,-0.370277,0.586591,0.229683,-9.233961,-0.126205,-2.261282,-0.036498,0.210824,0.200886,44.170094,15.699939,3.787393,4.63583E+18,0.371672,0.641236,0.458755,-0.490123,0
-8.963058,1.939064,2.243338,-0.473564,-0.056381,-0.089716,45.97308,-3.47911,9.029834,4.63583E+18,0.76073,0.064773,0.645786,-0.007367,-11.905827,-2.140815,-2.624592,1.092002,-0.402058,-1.063163,44.284843,-5.933705,10.319325,4.63583E+18,0.686368,-0.369344,0.584844,0.22459,-9.139827,-0.034138,-2.41955,-0.036625,0.210117,0.220473,43.932579,15.52223,3.747673,4.63583E+18,0.371755,0.642062,0.458579,-0.489142,0
-9.072843,1.953184,2.199242,-0.533305,-0.06252,-0.088002,45.916777,-3.47911,9.350629,4.63583E+18,0.761078,0.062814,0.645583,-0.006141,-14.040223,-1.884537,-1.673447,1.23901,-0.587238,-1.112177,44.297951,-5.37806,10.209463,4.63583E+18,0.690746,-0.367919,0.582602,0.219273,-9.134652,0.174197,-2.471481,-0.052229,0.204288,0.231516,43.805749,15.51561,3.837046,4.63583E+18,0.371913,0.642871,0.458396,-0.48813,0
-9.238089,1.699835,2.316492,-0.57727,-0.080183,-0.075025,45.899837,-3.53541,9.535804,4.63583E+18,0.76148,0.060748,0.645318,-0.004759,-15.675721,-0.030127,0.199144,1.20957,-0.66729,-1.185584,44.418181,-4.894331,10.045383,4.63583E+18,0.6953,-0.366662,0.579958,0.213926,-9.273891,0.416495,-2.500446,-0.085377,0.192992,0.238903,43.851472,15.482094,4.116152,4.63583E+18,0.372196,0.643619,0.458242,-0.487072,0
-9.362073,1.220116,2.712582,-0.582308,-0.072069,-0.053504,45.890455,-3.618035,9.267524,4.63583E+18,0.761857,0.058723,0.645069,-0.003294,-15.743213,1.529298,-1.233428,1.034909,-0.654971,-1.309402,44.599507,-4.40342,9.748816,4.63583E+18,0.699629,-0.366201,0.576972,0.208611,-9.38853,0.397896,-2.566029,-0.128318,0.175413,0.249891,43.903408,15.369757,4.44988,4.63583E+18,0.37265,0.644284,0.458118,-0.485961,0
-9.415642,0.751496,2.848059,-0.544948,-0.056867,-0.023436,45.76565,-3.581508,9.104903,4.63583E+18,0.76218,0.056898,0.644857,-0.001831,-16.906931,1.695465,-2.301899,0.928312,-0.811799,-1.432393,44.664159,-3.732012,9.472544,4.63583E+18,0.704237,-0.366189,0.573215,0.203421,-9.392039,0.361029,-2.523034,-0.168961,0.164097,0.260844,43.91003,15.283669,4.5631,4.63583E+18,0.373256,0.644883,0.458028,-0.484785,0
-9.4804,0.403093,2.743963,-0.488929,-0.093627,0.008602,45.728931,-3.564562,9.082308,4.63583E+18,0.762584,0.055336,0.644518,-0.000426,-17.943424,0.34278,-1.875932,0.903406,-0.937408,-1.560532,44.733786,-3.060629,9.236116,4.63583E+18,0.709169,-0.366424,0.568834,0.198092,-9.52918,0.583622,-2.355638,-0.199142,0.156495,0.267344,43.94912,15.250162,4.472064,4.63583E+18,0.37397,0.645431,0.457969,-0.48356,0
-9.4786,0.160759,2.813224,-0.435109,-0.145964,0.034079,45.850874,-3.686503,8.941607,4.63583E+18,0.763113,0.054013,0.644003,0.000903,-18.136212,0.579123,-1.674281,0.920318,-1.04295,-1.690422,44.794819,-2.389279,8.905669,4.63583E+18,0.714428,-0.366802,0.563914,0.192484,-9.584508,0.528967,-2.293952,-0.201415,0.157358,0.27415,44.028983,15.171338,4.41908,4.63583E+18,0.374701,0.645988,0.457896,-0.482317,0
-9.35099,-0.049613,2.797419,-0.395078,-0.188457,0.050193,45.88763,-3.854595,8.75848,4.63583E+18,0.763744,0.052859,0.643347,0.002168,-17.86229,1.716518,-1.605898,0.86643,-1.144227,-1.844486,44.87753,-1.620332,8.536708,4.63583E+18,0.719903,-0.367588,0.558363,0.186682,-9.267419,-0.057329,-2.418857,-0.160058,0.182263,0.290511,44.113389,15.057978,4.502824,4.63583E+18,0.375305,0.64669,0.457733,-0.481059,0
-8.967216,-0.08828,2.548806,-0.334146,-0.11718,0.061614,45.700045,-3.828507,8.79112,4.63583E+18,0.764168,0.051929,0.642915,0.00332,-17.556986,1.851777,-1.712649,0.751026,-1.231118,-1.964565,45.040711,-0.644613,8.194027,4.63583E+18,0.725425,-0.368895,0.552223,0.180903,-8.914154,-0.521127,-2.462021,-0.107661,0.212047,0.317612,44.205467,14.905906,4.646854,4.63583E+18,0.375765,0.647583,0.457438,-0.479778,0
-8.618702,0.092763,2.23423,-0.27563,0.036746,0.071475,45.709138,-3.686774,8.804365,4.63583E+18,0.764165,0.051211,0.64297,0.004378,-17.465684,0.839226,-1.797099,0.647888,-1.278605,-2.042919,45.247359,0.198667,7.737015,4.63583E+18,0.730879,-0.370619,0.545683,0.175178,-8.974566,-0.183722,-2.238816,-0.065734,0.230751,0.337658,44.290909,14.747228,4.744503,4.63583E+18,0.376115,0.648616,0.457033,-0.478493,0
-8.676503,0.35285,1.475966,-0.230755,0.039725,0.078627,45.916533,-3.715674,8.726497,4.63583E+18,0.764143,0.050656,0.643033,0.005338,-17.295302,-0.079604,-1.955933,0.537393,-1.305293,-2.047667,45.372169,0.870017,7.093332,4.63583E+18,0.736148,-0.372632,0.538915,0.169712,-9.369709,0.734545,-2.038286,-0.05414,0.234199,0.341899,44.337288,14.594124,4.79751,4.63583E+18,0.376435,0.64968,0.456597,-0.477212,0
-8.77236,0.583872,0.92255,-0.185818,0.0034,0.07847,45.97308,-3.923044,8.713258,4.63583E+18,0.764207,0.050242,0.642981,0.006171,-16.908946,-0.072733,-2.077687,0.307626,-1.349448,-1.988407,45.416526,1.59198,6.395113,4.63583E+18,0.741041,-0.375145,0.531885,0.164994,-9.639671,0.909583,-2.099347,-0.050994,0.229255,0.338786,44.342869,14.442044,4.842161,4.63583E+18,0.376749,0.650731,0.456154,-0.475955,0
-9.070688,0.812978,0.714732,-0.137427,-0.048586,0.076334,45.84178,-4.045264,8.650436,4.63583E+18,0.764401,0.049977,0.642765,0.006859,-16.180653,-0.12259,-2.54447,-0.106078,-1.404524,-1.904537,45.417387,2.405375,5.952398,4.63583E+18,0.745277,-0.378675,0.524479,0.161522,-9.770809,0.737682,-2.392308,-0.026368,0.221167,0.340861,44.388561,14.283356,4.978881,4.63583E+18,0.377014,0.651807,0.455643,-0.474761,0
-9.530696,0.998026,0.533557,-0.080086,-0.143195,0.06517,45.811556,-4.121337,8.705663,4.63583E+18,0.764835,0.049866,0.642252,0.007338,-15.187333,-0.130473,-2.633715,-0.483082,-1.471397,-1.782716,45.45676,3.103039,5.560608,4.63583E+18,0.748911,-0.383027,0.516753,0.159341,-9.863582,0.998208,-2.540187,-0.024902,0.207282,0.348033,44.367988,14.09119,5.1285,4.63583E+18,0.377314,0.652869,0.455085,-0.473595,0
-9.878285,1.112649,0.432031,-0.016173,-0.202982,0.053747,45.87065,-4.203952,8.728293,4.63583E+18,0.765415,0.049929,0.641552,0.007599,-13.559158,-0.40094,-2.557188,-0.710501,-1.437314,-1.721567,45.444553,3.714262,4.966054,4.63583E+18,0.751995,-0.387943,0.509031,0.157771,-9.735242,0.954634,-2.632952,-0.046387,0.185584,0.354258,44.254979,13.92621,5.232786,4.63583E+18,0.377726,0.653865,0.454518,-0.472437,0
-10.089674,1.210296,0.30254,0.047335,-0.127488,0.052091,45.95326,-4.223762,8.803301,4.63583E+18,0.76578,0.050189,0.641095,0.0077,-11.476755,-0.628205,-2.71928,-0.862655,-1.290879,-1.765184,45.428737,4.436174,4.488396,4.63583E+18,0.75448,-0.393487,0.501548,0.156136,-9.582811,0.796963,-2.719818,-0.075042,0.161445,0.359386,44.287746,13.918873,5.369495,4.63583E+18,0.378271,0.654776,0.453954,-0.47128,0
-10.5541,1.382976,0.01539,0.089028,-0.061271,0.056442,45.97308,-4.092487,8.816576,4.63583E+18,0.765958,0.050592,0.64085,0.007715,-9.503545,-0.910564,-3.16178,-1.006091,-1.034202,-1.813583,45.382675,5.177385,4.301155,4.63583E+18,0.756153,-0.399713,0.494652,0.154212,-9.666479,0.975127,-2.695733,-0.112359,0.139079,0.358014,44.446424,13.965269,5.507962,4.63583E+18,0.378956,0.65558,0.453431,-0.470115,0
-11.197096,1.568889,-0.089162,0.131654,-0.139368,0.054399,46.02933,-3.996609,8.663747,4.63583E+18,0.766336,0.05113,0.640357,0.007593,-8.036796,-0.989101,-3.305616,-1.061575,-0.785745,-1.683642,45.310273,5.652631,4.166031,4.63583E+18,0.757074,-0.405971,0.488678,0.152385,-9.877464,1.242306,-2.738982,-0.17625,0.099413,0.356181,44.538185,13.820266,5.515329,4.63583E+18,0.379885,0.6562,0.452973,-0.468939,0
-11.605988,1.798861,0.127321,0.141243,-0.305252,0.050126,46.046326,-3.979614,8.543433,4.63583E+18,0.767153,0.051693,0.639335,0.007395,-6.836559,-1.247128,-2.634826,-0.794513,-0.56901,-1.449043,45.298066,6.092922,3.93825,4.63583E+18,0.757806,-0.41102,0.483921,0.150378,-9.982189,1.282529,-2.725415,-0.253495,0.066687,0.354322,44.511356,13.508467,5.474493,4.63583E+18,0.381084,0.656629,0.452619,-0.467708,0
-11.420007,1.939893,0.607783,0.138535,-0.31844,0.047494,45.980705,-3.913994,8.520767,4.63583E+18,0.768004,0.052241,0.63827,0.007193,-5.034727,-0.59401,-2.317742,-0.198241,-0.326854,-1.132772,45.28586,6.593384,3.665551,4.63583E+18,0.758843,-0.413684,0.480826,0.147746,-9.898859,1.062527,-2.730228,-0.309956,0.047226,0.354835,44.477144,13.270218,5.609347,4.63583E+18,0.382473,0.656928,0.45234,-0.466421,0
-11.0782,1.909147,0.826186,0.151735,-0.224458,0.028953,45.960873,-3.894162,8.445774,4.63583E+18,0.768601,0.05278,0.63751,0.006916,-3.415606,1.29985,-1.851131,0.550942,-0.124667,-0.765505,45.226771,7.068625,3.466633,4.63583E+18,0.760525,-0.41336,0.479454,0.144423,-9.772269,0.864324,-2.733115,-0.347989,0.022684,0.368166,44.517226,13.217444,5.806493,4.63583E+18,0.384037,0.657142,0.452058,-0.465107,0
-10.914503,1.732786,0.648286,0.170714,-0.206058,0.012836,46.092113,-4.0254,8.432483,4.63583E+18,0.769145,0.053335,0.636812,0.006544,-2.939453,1.242108,-1.432813,1.114039,0.115475,-0.520262,45.077513,7.411537,3.403334,4.63583E+18,0.762534,-0.410897,0.479595,0.140336,-9.631354,0.734272,-2.600947,-0.364726,0.010379,0.388949,44.63507,13.151317,5.814954,4.63583E+18,0.385708,0.657341,0.451729,-0.46376,0
-11.067113,1.562757,0.41722,0.173536,-0.375618,0.001411,46.131779,-4.130685,8.360322,4.63583E+18,0.770136,0.053872,0.635572,0.006091,-3.32838,4.520189,-2.732935,1.104068,0.334822,-0.059913,45.008698,7.506731,3.630026,4.63583E+18,0.763798,-0.407665,0.481204,0.137352,-9.569545,0.651507,-2.503577,-0.379939,-0.000814,0.414212,44.766944,12.919391,5.761894,4.63583E+18,0.38749,0.657538,0.451341,-0.462371,0
-10.92411,1.254106,0.591176,0.186982,-0.548392,0.001392,46.066166,-4.019294,8.187687,4.63583E+18,0.771578,0.054457,0.633776,0.005563,-3.708585,8.826139,-3.396759,0.781947,0.479266,0.456252,45.037539,7.349175,3.702448,4.63583E+18,0.763913,-0.404496,0.483955,0.136409,-9.644127,0.933391,-2.590644,-0.441735,-0.022875,0.440218,44.813377,12.759914,5.806487,4.63583E+18,0.38953,0.657638,0.450961,-0.460882,0
-10.442816,1.003202,1.109091,0.224823,-0.500053,0.017718,45.971343,-3.857768,7.767429,4.63583E+18,0.772878,0.055208,0.632128,0.004997,-3.448643,9.361684,-2.882208,0.465145,0.620445,0.774983,45.131585,7.041224,3.76872,4.63583E+18,0.763014,-0.401766,0.487502,0.136878,-9.733814,1.295316,-2.693323,-0.521862,-0.053479,0.456216,44.852392,12.647659,5.859554,4.63583E+18,0.391875,0.657575,0.450639,-0.459297,0
-9.977838,0.924059,1.441982,0.270257,-0.306954,0.060976,45.948666,-3.83029,7.57906,4.63583E+18,0.773656,0.056216,0.631091,0.004494,-3.302604,9.322652,-2.237954,0.155509,0.773131,1.051498,45.144977,6.835344,4.021643,4.63583E+18,0.761109,-0.399535,0.49181,0.138596,-9.703561,1.254714,-2.623267,-0.496343,-0.077023,0.456076,44.971275,12.422101,5.814972,4.63583E+18,0.394191,0.657502,0.450226,-0.457821,0
-9.735165,0.821805,1.304636,0.319477,-0.175965,0.080837,46.079914,-3.954999,7.565758,4.63583E+18,0.774075,0.057431,0.630471,0.003959,-3.50673,8.951622,-2.007017,-0.069886,0.943334,1.307783,45.036714,6.602198,4.444701,4.63583E+18,0.758302,-0.397577,0.496935,0.141301,-9.599267,1.124143,-2.513401,-0.359482,-0.087611,0.44774,44.985082,12.150352,5.683877,4.63583E+18,0.396134,0.657615,0.449555,-0.456642,0
-9.842689,0.652846,0.860753,0.359018,-0.31247,0.103004,46.175823,-3.991821,7.493585,4.63583E+18,0.77484,0.058834,0.629405,0.003358,-3.862933,8.312852,-1.906964,-0.215587,1.098875,1.554062,45.171384,5.944226,4.916371,4.63583E+18,0.754746,-0.39564,0.502847,0.14482,-9.490476,1.244585,-2.37569,-0.24515,-0.093997,0.43908,44.904402,11.951865,5.635561,4.63583E+18,0.397756,0.657884,0.448677,-0.455706,0
-9.569186,0.600993,0.744652,0.406005,-0.417646,0.158179,46.249076,-3.93556,7.320902,4.63583E+18,0.775864,0.060536,0.627983,0.002786,-4.253536,7.872629,-1.586608,-0.3812,1.228655,1.79187,45.598606,5.139399,5.293976,4.63583E+18,0.750446,-0.393774,0.509421,0.14921,-9.35727,1.203317,-2.254932,-0.171941,-0.086198,0.429095,44.950029,11.793181,5.772206,4.63583E+18,0.399144,0.658268,0.447698,-0.4549,0
-9.313572,0.673162,0.960274,0.445536,-0.402744,0.205032,46.209809,-3.984201,7.134989,4.63583E+18,0.776833,0.062488,0.626594,0.002266,-4.658577,7.242496,-1.124745,-0.592993,1.340303,2.039941,45.734198,4.463163,5.715793,4.63583E+18,0.745333,-0.392075,0.516571,0.154627,-9.238628,0.691396,-2.37217,-0.054941,-0.064232,0.418391,45.035486,11.640045,5.827191,4.63583E+18,0.400147,0.658866,0.446562,-0.454269,0
-9.181052,0.986422,0.978551,0.449862,-0.421787,0.25489,46.18344,-4.004028,6.867521,4.63583E+18,0.777845,0.064585,0.625126,0.001891,-5.108812,6.237793,-0.623037,-0.767837,1.445974,2.297854,45.169097,4.000888,6.361952,4.63583E+18,0.739449,-0.390384,0.524294,0.16103,-9.337008,0.405216,-2.406514,0.104649,-0.031588,0.423723,45.115364,11.487994,5.690544,4.63583E+18,0.400661,0.6598,0.445162,-0.453834,0
-9.286807,1.355511,0.83313,0.393659,-0.510857,0.270318,46.180607,-4.069655,6.724521,4.63583E+18,0.779097,0.066541,0.62336,0.001689,-5.588436,5.103433,-0.372645,-0.862401,1.542588,2.556681,44.750155,3.414439,6.951428,4.63583E+18,0.732914,-0.388424,0.532592,0.168255,-9.565265,0.763579,-2.300792,0.189176,-0.000447,0.442607,45.194173,11.401714,5.629979,4.63583E+18,0.400919,0.660966,0.4436,-0.453438,0
-9.410827,1.712335,0.465372,0.354909,-0.685252,0.274591,46.24623,-4.145727,6.786235,4.63583E+18,0.780804,0.068382,0.621021,0.001553,-6.069574,4.093879,-0.326001,-0.893725,1.627034,2.802487,44.654529,2.116451,7.55324,4.63583E+18,0.725835,-0.386003,0.541427,0.176134,-9.704048,1.140858,-2.430571,0.176858,0.020035,0.446786,45.240635,11.368296,5.682012,4.63583E+18,0.40118,0.662156,0.442083,-0.452953,0
-8.920742,2.150708,0.74119,0.356419,-0.561643,0.2682,46.26606,-4.293963,6.596124,4.63583E+18,0.782182,0.07021,0.619079,0.001429,-6.569408,3.289801,-0.295801,-0.884155,1.696693,3.025004,44.400239,0.596562,8.131181,4.63583E+18,0.718298,-0.383021,0.550724,0.184515,-9.818183,1.130789,-2.495879,0.118915,0.038679,0.457487,45.240635,11.256072,5.68865,4.63583E+18,0.401585,0.663301,0.440675,-0.452291,0
-8.839909,2.558344,1.004505,0.316245,-0.414606,0.223316,46.322303,-4.343002,6.230986,4.63583E+18,0.783188,0.071791,0.617625,0.001306,-7.176866,2.671021,-0.197389,-0.859601,1.744934,3.217538,44.174344,-0.661929,8.635214,4.63583E+18,0.710374,-0.379472,0.560362,0.193296,-9.845806,1.339173,-2.402289,0.057718,0.059854,0.475551,45.251773,11.063977,5.81672,4.63583E+18,0.402152,0.664414,0.439365,-0.451426,0
-8.984424,2.87396,0.806137,0.236102,-0.429069,0.214526,46.395542,-4.345836,6.065339,4.63583E+18,0.78425,0.073088,0.616124,0.001354,-7.839719,2.210699,-0.063864,-0.853203,1.781187,3.376122,44.305807,-1.773665,9.173154,4.63583E+18,0.702067,-0.375466,0.570221,0.202425,-9.867008,1.839676,-2.07119,0.013998,0.084815,0.489418,45.304029,10.865446,6.058513,4.63583E+18,0.40282,0.665524,0.43814,-0.450386,0
-8.993156,3.063815,0.798045,0.146065,-0.438113,0.216586,46.421919,-4.467667,6.052036,4.63583E+18,0.785359,0.074095,0.614588,0.00164,-8.583053,1.705079,0.06334,-0.870314,1.803663,3.502767,44.424156,-3.067849,9.807271,4.63583E+18,0.693379,-0.371126,0.580172,0.211875,-10.017124,2.256638,-1.857876,-0.055295,0.086671,0.497382,45.422882,10.712326,6.120198,4.63583E+18,0.403689,0.666532,0.437024,-0.4492,0
-9.031505,3.119423,0.752297,0.064294,-0.434413,0.195514,46.359155,-4.691957,5.989273,4.63583E+18,0.78648,0.074779,0.613069,0.002069,-9.469759,0.994822,0.377217,-0.918386,1.804226,3.59051,44.312011,-4.633099,10.520253,4.63583E+18,0.684338,-0.366605,0.590051,0.221633,-10.011823,2.323504,-1.854254,-0.114907,0.093972,0.503004,45.581569,10.56028,6.06708,4.63583E+18,0.40472,0.667461,0.436014,-0.447873,0
-9.111285,3.096981,0.507534,0.004931,-0.454988,0.170202,46.395531,-4.82365,5.678911,4.63583E+18,0.787668,0.075203,0.611487,0.002561,-10.266076,0.089296,0.861258,-0.981158,1.794413,3.630577,44.069382,-6.14322,11.162128,4.63583E+18,0.674984,-0.362047,0.599729,0.231609,-9.8336,1.963527,-2.451371,-0.178255,0.11242,0.485169,45.706864,10.368183,6.111614,4.63583E+18,0.405858,0.668282,0.4352,-0.446408,0
-9.149878,2.994772,0.298914,-0.027154,-0.464719,0.152196,46.478137,-4.846339,5.441068,4.63583E+18,0.788888,0.075477,0.609877,0.003073,-11.010702,-0.965713,1.458739,-1.041842,1.764688,3.635594,43.976081,-7.79571,11.707185,4.63583E+18,0.665404,-0.357509,0.609092,0.241725,-10.060737,1.656791,-3.023449,-0.25485,0.073807,0.466404,45.792311,10.136255,6.12021,4.63583E+18,0.407242,0.668864,0.434514,-0.444941,0
-9.23052,2.891432,0.078308,-0.070831,-0.418975,0.132073,46.554224,-4.911936,5.255108,4.63583E+18,0.790002,0.075554,0.60842,0.003644,-11.665416,-2.389677,2.117131,-1.070028,1.722024,3.618557,43.847414,-9.633608,12.32252,4.63583E+18,0.655708,-0.352942,0.618099,0.251857,-10.439846,1.71263,-2.470553,-0.277829,0.02686,0.478845,45.805408,9.904329,6.072645,4.63583E+18,0.408797,0.669339,0.433754,-0.443539,0
-9.628062,2.625087,-0.097412,-0.107667,-0.419588,0.12219,46.505643,-5.062989,4.997022,4.63583E+18,0.791127,0.075485,0.606962,0.004276,-12.054552,-3.980157,2.679344,-1.051358,1.666474,3.572678,43.371921,-10.909462,12.920683,4.63583E+18,0.646037,-0.348281,0.626726,0.261824,-10.50375,1.60742,-2.323363,-0.290851,0.000549,0.496909,45.698771,9.666823,6.12381,4.63583E+18,0.410467,0.669773,0.43292,-0.442155,0
-9.947651,2.288983,-0.003099,-0.130118,-0.446192,0.108402,46.48579,-5.168286,4.791239,4.63583E+18,0.792322,0.075306,0.605417,0.004913,-12.3267,-5.389652,3.043985,-1.01328,1.591824,3.497334,42.592027,-11.92129,13.457717,4.63583E+18,0.636517,-0.343534,0.634907,0.271523,-10.559753,1.649949,-2.664797,-0.350788,-0.021582,0.512239,45.658018,9.467206,6.176946,4.63583E+18,0.41237,0.670087,0.432114,-0.440695,0
-10.066289,2.059623,0.186539,-0.133767,-0.513564,0.085822,46.48579,-5.244365,4.74868,4.63583E+18,0.793685,0.075059,0.603655,0.005464,-12.614633,-6.63105,3.069766,-0.966535,1.498963,3.388822,41.736954,-13.126869,13.823167,4.63583E+18,0.627263,-0.338754,0.642571,0.280872,-10.911756,2.0966,-2.782208,-0.491565,-0.043242,0.525841,45.743465,9.28178,6.221457,4.63583E+18,0.414727,0.670139,0.431487,-0.439015,0
-9.886573,1.901797,0.475526,-0.09581,-0.458979,0.054699,46.542004,-5.205179,4.67373,4.63583E+18,0.794896,0.074858,0.602082,0.005833,-12.919819,-7.721103,2.944838,-0.90646,1.395098,3.238074,41.139531,-14.409386,14.103197,4.63583E+18,0.618397,-0.334018,0.649666,0.289745,-11.446888,2.287434,-2.823315,-0.679494,-0.07998,0.544392,45.828918,9.010892,6.274605,4.63583E+18,0.417705,0.669824,0.431084,-0.437064,0
-9.873801,1.895838,0.633648,-0.06389,-0.437692,0.023226,46.559036,-5.122568,4.501127,4.63583E+18,0.796041,0.074684,0.600587,0.006023,-13.275296,-8.945488,2.875189,-0.820882,1.278231,3.038579,40.623983,-15.701849,14.348074,4.63583E+18,0.610073,-0.329388,0.656145,0.297973,-11.898052,2.291432,-2.789774,-0.872114,-0.117132,0.566146,45.808664,8.732459,6.241226,4.63583E+18,0.421319,0.669136,0.4309,-0.434825,0
-9.98168,1.969933,0.677936,-0.032268,-0.442039,-0.012668,46.559036,-5.046484,4.230862,4.63583E+18,0.797185,0.074526,0.599088,0.006012,-13.7262,-10.507205,2.806973,-0.717528,1.147235,2.797317,40.16014,-16.902397,14.681969,4.63583E+18,0.602437,-0.324931,0.661969,0.30543,-12.007597,2.018173,-2.665523,-1.028406,-0.139864,0.59744,45.762323,8.567264,6.195796,4.63583E+18,0.425458,0.668173,0.430862,-0.432305,0
-9.803967,2.008543,0.739825,-0.004074,-0.281795,-0.050873,46.493457,-4.963872,4.012831,4.63583E+18,0.797919,0.074364,0.598132,0.005852,-13.998299,-12.090548,2.689193,-0.60217,1.007558,2.514315,39.649561,-18.096534,15.084814,4.63583E+18,0.595611,-0.320739,0.667105,0.312002,-12.165855,1.774357,-2.484314,-1.146685,-0.166481,0.643887,45.919111,8.348151,6.278246,4.63583E+18,0.430047,0.667018,0.430849,-0.429552,0
-10.00379,1.976753,0.503944,0.025086,-0.200071,-0.091782,46.408015,-4.822225,3.817531,4.63583E+18,0.798439,0.074195,0.597461,0.005507,-13.88554,-13.421751,2.454385,-0.512204,0.864311,2.180254,39.070122,-19.009124,15.39785,4.63583E+18,0.589668,-0.317028,0.671479,0.317649,-12.39501,1.431729,-2.042099,-1.228348,-0.177688,0.70606,46.0641,7.891796,6.39004,4.63583E+18,0.43498,0.665787,0.430775,-0.426559,0
-10.364288,2.002855,0.258676,0.054171,-0.240939,-0.127698,46.388134,-4.785302,3.772088,4.63583E+18,0.799053,0.074035,0.596665,0.004959,-13.488516,-14.473573,2.164321,-0.455853,0.722083,1.790072,38.665897,-19.605045,15.441656,4.63583E+18,0.584664,-0.314056,0.675006,0.322342,-12.509565,1.080892,-1.552092,-1.267251,-0.179859,0.787457,46.076306,7.381466,6.313177,4.63583E+18,0.440153,0.664603,0.430525,-0.423339,0
-10.486998,2.042318,0.216891,0.082191,-0.208007,-0.153683,46.575442,-4.907052,3.847011,4.63583E+18,0.799575,0.073901,0.595987,0.004266,-13.005958,-15.42431,1.994127,-0.39491,0.572419,1.359674,38.459081,-20.045221,15.438754,4.63583E+18,0.580706,-0.311928,0.67765,0.325994,-12.68369,1.157753,-1.262534,-1.287623,-0.189942,0.882241,46.127482,6.917585,6.258103,4.63583E+18,0.445551,0.663507,0.430012,-0.419919,0
-10.666944,2.088305,0.02306,0.100129,-0.147444,-0.175543,46.688473,-4.943998,3.794824,4.63583E+18,0.799941,0.073771,0.595517,0.003477,-12.512676,-16.429577,1.884264,-0.26914,0.414714,0.90485,38.262354,-20.524175,15.605356,4.63583E+18,0.577958,-0.310556,0.679473,0.328385,-12.701075,0.851035,-1.178742,-1.263425,-0.200546,0.983914,46.186173,6.520523,6.400286,4.63583E+18,0.451059,0.662591,0.429138,-0.416365,0
-11.055215,2.155859,-0.242636,0.11754,-0.239218,-0.197724,46.64934,-4.887813,3.837638,4.63583E+18,0.800528,0.073645,0.594748,0.002542,-11.854275,-17.410459,1.706241,-0.041532,0.27184,0.442756,37.966516,-20.850944,15.703007,4.63583E+18,0.576534,-0.309745,0.680657,0.3292,-12.623532,0.371787,-1.434376,-1.205294,-0.219677,1.090628,46.198379,6.136367,6.556634,4.63583E+18,0.456606,0.661911,0.427812,-0.412749,0
-11.279313,2.313394,0.003862,0.126686,-0.316379,-0.216059,46.566726,-4.805198,3.93246,4.63583E+18,0.801301,0.073504,0.593726,0.001501,-11.127561,-18.002286,1.353671,0.230096,0.156663,-0.004239,37.765419,-20.889756,15.858069,4.63583E+18,0.576399,-0.30939,0.681358,0.328318,-12.604682,0.267123,-1.693599,-1.16959,-0.238024,1.197537,46.243979,5.66692,6.532933,4.63583E+18,0.462249,0.661427,0.426075,-0.409023,0
-11.363085,2.487129,0.294309,0.0995,-0.32678,-0.223316,46.603013,-4.598016,3.655542,4.63583E+18,0.802107,0.073257,0.59267,0.000498,-10.501367,-18.054108,1.046999,0.470186,0.064548,-0.420245,37.743094,-20.787816,16.093641,4.63583E+18,0.577401,-0.309513,0.681628,0.325874,-12.648122,-0.110564,-1.894827,-1.124181,-0.272548,1.295974,46.362814,5.235375,6.344267,4.63583E+18,0.467973,0.661113,0.423901,-0.405263,0
-11.405392,2.620572,0.157372,0.060477,-0.309398,-0.223492,46.676256,-4.419423,3.255552,4.63583E+18,0.802879,0.07288,0.591671,-0.000407,-10.084845,-17.746822,0.966521,0.648124,-0.004879,-0.812148,37.926871,-20.541632,16.101644,4.63583E+18,0.579354,-0.310222,0.681458,0.322066,-12.680087,-0.069012,-2.042955,-1.070633,-0.328183,1.389587,46.49368,4.818023,6.243547,4.63583E+18,0.473781,0.660939,0.421248,-0.401547,0
-11.442014,2.592823,-0.08962,0.034884,-0.315074,-0.21423,46.693317,-4.448006,3.09617,4.63583E+18,0.80367,0.072439,0.590648,-0.001217,-9.844294,-17.451639,1.044029,0.776878,-0.057724,-1.189701,38.142327,-20.067787,16.008854,4.63583E+18,0.582114,-0.311613,0.680827,0.317041,-12.585667,0.246142,-1.906349,-1.060496,-0.37779,1.474225,46.552393,4.242864,6.166732,4.63583E+18,0.479763,0.660814,0.418223,-0.397796,0
-11.525438,2.304273,-0.258829,0.016802,-0.323223,-0.193472,46.637146,-4.336846,3.141797,4.63583E+18,0.804485,0.071989,0.589591,-0.001916,-9.637442,-17.08206,1.176182,0.869631,-0.092735,-1.535685,38.310339,-19.435188,16.278032,4.63583E+18,0.585525,-0.313701,0.679754,0.310945,-12.562657,0.129799,-1.934649,-1.070676,-0.437645,1.536255,46.603542,3.468115,5.989195,4.63583E+18,0.485951,0.660636,0.414899,-0.394043,0
-11.463955,1.950278,-0.339783,0.03739,-0.309973,-0.167517,46.676239,-4.175313,3.086829,4.63583E+18,0.80526,0.071673,0.588569,-0.002577,-9.3655,-16.318004,1.306095,0.936181,-0.113207,-1.831263,38.601746,-18.687015,16.639368,4.63583E+18,0.589426,-0.316417,0.678288,0.303946,-12.705891,0.298988,-2.098591,-1.099189,-0.52009,1.593647,46.701196,2.613653,5.818302,4.63583E+18,0.492422,0.660321,0.411269,-0.390326,0
-11.428977,1.624376,-0.485053,0.09564,-0.294024,-0.138359,46.627797,-4.138309,2.839421,4.63583E+18,0.805976,0.071625,0.58759,-0.003277,-8.841938,-15.20645,1.323631,0.950863,-0.109375,-2.073902,39.04412,-17.879969,16.638788,4.63583E+18,0.593594,-0.319762,0.676474,0.296279,-12.749942,0.235673,-2.17863,-1.175946,-0.586168,1.653071,46.793292,1.831446,5.641836,4.63583E+18,0.499279,0.659795,0.407435,-0.386508,0
-11.594601,1.409947,-0.833783,0.147941,-0.339674,-0.108451,46.664023,-4.147669,2.546451,4.63583E+18,0.806787,0.071824,0.586447,-0.004018,-8.905066,-9.955274,-1.044171,0.779289,0.017999,-2.137269,39.380979,-16.955824,16.545967,4.63583E+18,0.597198,-0.323838,0.674619,0.288743,-12.727986,-0.387953,-2.447469,-1.252311,-0.621497,1.705882,46.845367,1.202403,5.458735,4.63583E+18,0.50645,0.659089,0.403472,-0.382517,0
-12.113784,1.432738,-0.572143,0.209105,-0.519216,-0.045791,46.68111,-4.150517,2.478103,4.63583E+18,0.808016,0.072379,0.584679,-0.004751,-10.142833,8.214106,-7.681551,0.454648,0.205233,-1.342689,39.549072,-16.258926,16.757727,4.63583E+18,0.598845,-0.326693,0.673868,0.283826,-12.903492,-0.953796,-2.551081,-1.299104,-0.642455,1.748985,46.824209,0.508521,5.24227,4.63583E+18,0.513811,0.658268,0.399387,-0.378382,0
-13.210871,1.424603,1.810405,0.429044,-0.794529,0.08581,46.746626,-4.150517,2.337715,4.63583E+18,0.809844,0.073989,0.581934,-0.00566,-16.254299,37.450479,-8.231927,0.547662,-0.245407,-0.086191,39.650981,-16.184769,16.931001,4.63583E+18,0.600385,-0.325249,0.6738,0.282391,-13.222103,-1.594409,-2.026715,-1.324313,-0.678629,1.780626,46.802099,-0.347083,5.063768,4.63583E+18,0.521304,0.657328,0.39514,-0.374201,0
-14.427761,0.499043,5.917932,0.861429,-0.867976,0.278722,46.701061,-4.216018,2.004915,4.63583E+18,0.811703,0.077524,0.57886,-0.006988,-29.351552,40.88778,3.46936,0.235401,-1.549169,-0.561528,39.915034,-16.171484,16.698656,4.63583E+18,0.605704,-0.324378,0.66944,0.282402,-13.939689,-2.037549,-1.396826,-1.252201,-0.769473,1.83964,46.887675,-1.083702,4.805953,4.63583E+18,0.528792,0.656438,0.390386,-0.370225,0
-14.906433,-0.716041,6.228316,1.064219,-0.93252,0.374344,46.671753,-4.179823,1.617115,4.63583E+18,0.81363,0.081973,0.575512,-0.008505,-26.307635,4.970194,9.006663,-1.022704,-0.979903,-2.071344,40.30658,-15.697698,16.11275,4.63583E+18,0.609465,-0.331537,0.662944,0.28132,-14.873674,-2.378853,-1.400938,-1.084894,-0.840251,1.946945,47.046361,-1.738508,4.297626,4.63583E+18,0.536053,0.655919,0.384886,-0.366443,0
-13.085302,-0.823204,2.468688,0.993387,-0.704432,0.275807,46.790558,-4.228231,1.31069,4.63583E+18,0.815004,0.085953,0.572956,-0.010108,-11.491642,-7.367648,2.962674,-0.825564,-0.082081,-1.6579,40.411549,-15.136815,15.666485,4.63583E+18,0.610482,-0.338078,0.659474,0.279481,-14.964602,-3.421539,-2.26063,-0.956703,-0.805989,2.04567,47.099428,-2.440978,3.825037,4.63583E+18,0.543006,0.655833,0.378959,-0.362515,0
-10.772194,0.344412,1.578783,0.805454,-0.491592,0.150522,46.827599,-4.435316,1.179656,4.63583E+18,0.815914,0.089002,0.571164,-0.011608,-3.980347,-9.180407,0.861562,-0.353763,-0.087113,-1.616529,40.462345,-14.636329,15.642574,4.63583E+18,0.612096,-0.343281,0.656564,0.276442,-14.417703,-4.382787,-3.262106,-0.89011,-0.723946,2.148637,46.926129,-3.28685,3.642275,4.63583E+18,0.549749,0.656118,0.372798,-0.3582,0
-10.569454,1.965317,4.012088,0.659084,-0.463607,0.049162,46.705978,-4.557813,1.159703,4.63583E+18,0.816796,0.091311,0.569505,-0.013091,-6.519725,-15.852008,-0.986857,-0.520763,-0.083461,-1.772929,40.74439,-14.15735,15.743322,4.63583E+18,0.613609,-0.349324,0.653213,0.273441,-14.229466,-4.724467,-3.562278,-0.802959,-0.676615,2.285265,46.705425,-4.273299,3.539945,4.63583E+18,0.556326,0.656816,0.366202,-0.35354,0
-11.006096,3.160668,4.100246,0.600485,-0.45475,-0.084636,46.603409,-4.577776,0.944509,4.63583E+18,0.817663,0.093102,0.567924,-0.014886,-9.364545,-5.667035,-0.071721,-0.766732,-0.265387,-1.235051,41.10069,-13.755154,15.531093,4.63583E+18,0.614616,-0.354307,0.649867,0.272737,-14.410496,-4.959682,-3.41013,-0.611845,-0.680523,2.453295,46.671187,-5.174363,3.226918,4.63583E+18,0.562571,0.658132,0.358814,-0.348752,0
-10.921649,4.004545,2.961578,0.567199,-0.629193,-0.2086,46.770538,-4.577776,0.729263,4.63583E+18,0.818939,0.094475,0.565793,-0.01709,-9.531978,-0.469184,1.711149,-1.003329,-0.18967,-1.234604,41.29471,-13.467057,15.100092,4.63583E+18,0.615044,-0.359967,0.646421,0.272552,-14.63012,-5.166105,-3.200431,-0.319737,-0.684379,2.65809,46.695503,-6.067736,2.949633,4.63583E+18,0.568248,0.660352,0.350387,-0.343888,0
-10.172333,4.430364,3.730515,0.454117,-0.546099,-0.29827,47.00534,-4.456164,0.524583,4.63583E+18,0.820047,0.095256,0.563983,-0.019301,-10.10523,-3.280161,1.878077,-0.978355,-0.084508,-1.306684,41.393,-13.254691,14.893032,4.63583E+18,0.61528,-0.36586,0.643135,0.271945,-14.959966,-5.019091,-3.056228,0.024805,-0.672152,2.882498,46.568885,-7.079879,2.784297,4.63583E+18,0.5732,0.663639,0.340827,-0.338913,0
-9.774138,4.354849,4.689008,0.314685,-0.362552,-0.354076,46.994053,-4.231977,0.391892,4.63583E+18,0.820768,0.095445,0.562829,-0.021303,-10.478609,-4.905268,1.524506,-0.761847,-0.052232,-1.322998,41.619696,-12.887832,14.893032,4.63583E+18,0.615752,-0.371262,0.640125,0.270656,-15.759343,-4.438693,-3.114152,0.339046,-0.669147,3.090845,46.315813,-8.211885,2.497801,4.63583E+18,0.577479,0.667869,0.330199,-0.333823,0
-9.717093,3.953803,4.368551,0.200153,-0.460956,-0.372672,46.908618,-3.987874,0.291399,4.63583E+18,0.821758,0.095191,0.561353,-0.023141,-10.536438,-4.380508,-0.602219,-0.460359,-0.093593,-1.10453,41.942329,-12.464166,14.860826,4.63583E+18,0.616533,-0.37525,0.637666,0.269178,-16.957954,-4.609464,-3.152719,0.74514,-0.690147,3.205731,46.022851,-9.455958,2.102805,4.63583E+18,0.58071,0.67308,0.318575,-0.329012,0
-8.922059,3.321545,4.922408,0.090879,-0.500074,-0.372465,46.888638,-3.874664,-0.021391,4.63583E+18,0.822878,0.09456,0.559749,-0.024737,-10.196096,-4.225054,-1.808171,-0.01042,-0.131066,-0.963131,42.050927,-12.074191,14.754546,4.63583E+18,0.617947,-0.377656,0.635823,0.266921,-18.198497,-6.199171,-3.228516,1.335576,-0.686885,3.177001,45.735446,-10.719817,1.888787,4.63583E+18,0.582123,0.679548,0.306165,-0.324978,0
-7.753449,2.563081,5.747306,0.04797,-0.281936,-0.359439,46.944758,-3.792064,-0.334355,4.63583E+18,0.823502,0.093834,0.55889,-0.026103,-10.612663,-5.814775,-1.964706,0.554759,-0.17223,-1.017111,42.038721,-11.694525,14.73916,4.63583E+18,0.620406,-0.378697,0.634405,0.263088,-18.78493,-7.720978,-3.049174,1.598087,-0.59392,3.030629,45.488008,-11.89838,1.911076,4.63583E+18,0.582352,0.686448,0.293974,-0.321301,0
-7.115576,1.90352,5.250143,0.013269,-0.099574,-0.331964,47.027341,-3.650519,-0.262573,4.63583E+18,0.823716,0.093073,0.558648,-0.027222,-10.241798,-3.366935,-2.401283,0.875811,-0.178023,-0.875572,42.072996,-11.194081,14.893646,4.63583E+18,0.623216,-0.378517,0.633532,0.258773,-18.39399,-7.027061,-2.452466,1.402536,-0.509688,2.891049,45.31382,-12.964693,1.899838,4.63583E+18,0.582736,0.69268,0.282591,-0.317419,0
-6.782604,1.32768,4.938787,-0.030096,-0.030539,-0.281348,47.103442,-3.547928,-0.15427,4.63583E+18,0.823791,0.092288,0.558628,-0.02804,-9.441046,-2.899826,-1.8958,0.976594,-0.200759,-0.775647,42.198026,-10.740089,14.925473,4.63583E+18,0.626119,-0.377778,0.632849,0.254482,-17.08748,-5.844087,-2.719219,1.123022,-0.469772,2.809494,45.140683,-13.90455,1.690084,4.63583E+18,0.583671,0.698071,0.271861,-0.313236,0
-6.330631,0.868998,4.823206,-0.012767,0.019803,-0.222279,47.120575,-3.462474,-0.209099,4.63583E+18,0.823747,0.091707,0.558756,-0.028676,-9.109356,-2.749583,-0.552843,0.825026,-0.177956,-0.688891,42.271271,-10.426877,14.881431,4.63583E+18,0.628617,-0.37722,0.632186,0.250773,-14.755775,-6.445802,-3.270518,0.981239,-0.398297,2.811294,44.821026,-14.955502,1.478162,4.63583E+18,0.584847,0.7031,0.261441,-0.308629,0
-6.007844,0.731662,4.142933,0.034184,0.017316,-0.164923,47.06447,-3.37703,-0.082323,4.63583E+18,0.823698,0.09142,0.558847,-0.029226,-8.89683,-0.559683,-0.196804,0.419668,-0.127837,-0.618222,42.369529,-10.179164,14.970454,4.63583E+18,0.630261,-0.377584,0.631332,0.248235,-11.973743,-6.293117,-4.001008,1.118417,-0.354045,2.909365,44.342723,-16.067386,1.45271,4.63583E+18,0.585604,0.708513,0.250623,-0.303753,0
-5.851498,0.804394,3.578312,0.077022,-0.033001,-0.117313,46.981877,-3.291581,-0.045973,4.63583E+18,0.823755,0.091386,0.558742,-0.029731,-9.126973,-0.120886,-0.199488,0.083444,-0.093007,-0.611788,42.528212,-9.92283,14.982353,4.63583E+18,0.631273,-0.378848,0.630227,0.246542,-10.499493,-3.320823,-5.539089,1.28741,-0.405231,2.990823,43.889998,-17.059437,1.581432,4.63583E+18,0.585913,0.714231,0.23918,-0.298952,0
-5.879036,0.895559,3.373395,0.108611,-0.187727,-0.074905,46.96188,-3.337039,-0.263897,4.63583E+18,0.824164,0.091539,0.558086,-0.030223,-9.540536,-0.629136,-0.329304,-0.089021,-0.041345,-0.61382,42.68691,-9.691486,14.815618,4.63583E+18,0.631874,-0.380621,0.629073,0.245213,-11.974828,1.568898,-7.567853,1.288865,-0.493205,2.882495,43.518225,-18.006064,1.575841,4.63583E+18,0.586064,0.719606,0.2278,-0.294623,8
-5.961623,0.952954,3.513122,0.124359,-0.309257,-0.036524,47.017979,-3.300938,-0.553991,4.63583E+18,0.824854,0.091821,0.556996,-0.030667,-9.922818,-1.654772,-0.586825,-0.095723,-0.007425,-0.598712,42.774151,-9.524166,14.771548,4.63583E+18,0.632357,-0.382404,0.628022,0.243886,-12.495688,0.668375,-8.077794,1.435234,-0.396738,2.368883,43.184217,-18.912682,1.544803,4.63583E+18,0.584963,0.724856,0.21798,-0.291352,8
-6.093819,0.805447,3.704801,0.140199,-0.320991,-0.00323,47.035126,-3.152901,-0.557133,4.63583E+18,0.825567,0.092235,0.555849,-0.03104,-10.024113,-2.587631,-0.986627,0.02162,-0.004323,-0.567115,42.685139,-9.361921,14.831995,4.63583E+18,0.632982,-0.383796,0.627145,0.242329,-10.612638,-6.048372,-6.476538,1.370125,-0.2045,1.691053,42.864621,-19.640621,1.750108,4.63583E+18,0.582997,0.729486,0.210731,-0.289062,8
-6.445992,0.672715,3.635481,0.162197,-0.345054,0.023906,46.96968,-3.178333,-0.378188,4.63583E+18,0.826329,0.092783,0.554606,-0.031378,-9.797801,-2.73803,-1.345479,0.170679,-0.010238,-0.534312,42.641044,-9.169573,14.803423,4.63583E+18,0.633824,-0.384701,0.626452,0.240477,-10.163226,-8.808205,-4.250289,0.73894,-0.220139,1.143096,42.598285,-20.157767,1.877718,4.63583E+18,0.58227,0.732041,0.205857,-0.287579,8
-6.758176,0.572207,3.694666,0.175879,-0.339652,0.043814,46.949673,-3.329214,-0.544608,4.63583E+18,0.827073,0.093424,0.553371,-0.031675,-9.686119,-2.700241,-1.372622,0.317817,-0.012375,-0.506331,42.744349,-8.896866,14.730765,4.63583E+18,0.634876,-0.38514,0.625943,0.238317,-10.147689,-8.737182,-1.622515,0.101485,-0.302382,0.634588,42.446254,-20.55504,1.753431,4.63583E+18,0.582936,0.732498,0.203095,-0.287027,8
-6.954808,0.558681,3.788693,0.196375,-0.314132,0.044795,46.949673,-3.434678,-1.049718,4.63583E+18,0.827748,0.094141,0.552219,-0.032006,-9.71859,-2.512998,-1.187112,0.461671,-0.012012,-0.487549,42.847984,-8.583648,14.750689,4.63583E+18,0.636134,-0.385148,0.625603,0.235829,-9.517421,-8.511884,-0.599275,-0.298378,-0.314816,0.159289,42.359688,-20.767005,1.704589,4.63583E+18,0.584261,0.731563,0.202229,-0.287328,8
-7.116364,0.711106,3.715232,0.227236,-0.280635,0.033161,47.005761,-3.398608,-1.258901,4.63583E+18,0.828331,0.094943,0.551182,-0.032436,-9.692678,-2.303053,-1.2174,0.589144,-0.010601,-0.476001,42.844414,-8.36092,14.819788,4.63583E+18,0.637576,-0.384785,0.625405,0.233035,-8.701713,-8.484157,-0.791222,-0.521339,-0.275683,-0.243118,42.426262,-20.702668,1.663554,4.63583E+18,0.585748,0.72979,0.202952,-0.2883,8
-7.153538,1.102646,3.546452,0.254618,-0.259294,0.004558,47.022919,-3.372105,-1.141594,4.63583E+18,0.828847,0.095777,0.550226,-0.033019,-9.696248,-2.069751,-1.573123,0.710789,-0.023468,-0.487176,42.832208,-8.143617,14.873332,4.63583E+18,0.63925,-0.384112,0.625266,0.229913,-8.184564,-8.294412,-1.39819,-0.584188,-0.294117,-0.567729,42.644856,-20.425251,1.461587,4.63583E+18,0.587046,0.727559,0.20469,-0.290065,8
-7.237632,1.629003,3.251243,0.244276,-0.280632,-0.05553,47.022919,-3.378587,-1.238823,4.63583E+18,0.829407,0.096434,0.54922,-0.033793,-9.658494,-1.526101,-2.131615,0.784974,-0.042562,-0.50369,42.848551,-7.860437,15.002898,4.63583E+18,0.641098,-0.383261,0.625112,0.22658,-7.799499,-7.838407,-1.975314,-0.499918,-0.41499,-0.831163,42.877918,-20.107879,1.305105,4.63583E+18,0.587864,0.725151,0.206825,-0.292907,8
-7.319472,2.056892,3.015067,0.201653,-0.335006,-0.136978,46.957506,-3.250627,-1.440635,4.63583E+18,0.830094,0.096751,0.548064,-0.034775,-9.521209,-1.175479,-2.62779,0.805696,-0.069546,-0.529605,42.905455,-7.689533,14.970781,4.63583E+18,0.643064,-0.38239,0.624855,0.223164,-7.554181,-6.721067,-1.893374,-0.386789,-0.577446,-1.098383,42.985584,-19.790486,1.156414,4.63583E+18,0.58814,0.722575,0.209227,-0.296985,8
-7.131086,2.260628,2.929024,0.142711,-0.385258,-0.20362,46.872058,-3.089078,-1.489303,4.63583E+18,0.830907,0.096705,0.546768,-0.035873,-9.414351,-1.134164,-2.736902,0.790529,-0.103577,-0.568188,42.918225,-7.497226,14.893032,4.63583E+18,0.64512,-0.381623,0.624421,0.219734,-7.657285,-5.308305,-1.287499,-0.259017,-0.697482,-1.435102,43.113165,-19.401017,0.828012,4.63583E+18,0.587698,0.719843,0.212183,-0.302351,8
-6.815814,2.407113,2.908226,0.048875,-0.433073,-0.270225,46.973479,-3.051851,-1.564051,4.63583E+18,0.831853,0.096175,0.545345,-0.037007,-9.273504,-1.016782,-2.56395,0.729191,-0.12111,-0.604502,43.012864,-7.174622,14.946539,4.63583E+18,0.647146,-0.381092,0.623816,0.21639,-8.036766,-4.448098,-0.778052,-0.123846,-0.74032,-1.824946,43.353946,-18.819609,0.378561,4.63583E+18,0.586363,0.717003,0.216021,-0.308902,8
-6.598335,2.562945,2.849301,-0.0531,-0.449255,-0.345945,47.132176,-3.051851,-1.736457,4.63583E+18,0.832861,0.095116,0.54391,-0.038175,-9.236483,-1.036122,-2.224463,0.662454,-0.136195,-0.643003,43.184314,-6.665495,15.104677,4.63583E+18,0.649129,-0.380823,0.62304,0.213137,-8.431874,-4.258104,-0.465087,-0.012367,-0.749449,-2.207159,43.673532,-18.072766,0.064434,4.63583E+18,0.584165,0.714021,0.220817,-0.316489,8
-6.415241,2.590835,2.635929,-0.183175,-0.425417,-0.408381,47.10401,-2.930401,-2.081235,4.63583E+18,0.833851,0.093467,0.5426,-0.039256,-9.381997,-1.022822,-1.568885,0.617944,-0.147764,-0.687105,43.348488,-6.214954,15.113186,4.63583E+18,0.651101,-0.380772,0.622113,0.209895,-8.546352,-4.435661,-0.377259,0.157507,-0.705116,-2.553527,44.072998,-17.207254,-0.104271,4.63583E+18,0.5809,0.711115,0.226503,-0.32491,8
-6.456332,2.578629,2.416968,-0.320383,-0.440531,-0.477496,47.018567,-2.706338,-2.406439,4.63583E+18,0.834911,0.091183,0.541283,-0.040274,-9.581846,-0.959854,-1.082348,0.54698,-0.155685,-0.731343,43.319963,-5.881788,14.937751,4.63583E+18,0.653009,-0.381016,0.621023,0.206726,-8.37658,-4.412536,-0.735506,0.397344,-0.59336,-2.867453,44.512436,-16.188618,-0.231881,4.63583E+18,0.576315,0.708547,0.233034,-0.333941,8
-6.510153,2.35159,2.414939,-0.431766,-0.512937,-0.528062,46.989161,-2.52758,-2.702275,4.63583E+18,0.836159,0.088385,0.539746,-0.041244,-9.654002,-1.148152,-0.924083,0.459643,-0.16147,-0.77282,43.222309,-5.518602,14.893574,4.63583E+18,0.65482,-0.381594,0.619768,0.203677,-8.320966,-3.834666,-1.416819,0.583636,-0.485177,-3.147912,44.918641,-15.123212,-0.360619,4.63583E+18,0.570588,0.706187,0.240355,-0.343451,8
-6.341284,1.862462,2.447954,-0.514944,-0.529737,-0.538347,46.986294,-2.368884,-2.705697,4.63583E+18,0.837462,0.085269,0.538161,-0.042067,-9.623,-1.519483,-0.597472,0.425339,-0.166679,-0.812525,43.199534,-5.153441,15.007565,4.63583E+18,0.656613,-0.382359,0.618397,0.200613,-8.468505,-2.886962,-2.125995,0.674659,-0.411647,-3.401148,45.246044,-14.064589,-0.482686,4.63583E+18,0.564045,0.703755,0.248417,-0.353371,8
-6.128024,1.322469,2.463029,-0.555073,-0.483782,-0.514645,46.930252,-2.07942,-2.694969,4.63583E+18,0.838668,0.082074,0.536727,-0.042701,-9.66021,-1.748647,-0.315315,0.408323,-0.173847,-0.856517,43.358291,-4.880629,15.108611,4.63583E+18,0.658425,-0.383271,0.616913,0.19748,-8.554095,-2.214187,-2.598901,0.702933,-0.363007,-3.643516,45.488003,-12.788655,-0.527166,4.63583E+18,0.556884,0.70105,0.257206,-0.363667,8
-6.069946,0.804024,2.531279,-0.579009,-0.439745,-0.463236,46.969093,-1.749821,-2.856625,4.63583E+18,0.839782,0.078918,0.535427,-0.04309,-9.768571,-1.671839,-0.309331,0.37626,-0.184316,-0.902575,43.491983,-4.542421,14.9824,4.63583E+18,0.660238,-0.384375,0.61529,0.194318,-8.487516,-1.98097,-2.869711,0.733398,-0.298348,-3.876175,45.755366,-11.155262,-0.389666,4.63583E+18,0.549069,0.698085,0.266713,-0.374252,8
-6.05774,0.3007,2.420596,-0.57447,-0.409216,-0.389218,47.107708,-1.616378,-3.054792,4.63583E+18,0.840829,0.075948,0.534201,-0.043219,-9.938553,-1.632798,-0.41056,0.325432,-0.210546,-0.946681,43.586649,-4.184261,14.783511,4.63583E+18,0.662061,-0.385704,0.613473,0.191203,-8.580512,-1.935436,-3.097222,0.793787,-0.224355,-4.119397,46.14261,-9.453949,-0.27852,4.63583E+18,0.540458,0.694901,0.276924,-0.385138,8
-6.064211,-0.199789,2.333748,-0.540407,-0.375725,-0.302823,47.079619,-1.533797,-3.175393,4.63583E+18,0.841797,0.073295,0.533054,-0.04311,-10.127077,-1.734603,-0.509717,0.287463,-0.243638,-0.995604,43.686726,-3.760572,14.636677,4.63583E+18,0.663934,-0.387229,0.611444,0.188099,-9.078467,-1.790259,-3.221628,0.828012,-0.15774,-4.358958,46.497816,-7.91808,-0.449236,4.63583E+18,0.531111,0.691398,0.287834,-0.396285,8
-6.16047,-0.653598,2.254033,-0.490828,-0.366626,-0.205177,46.807385,-1.326937,-3.282391,4.63583E+18,0.84274,0.071035,0.531896,-0.042767,-10.158632,-1.741283,-0.668643,0.284883,-0.257031,-1.054352,43.674519,-3.34552,14.633107,4.63583E+18,0.665869,-0.388893,0.609268,0.184858,-9.872982,-1.43521,-3.168477,0.806287,-0.103544,-4.571051,46.688811,-6.21824,-0.772169,4.63583E+18,0.52122,0.687435,0.299407,-0.407576,8
-6.217164,-0.952932,2.168597,-0.43278,-0.34595,-0.103156,46.729939,-1.204212,-3.522953,4.63583E+18,0.843633,0.069209,0.530767,-0.042191,-10.196752,-1.536281,-0.995586,0.289125,-0.26883,-1.114036,43.662313,-2.905495,14.620899,4.63583E+18,0.667872,-0.390679,0.606953,0.181455,-10.699755,-1.058959,-3.038615,0.769865,-0.060138,-4.764383,46.786464,-4.2984,-0.968797,4.63583E+18,0.510848,0.682957,0.311573,-0.418959,8
-6.365834,-1.171947,1.915072,-0.369694,-0.306174,-0.019401,46.851325,-1.314839,-3.81307,4.63583E+18,0.84443,0.067796,0.529739,-0.041446,-10.223232,-1.848212,-1.134723,0.303091,-0.282796,-1.168801,43.696498,-2.405034,14.580144,4.63583E+18,0.669956,-0.392543,0.604505,0.177882,-11.504263,-0.67953,-2.884444,0.726002,-0.015091,-4.942573,46.895195,-2.496129,-0.87802,4.63583E+18,0.500017,0.677946,0.324287,-0.43036,8
-6.539613,-1.211403,2.011394,-0.322761,-0.209271,0.072465,46.888638,-1.355022,-3.881954,4.63583E+18,0.845013,0.066767,0.529017,-0.040455,-10.337798,-2.113753,-1.117075,0.308251,-0.288269,-1.205562,43.796595,-1.904531,14.502395,4.63583E+18,0.672072,-0.394472,0.601969,0.174198,-12.266769,-0.334226,-2.676918,0.680528,0.028713,-5.101064,46.900951,-0.609846,-0.761268,4.63583E+18,0.488748,0.672402,0.337476,-0.441714,8
-6.775856,-1.087159,2.231107,-0.258232,-0.065831,0.126926,46.944655,-1.299003,-3.956646,4.63583E+18,0.845268,0.06611,0.528773,-0.039375,-10.524845,-2.044442,-1.324205,0.321626,-0.289912,-1.245179,43.762982,-1.450443,14.470285,4.63583E+18,0.674223,-0.396449,0.599355,0.170368,-12.896093,-0.163219,-2.458327,0.6893,0.076757,-5.232468,46.838675,1.390024,-0.836657,4.63583E+18,0.476913,0.666461,0.350956,-0.453005,8
-7.284279,-0.695065,1.545232,-0.213626,-0.095261,0.170216,46.96188,-1.281777,-4.119655,4.63583E+18,0.845581,0.065702,0.528405,-0.038251,-10.684217,-2.49826,-1.631813,0.379372,-0.290272,-1.291318,43.745296,-1.087285,14.306942,4.63583E+18,0.676481,-0.398367,0.596687,0.166259,-13.456466,0.139321,-2.231939,0.736593,0.138122,-5.344616,46.824326,3.264303,-0.96426,4.63583E+18,0.46441,0.660236,0.364605,-0.464192,8
-7.954195,-0.175216,1.411749,-0.18058,-0.193774,0.16173,46.96188,-1.337787,-4.088045,4.63583E+18,0.8461,0.065376,0.527687,-0.037257,-11.115065,-3.069282,-1.680906,0.488701,-0.296993,-1.326389,43.89536,-0.647246,14.010383,4.63583E+18,0.678939,-0.400046,0.593996,0.161784,-13.996934,0.660913,-1.951332,0.78232,0.195708,-5.432055,46.552922,5.303454,-0.965659,4.63583E+18,0.451285,0.653738,0.37833,-0.475221,8
-8.351289,0.147198,1.645836,-0.172223,-0.302031,0.151866,46.896539,-1.485707,-4.065065,4.63583E+18,0.84685,0.065039,0.526587,-0.036344,-11.518837,-3.608814,-1.365049,0.626888,-0.306342,-1.364047,44.046913,-0.075471,13.847851,4.63583E+18,0.681648,-0.401406,0.591287,0.156871,-14.425441,0.933298,-1.553062,0.878332,0.237872,-5.463092,46.100003,7.416598,-0.845722,4.63583E+18,0.437531,0.647109,0.391828,-0.486094,8
-8.329773,0.394196,1.793038,-0.183405,-0.292804,0.177559,46.941763,-1.656595,-4.279736,4.63583E+18,0.847585,0.06472,0.525514,-0.035311,-11.936068,-4.430742,-0.98402,0.765821,-0.317732,-1.400654,44.138406,0.672746,13.945386,4.63583E+18,0.684613,-0.402436,0.58855,0.151523,-14.839185,1.000852,-1.15122,1.084441,0.270685,-5.443621,45.733796,9.364163,-0.816758,4.63583E+18,0.422973,0.640608,0.404706,-0.496919,8
-8.562394,0.741037,1.846906,-0.182842,-0.129259,0.160538,46.896542,-1.696829,-4.336501,4.63583E+18,0.847956,0.06439,0.525022,-0.034296,-12.456207,-4.088561,-0.843105,0.862197,-0.319329,-1.406714,44.122632,1.379686,13.721417,4.63583E+18,0.687714,-0.403187,0.585831,0.145917,-15.345183,1.378609,-0.89798,1.359404,0.30361,-5.394219,45.290128,11.410133,-0.885441,4.63583E+18,0.407501,0.634398,0.416722,-0.507765,8
-9.128184,1.044774,1.631521,-0.193835,-0.05448,0.132328,46.820428,-1.696829,-4.25896,4.63583E+18,0.848162,0.06397,0.524802,-0.033337,-12.735555,-3.61619,-1.268492,0.936452,-0.332127,-1.418321,44.126736,1.9656,13.338588,4.63583E+18,0.690943,-0.403725,0.583072,0.140111,-15.846832,2.348854,-0.900905,1.599272,0.31986,-5.329659,44.686589,13.472397,-0.957711,4.63583E+18,0.391282,0.628398,0.427863,-0.518601,8
-9.286959,1.082878,1.021288,-0.266198,-0.152083,0.170952,46.859178,-1.752821,-4.385282,4.63583E+18,0.848604,0.063365,0.524237,-0.03211,-13.123486,-4.314951,-1.047727,1.074463,-0.373182,-1.407813,44.196408,2.547913,13.347837,4.63583E+18,0.69446,-0.403794,0.580261,0.134062,-16.329563,3.635109,-1.249997,1.751042,0.321413,-5.253257,43.964288,15.334643,-1.014183,4.63583E+18,0.374618,0.622448,0.438248,-0.5293,8
-9.691146,1.410233,0.873184,-0.269366,-0.012482,0.134159,46.8111,-1.835403,-4.496617,4.63583E+18,0.848735,0.062687,0.524175,-0.030969,-13.283793,-4.420237,-0.723712,1.242786,-0.377602,-1.390908,44.207551,3.175173,13.477419,4.63583E+18,0.698219,-0.40331,0.577525,0.127653,-16.772454,4.856991,-1.970856,1.834618,0.318223,-5.163747,43.200756,17.116924,-1.168314,4.63583E+18,0.357742,0.616455,0.447979,-0.539739,8
-10.150707,1.467058,0.496319,-0.267099,0.053654,0.131629,46.800309,-1.855525,-4.376758,4.63583E+18,0.84872,0.06202,0.524346,-0.029825,-13.597078,-3.518233,-0.524918,1.344493,-0.415742,-1.404535,44.151147,3.907059,13.212879,4.63583E+18,0.702202,-0.402515,0.574672,0.121016,-17.175298,6.242583,-2.876486,1.848041,0.305705,-5.042239,42.399632,18.893671,-1.453304,4.63583E+18,0.340944,0.610364,0.457119,-0.549778,8
-10.47818,1.797954,0.882342,-0.303216,0.011138,0.120141,46.989819,-1.790203,-4.258975,4.63583E+18,0.848803,0.061195,0.524374,-0.028655,-13.79489,-3.288295,-0.393097,1.345678,-0.465906,-1.449578,44.195881,4.578409,12.813632,4.63583E+18,0.706281,-0.401772,0.571557,0.11432,-17.528329,8.140418,-3.650255,1.769026,0.285811,-4.870438,41.550691,20.669181,-1.792985,4.63583E+18,0.324612,0.604146,0.465752,-0.559205,8
-10.901802,2.249628,1.560205,-0.336898,0.107843,0.064735,47.168644,-1.770074,-4.385276,4.63583E+18,0.848674,0.060143,0.524761,-0.027584,-13.95871,-2.931775,0.176118,1.302604,-0.554874,-1.514554,44.150094,5.296103,12.558377,4.63583E+18,0.710478,-0.401239,0.56801,0.107675,-17.660873,10.370862,-4.252922,1.655767,0.267538,-4.631134,40.675296,22.268727,-2.04168,4.63583E+18,0.309013,0.597927,0.473814,-0.567886,8
-11.160367,2.402682,1.49731,-0.353741,0.191049,-0.000667,47.075401,-1.770074,-4.356643,4.63583E+18,0.848359,0.058897,0.525459,-0.026686,-14.252153,-2.815854,0.820448,1.287606,-0.66119,-1.569023,44.048881,6.079839,12.578196,4.63583E+18,0.714871,-0.400801,0.564006,0.101074,-17.428381,12.656663,-4.835434,1.604842,0.270407,-4.297246,39.765283,23.686863,-2.19275,4.63583E+18,0.294203,0.592072,0.480982,-0.575806,8
-11.467612,2.566332,1.195038,-0.36819,0.228193,-0.08051,46.97915,-1.770074,-4.258995,4.63583E+18,0.847953,0.057429,0.526308,-0.02603,-14.437806,-2.541132,0.76956,1.268559,-0.768402,-1.612504,43.971066,6.701371,12.329459,4.63583E+18,0.719444,-0.400444,0.559557,0.094559,-16.983378,15.370137,-5.435895,1.60591,0.285279,-3.874558,38.928297,25.046679,-2.373375,4.63583E+18,0.280276,0.586901,0.486959,-0.582978,8
-11.464245,2.631042,0.759259,-0.445996,0.186016,-0.165707,46.96188,-1.835375,-4.310599,4.63583E+18,0.847646,0.055493,0.527035,-0.025512,-14.601074,-1.20703,0.201437,1.244126,-0.877927,-1.681797,43.988867,7.276614,11.768456,4.63583E+18,0.724197,-0.400244,0.554606,0.088068,-16.526203,18.725002,-6.098088,1.55375,0.297795,-3.378108,38.210198,26.141292,-2.654127,4.63583E+18,0.267579,0.582546,0.49173,-0.589274,8
-11.298439,2.646126,0.292584,-0.469733,0.214156,-0.25196,46.896596,-1.79024,-4.259016,4.63583E+18,0.847269,0.053286,0.527882,-0.02524,-14.521724,-0.399283,-0.449144,1.197704,-0.978605,-1.772772,44.000057,8.104729,11.292853,4.63583E+18,0.72907,-0.400321,0.549132,0.081569,-15.924109,22.519732,-7.143588,1.390397,0.322525,-2.819671,37.583063,26.958414,-2.934882,4.63583E+18,0.256543,0.579092,0.495472,-0.594429,8
-11.4884,2.770257,-0.255257,-0.357362,0.326265,-0.302574,46.941717,-1.583534,-4.030776,4.63583E+18,0.84661,0.051376,0.52912,-0.025369,-14.709889,-0.33368,-0.90078,1.174293,-1.1207,-1.875794,43.890199,9.080732,10.852917,4.63583E+18,0.734191,-0.400617,0.54299,0.07504,-14.945069,26.397064,-8.782678,1.11234,0.365993,-2.210211,37.009384,27.647475,-3.171394,4.63583E+18,0.247561,0.576624,0.498407,-0.598171,8
-11.961437,2.975574,-0.754359,-0.276882,0.282502,-0.335564,46.96188,-1.264792,-3.68762,4.63583E+18,0.846022,0.049688,0.5302,-0.025826,-15.399079,0.310176,-1.537564,1.224672,-1.292805,-2.02226,43.83373,9.950009,10.352414,4.63583E+18,0.739746,-0.400989,0.536031,0.068227,-13.745303,30.242124,-10.719256,0.693509,0.409725,-1.56421,36.507505,28.271426,-3.315807,4.63583E+18,0.241084,0.575128,0.500839,-0.600222,8
-12.551622,2.952829,-0.838748,-0.314989,0.095541,-0.355932,46.905926,-1.062882,-3.601184,4.63583E+18,0.845848,0.0478,0.530626,-0.02631,-16.442239,1.865597,-2.791277,1.280663,-1.480792,-2.233698,43.899853,10.756673,9.880404,4.63583E+18,0.745771,-0.401552,0.52808,0.060942,-12.673983,33.923223,-12.39821,0.151093,0.449996,-0.903104,36.20853,28.670369,-3.280784,4.63583E+18,0.237468,0.574547,0.503065,-0.600359,8
-12.947497,2.556743,-0.988643,-0.36703,0.01059,-0.360782,46.944591,-0.960141,-3.750398,4.63583E+18,0.84587,0.045678,0.53076,-0.026663,-17.732554,2.867599,-4.180907,1.318436,-1.663166,-2.485799,43.831252,11.751966,9.335259,4.63583E+18,0.752198,-0.402438,0.519062,0.053085,-11.809155,36.951846,-13.70133,-0.420979,0.534539,-0.219485,36.127236,28.791736,-3.002555,4.63583E+18,0.23675,0.575036,0.505163,-0.598409,8
-13.547484,2.021868,-1.363995,-0.329169,0.102805,-0.369193,47.0831,-0.753475,-3.815152,4.63583E+18,0.845675,0.043699,0.531213,-0.027141,-18.982307,3.589861,-5.027219,1.413851,-1.830376,-2.775703,43.502145,12.890319,8.44056,4.63583E+18,0.759055,-0.403532,0.508947,0.044382,-10.732918,38.837686,-14.438815,-0.914171,0.649449,0.47934,36.216823,28.71873,-2.58546,4.63583E+18,0.238711,0.576786,0.50692,-0.594447,8
-14.995525,1.687036,-1.772556,-0.360535,0.093797,-0.337452,46.999373,-0.630559,-3.746331,4.63583E+18,0.845506,0.041679,0.53163,-0.027441,-20.271589,4.720277,-6.10045,1.5148,-1.989127,-3.103522,43.326098,14.026551,7.540802,4.63583E+18,0.766289,-0.404872,0.497671,0.034685,-9.670365,39.687388,-14.406364,-1.321581,0.776555,1.179057,36.543641,28.467224,-1.988925,4.63583E+18,0.243105,0.579897,0.508108,-0.588596,8
-16.736197,1.772769,-1.541391,-0.616413,-0.350407,-0.255874,46.831344,-0.619694,-3.79785,4.63583E+18,0.846368,0.038886,0.530493,-0.026961,-21.959962,6.751555,-6.917367,1.557267,-2.136514,-3.445104,43.254001,15.354892,6.646212,4.63583E+18,0.773719,-0.406641,0.485205,0.024047,-7.666418,40.309932,-13.638115,-1.641315,0.883857,1.837573,37.010959,28.083288,-1.27632,4.63583E+18,0.249638,0.584288,0.508552,-0.581088,8
-17.692216,2.359718,-0.647901,-1.017445,-1.063149,-0.118885,46.977465,-0.557307,-4.044703,4.63583E+18,0.848864,0.034915,0.526852,-0.025249,-23.871792,8.71221,-7.41627,1.5835,-2.267726,-3.808355,42.845163,16.785122,5.657652,4.63583E+18,0.781219,-0.408903,0.471531,0.012399,-6.040891,38.4956,-12.212503,-1.73946,0.995058,2.558428,37.476872,27.521377,-0.617163,4.63583E+18,0.257881,0.590286,0.507517,-0.572265,8
-17.309358,2.200618,-0.001944,-1.321481,-1.515544,0.067605,47.091064,-0.602389,-4.402916,4.63583E+18,0.852371,0.030227,0.521588,-0.022275,-25.604167,10.401007,-7.820309,1.648828,-2.333768,-4.188759,42.449777,18.0175,4.493414,4.63583E+18,0.788655,-0.411527,0.456802,-0.000507,-9.997937,28.374705,-10.189257,-1.524214,0.357426,3.43223,38.133252,26.542331,-0.090582,4.63583E+18,0.268971,0.596715,0.503026,-0.564403,8
-16.16961,1.437746,2.005304,-1.10941,-1.627005,0.184447,46.912587,-0.631901,-5.070345,4.63583E+18,0.856045,0.026534,0.515857,-0.01936,-27.265299,11.676296,-7.620981,1.701019,-2.34599,-4.554188,42.26528,19.335123,3.513574,4.63583E+18,0.795829,-0.41448,0.441189,-0.014693,-16.630315,1.739926,7.087802,-1.311382,-1.625238,3.611843,38.957784,25.314976,-0.011686,4.63583E+18,0.284037,0.598933,0.495229,-0.56156,8
-14.666967,0.888,8.992818,-1.380839,-2.196574,0.156391,46.721493,-0.52291,-5.911111,4.63583E+18,0.860891,0.021764,0.508071,-0.016023,-29.250156,13.124795,-5.950903,1.6958,-2.413756,-4.827189,41.628956,21.195898,2.704488,4.63583E+18,0.802679,-0.417736,0.424647,-0.029649,-31.853655,-21.891616,30.079791,-0.384871,-2.021991,3.351657,39.698287,24.088792,-0.418339,4.63583E+18,0.29692,0.600612,0.485303,-0.561768,8
-11.414777,1.871794,18.067498,-2.102804,-1.444559,0.139364,46.737036,-0.367127,-6.488736,4.63583E+18,0.864109,0.014415,0.502974,-0.01115,-31.763706,15.548095,-3.886847,1.513276,-2.585057,-4.922054,40.342122,23.277136,1.625799,4.63583E+18,0.809048,-0.421556,0.407149,-0.044283,-44.253618,-7.066867,18.227774,0.639684,-0.054304,4.116455,40.461289,22.822697,-0.68825,4.63583E+18,0.304966,0.60954,0.473362,-0.558018,8
-8.435103,4.371778,10.944296,-2.081031,0.697389,0.088298,46.819594,-0.26436,-6.389845,4.63583E+18,0.862749,0.007136,0.505542,-0.006378,-34.186036,17.742981,-5.176529,0.773438,-2.780751,-4.850272,39.14371,24.799834,0.477762,4.63583E+18,0.814008,-0.427547,0.389025,-0.057052,-30.52564,12.934284,-4.234506,-0.130563,0.944717,4.551913,41.441919,21.477911,-0.469075,4.63583E+18,0.313907,0.620465,0.463215,-0.54947,8
-6.688564,4.967098,0.927092,-1.801119,0.116601,0.322992,46.774568,-0.300068,-6.323435,4.63583E+18,0.862549,0.00134,0.505971,-0.00137,-36.257552,18.88041,-7.439632,-0.614348,-2.897467,-4.646751,38.065001,26.591291,-0.420223,4.63583E+18,0.816294,-0.437712,0.370987,-0.066643,-10.909686,7.486033,-6.132382,-0.677161,0.944984,4.081819,42.30071,20.086359,-0.141537,4.63583E+18,0.323077,0.629554,0.455376,-0.540292,8
-4.232465,2.875208,6.872238,-1.544683,-0.988309,0.558743,46.689123,-0.391943,-6.61232,4.63583E+18,0.864624,-0.003044,0.502395,0.003939,-38.215469,20.798404,-11.129084,-2.160709,-2.980583,-4.326748,36.906239,28.69394,-0.978391,4.63583E+18,0.815535,-0.452428,0.353478,-0.072565,-1.513194,-0.943017,-3.406788,-0.201811,0.799186,4.121672,42.865708,18.694791,0.188917,4.63583E+18,0.331267,0.638836,0.446025,-0.532177,8
-1.377333,1.329949,9.241267,-1.381414,0.403774,0.781471,46.668903,-0.536207,-6.767102,4.63583E+18,0.863735,-0.006397,0.503812,0.009689,-38.708587,22.501975,-11.740472,-3.449111,-3.128851,-4.420101,35.879351,29.977377,-1.284659,4.63583E+18,0.812019,-0.471414,0.335454,-0.076581,0.691682,-5.567481,-4.692051,0.852154,0.981142,4.010256,43.534146,17.308759,0.618178,4.63583E+18,0.335965,0.649572,0.434748,-0.525527,8
-0.639902,-0.404082,2.76138,-1.172923,1.869147,0.974742,46.799382,-0.816068,-6.265397,4.63583E+18,0.859702,-0.008735,0.510477,0.015795,-34.515633,21.558212,-6.517817,-3.960311,-3.444948,-5.047725,34.754059,30.74288,-1.426269,4.63583E+18,0.807078,-0.492723,0.315018,-0.08132,-4.107066,6.925724,-7.067272,1.312308,1.330811,3.801276,44.260475,15.957,0.884454,4.63583E+18,0.338222,0.661137,0.423384,-0.518892,8
-4.154431,-1.721174,1.999158,-0.952009,2.194996,0.813279,46.914357,-1.198663,-5.358192,4.63583E+18,0.854903,-0.010577,0.518266,0.020717,-24.998574,3.788329,1.779838,-3.9559,-3.207908,-5.557567,33.293887,32.195922,-1.210563,4.63583E+18,0.800896,-0.514136,0.29403,-0.088186,-13.257159,18.472743,0.191233,-0.407225,0.669678,3.795267,44.741514,14.671807,0.89666,4.63583E+18,0.346273,0.66865,0.414701,-0.510906,8
-7.280379,-1.961854,3.209693,-0.904525,0.977418,0.620211,46.89088,-1.349889,-4.679874,4.63583E+18,0.852689,-0.01255,0.521674,0.024885,-24.605362,-23.117811,-0.031892,-4.982613,-2.046117,-5.052947,31.752334,34.132316,-0.481552,4.63583E+18,0.790505,-0.537434,0.278092,-0.094512,-9.842146,7.046721,2.52035,-1.107902,0.61947,3.45271,45.067913,13.393604,1.168272,4.63583E+18,0.355547,0.674288,0.408289,-0.502216,8
-8.124716,-2.260684,3.53213,-0.879698,0.148657,0.526192,46.932338,-1.488366,-4.541154,4.63583E+18,0.852264,-0.014554,0.522122,0.028707,-30.825806,-14.11812,-12.000911,-4.966598,-1.256842,-3.20922,30.40787,35.601804,0.436257,4.63583E+18,0.779337,-0.557809,0.268654,-0.096476,-3.754879,-1.564552,-3.575099,-0.487544,0.987113,3.239209,45.355354,12.075292,1.665894,4.63583E+18,0.36193,0.681104,0.401634,-0.493756,8
-8.237755,-2.635551,3.403276,-0.741165,0.59498,0.510322,47.014895,-1.777495,-4.382758,4.63583E+18,0.85086,-0.016154,0.524159,0.032143,-28.940054,6.099466,-12.205959,-2.55837,-1.064971,-2.189812,29.664963,36.106807,1.074408,4.63583E+18,0.773631,-0.568912,0.261125,-0.098228,-9.48551,2.000365,-1.741128,-0.723225,0.60441,3.289808,45.636125,10.823113,2.062049,4.63583E+18,0.369652,0.686722,0.394662,-0.48581,8
-9.807968,-3.076257,4.279315,-0.75695,1.126241,0.572526,47.109654,-1.976632,-3.96099,4.63583E+18,0.848262,-0.017745,0.528067,0.035798,-29.460829,10.143213,-11.212935,-0.900645,-1.240113,-2.140568,29.160972,36.414487,1.392482,4.63583E+18,0.771935,-0.574593,0.252425,-0.101193,-12.214719,5.477313,0.315288,-0.923577,0.584427,3.376471,45.955504,9.656784,2.542121,4.63583E+18,0.378078,0.69199,0.387734,-0.477356,8
-12.50822,-2.832097,3.866815,-0.835548,1.130432,0.707514,47.132786,-2.004905,-3.48198,4.63583E+18,0.845594,-0.019318,0.531967,0.0401,-23.416975,4.565566,-9.345296,0.042251,-0.936596,-1.974211,28.673117,37.032656,1.425041,4.63583E+18,0.77217,-0.576882,0.244677,-0.105331,-9.933391,4.418588,-1.238257,-0.845116,0.599125,3.387014,46.24998,8.419919,2.994457,4.63583E+18,0.386193,0.697276,0.380559,-0.468866,8
-14.258093,-2.442806,1.572807,-0.726556,0.605767,0.785813,47.021005,-2.318718,-3.350614,4.63583E+18,0.844055,-0.020245,0.534025,0.044478,-19.464301,-0.443041,-6.782125,1.329249,-0.798031,-1.381788,28.323885,37.428737,0.924719,4.63583E+18,0.775556,-0.574319,0.238215,-0.1092,-9.076214,5.293727,-3.380315,-0.847232,0.327916,3.321117,46.413369,7.094829,3.172751,4.63583E+18,0.394534,0.701778,0.373062,-0.461168,8
-13.935779,-1.676016,0.685566,-0.588194,-0.514611,0.727247,46.921089,-2.798991,-3.475242,4.63583E+18,0.845012,-0.020608,0.532151,0.048436,-16.780351,-0.748468,-2.798742,2.028902,-0.584309,-0.741264,28.211309,37.624452,-0.044697,4.63583E+18,0.780633,-0.568716,0.233638,-0.112195,-8.911097,5.088337,-5.485876,-1.115356,0.21767,3.214575,46.60046,5.770985,3.191649,4.63583E+18,0.403546,0.705318,0.366135,-0.453456,8
-11.786369,-1.408995,1.597824,-0.532305,-1.053825,0.50935,46.900845,-2.917569,-3.729991,4.63583E+18,0.847192,-0.021148,0.528358,0.051547,-12.544794,1.742254,0.009389,2.145376,-0.249018,-0.066376,28.186483,37.85598,-0.890475,4.63583E+18,0.785909,-0.561872,0.231679,-0.113895,-7.64351,1.371913,-5.789605,-1.016866,0.326242,3.112119,46.875698,4.517683,3.247979,4.63583E+18,0.41183,0.708935,0.359435,-0.44566,8
-10.30621,-1.99723,2.295657,-0.477993,-0.494544,0.32634,46.835627,-2.852352,-3.871036,4.63583E+18,0.848167,-0.02202,0.526524,0.053842,-8.547318,3.61264,1.032448,2.108535,0.029698,0.742835,28.157772,37.831835,-1.444494,4.63583E+18,0.791147,-0.554188,0.232524,-0.113553,-8.16774,2.132444,-4.145346,-0.774876,0.304608,3.050932,47.072559,3.280762,3.319237,4.63583E+18,0.419245,0.712708,0.352365,-0.438315,8
-11.003576,-2.380807,2.528884,-0.448085,0.0322,0.126962,46.871302,-2.897345,-3.968707,4.63583E+18,0.848029,-0.023341,0.526538,0.055319,-5.231316,3.763425,0.490605,2.213523,0.205404,1.683971,28.455498,37.288855,-1.913437,4.63583E+18,0.796814,-0.545102,0.236047,-0.110603,-9.323556,4.214226,-2.965221,-0.691386,0.27049,3.000314,47.044547,2.02192,3.431889,4.63583E+18,0.426299,0.716369,0.345173,-0.431208,8
-12.105449,-2.329658,0.727805,-0.397621,-0.182593,-0.032353,47.019096,-2.917569,-3.991821,4.63583E+18,0.8484,-0.024785,0.525786,0.056142,-3.340104,3.761455,-0.308337,2.412947,0.385051,2.608937,29.286745,36.663161,-2.450147,4.63583E+18,0.803041,-0.534263,0.242134,-0.105169,-8.299758,4.126931,-3.949081,-0.616042,0.277267,2.956011,46.959521,0.850087,3.690206,4.63583E+18,0.432969,0.719996,0.337934,-0.424197,8
-12.465701,-2.201818,-0.866219,-0.246499,-0.79536,-0.084161,47.115445,-2.926887,-4.289978,4.63583E+18,0.850134,-0.025663,0.522895,0.056514,-3.609489,3.118679,-0.613537,2.594883,0.613924,3.410914,30.324824,35.947596,-3.194836,4.63583E+18,0.809571,-0.521759,0.250627,-0.097716,-7.960853,4.697939,-5.275989,-0.61474,0.172474,2.882161,47.07452,-0.349394,3.951278,4.63583E+18,0.439585,0.723225,0.330674,-0.417571,8
-12.015952,-1.940019,0.194642,-0.147771,-1.171753,-0.116624,47.002361,-2.929777,-4.810991,4.63583E+18,0.852691,-0.026174,0.518681,0.056595,-4.031205,1.395211,-0.528888,2.741138,0.898234,4.193249,31.356067,34.832485,-3.850831,4.63583E+18,0.816126,-0.507626,0.261622,-0.088358,-8.55347,5.236988,-4.839209,-0.656602,0.045928,2.763089,47.264314,-1.483034,3.987878,4.63583E+18,0.446232,0.725887,0.323565,-0.411425,8
-11.306593,-1.895683,1.964185,-0.041456,-1.057259,-0.137201,46.766229,-2.808659,-5.316667,4.63583E+18,0.854998,-0.026377,0.514885,0.056359,-3.766197,1.338039,0.654033,2.847269,1.231459,4.945123,32.343279,33.495194,-4.261948,4.63583E+18,0.822393,-0.491925,0.275166,-0.07722,-9.31579,6.221778,-3.246053,-0.695156,-0.058398,2.634748,47.298572,-2.352854,3.855574,4.63583E+18,0.452855,0.728029,0.316673,-0.405726,8
