Accelerometer-X,Accelerometer-Y,Accelerometer-Z,Gyroscope-X,Gyroscope-Y,Gyroscope-Z,Magnetometer-X,Magnetometer-Y,Magnetometer-Z,Barometer-pressure,Orientation-S,Orientation-X,Orientation-Y,Orientation-Z,Accelerometer-X,Accelerometer-Y,Accelerometer-Z,Gyroscope-X,Gyroscope-Y,Gyroscope-Z,Magnetometer-X,Magnetometer-Y,Magnetometer-Z,Barometer-pressure,Orientation-S,Orientation-X,Orientation-Y,Orientation-Z,Accelerometer-X,Accelerometer-Y,Accelerometer-Z,Gyroscope-X,Gyroscope-Y,Gyroscope-Z,Magnetometer-X,Magnetometer-Y,Magnetometer-Z,Barometer-pressure,Orientation-S,Orientation-X,Orientation-Y,Orientation-Z,jump
-8.659701,1.904005,2.956743,0.031707,0.167533,0.038423,33.729756,-28.568576,-15.072191,4.63583E+18,-0.478276,0.404093,-0.428336,-0.651528,-0.344642,2.212019,-2.194136,0.710863,-2.463577,0.574579,41.026404,20.466562,10.514899,4.63583E+18,-0.223558,0.905042,0.07877,-0.353153,-9.197936,-0.827955,-3.358468,-0.033802,-0.076909,0.065345,34.681232,-3.091369,31.280382,4.63583E+18,0.576604,-0.076979,0.812806,0.03081,0
-8.614475,1.948527,2.969223,0.045517,0.2542,0.038169,33.680225,-28.677729,-15.000712,4.63583E+18,-0.477779,0.40461,-0.429052,-0.651101,-1.449482,3.003572,-0.791652,0.425866,-2.302182,0.745609,41.28016,20.520645,9.539633,4.63583E+18,-0.22318,0.901506,0.077503,-0.362588,-9.204382,-0.5773,-3.253616,-0.035124,-0.075964,0.047059,34.830615,-3.10068,31.183439,4.63583E+18,0.57689,-0.076834,0.812605,0.031094,0
-8.57067,2.013507,2.632832,0.015581,0.31344,0.025163,33.707876,-28.785057,-14.805418,4.63583E+18,-0.47716,0.40537,-0.429781,-0.650601,-0.868601,1.383187,-0.279001,0.344513,-2.062849,0.935132,41.536508,20.337664,8.731938,4.63583E+18,-0.222266,0.898382,0.075418,-0.37124,-9.123896,-0.400569,-3.212675,-0.047322,-0.081875,0.028827,34.839928,-3.250154,31.085725,4.63583E+18,0.577195,-0.076779,0.812383,0.031378,0
-8.480549,2.070953,2.359625,0.007167,0.349072,-0.002172,33.817041,-28.733694,-14.645642,4.63583E+18,-0.476536,0.406291,-0.430512,-0.65,-3.661358,-0.042347,-0.662739,0.58534,-1.95357,0.892471,41.869909,19.893851,7.905088,4.63583E+18,-0.222334,0.895112,0.073014,-0.379487,-8.923482,-0.563092,-3.176056,-0.040019,-0.083253,0.021736,34.839928,-3.328359,31.08005,4.63583E+18,0.577508,-0.07673,0.812156,0.03162,0
-8.471226,2.079565,2.519067,0.035753,0.411966,-0.033555,33.89672,-28.571054,-14.623401,4.63583E+18,-0.475931,0.407381,-0.431391,-0.649178,-4.776051,-0.285926,0.085373,0.695158,-1.664009,0.968896,42.156484,19.470431,7.053228,4.63583E+18,-0.222761,0.892152,0.069878,-0.38673,-8.991883,-0.665723,-3.185422,-0.031474,-0.076274,0.016333,35.138849,-3.183161,31.160527,4.63583E+18,0.5778,-0.07668,0.811945,0.031818,0
-8.572098,2.051206,2.803031,0.038456,0.473846,-0.060286,33.894201,-28.483097,-14.634537,4.63583E+18,-0.475291,0.40868,-0.432352,-0.64819,-5.570929,2.44361,0.442541,0.398816,-1.689026,1.250744,42.357603,19.067672,6.352922,4.63583E+18,-0.221608,0.889441,0.066192,-0.394212,-9.249758,-0.625425,-3.209123,-0.038017,-0.07785,0.016022,35.076852,-3.093456,31.165501,4.63583E+18,0.578095,-0.076647,0.811729,0.032038,0
-8.754448,1.994856,2.725928,0.010778,0.493396,-0.084504,34.088758,-28.536962,-14.348479,4.63583E+18,-0.474631,0.410128,-0.433235,-0.647169,-5.424938,0.776722,1.015219,0.162857,-1.851913,1.344434,42.665876,18.722574,5.684065,4.63583E+18,-0.219362,0.886631,0.062691,-0.402287,-9.299905,-0.680055,-3.302511,-0.056559,-0.088033,0.015016,34.704015,-3.249409,31.176996,4.63583E+18,0.578419,-0.07666,0.811486,0.032321,0
-8.907458,1.920878,2.35972,0.002201,0.474635,-0.110764,34.202675,-28.528702,-14.026306,4.63583E+18,-0.474059,0.411588,-0.43401,-0.646141,-4.131326,-4.457548,1.795051,0.419949,-1.909543,1.527251,43.007659,18.335239,5.022331,4.63583E+18,-0.217723,0.883451,0.058133,-0.41077,-9.141105,-0.913523,-3.331197,-0.072768,-0.090668,0.01596,34.750207,-3.259377,31.177708,4.63583E+18,0.578747,-0.076708,0.811234,0.032663,0
-8.843965,1.951696,2.08032,-0.012837,0.49114,-0.142806,34.016374,-28.528702,-14.085483,4.63583E+18,-0.473516,0.413179,-0.434721,-0.645046,-5.146747,-5.515379,2.591093,0.804802,-2.017948,1.728589,43.359085,17.730255,4.064737,4.63583E+18,-0.217103,0.879679,0.052267,-0.41988,-9.085156,-0.812808,-3.229162,-0.091808,-0.087775,0.023063,34.903918,-3.109936,31.166213,4.63583E+18,0.579057,-0.076779,0.810989,0.033085,0
-8.728293,2.125801,2.077343,-0.036975,0.55911,-0.170363,34.008932,-28.579988,-14.11868,4.63583E+18,-0.472879,0.415047,-0.435451,-0.643819,-5.919464,-5.488169,3.865882,1.193156,-2.150789,1.829723,43.520577,17.138438,3.104117,4.63583E+18,-0.217668,0.875217,0.045466,-0.429592,-9.162766,-0.805689,-3.15379,-0.108015,-0.093623,0.032551,34.913174,-2.951258,31.165501,4.63583E+18,0.57938,-0.076856,0.81073,0.033587,0
-8.751964,2.365632,2.241101,-0.036792,0.642752,-0.179201,34.497228,-28.687397,-13.774788,4.63583E+18,-0.472826,0.416667,-0.436792,-0.641901,-6.117093,-7.206789,4.133846,1.421927,-2.260724,1.966207,43.697825,16.497307,2.23153,4.63583E+18,-0.218763,0.870223,0.03785,-0.439798,-9.294193,-1.162002,-3.26445,-0.09286,-0.10506,0.056244,34.913174,-3.16037,31.085043,4.63583E+18,0.579744,-0.076815,0.810453,0.034098,0
-8.864652,2.6417,2.228307,-0.048169,0.696763,-0.162307,34.804054,-28.632173,-13.361832,4.63583E+18,-0.471909,0.418892,-0.437785,-0.64045,-5.225948,-8.349625,3.827727,1.603556,-2.312951,2.097883,44.153002,15.578294,1.165343,4.63583E+18,-0.220222,0.864814,0.029465,-0.450256,-9.336523,-1.080672,-3.363536,-0.081803,-0.115804,0.074777,35.062594,-3.242889,30.988097,4.63583E+18,0.580144,-0.076683,0.810157,0.03462,0
-9.063906,2.872309,1.861902,-0.100045,0.713785,-0.135161,34.703204,-28.488886,-13.140235,4.63583E+18,-0.470774,0.421223,-0.438705,-0.639126,-4.759252,-8.446353,3.468556,1.8666,-2.339613,2.305611,44.360293,14.656893,0.196285,4.63583E+18,-0.222184,0.858943,0.019858,-0.460931,-9.269716,-1.085743,-3.472664,-0.090229,-0.13151,0.092932,35.060378,-3.247169,30.7066,4.63583E+18,0.580591,-0.076508,0.809827,0.035219,0
-9.192548,2.885639,1.341858,-0.119073,0.683662,-0.113107,34.619448,-28.379762,-13.078074,4.63583E+18,-0.469597,0.423468,-0.439549,-0.637927,-4.940439,-7.951554,2.681516,1.988409,-2.322691,2.442614,43.953058,14.205937,-0.837249,4.63583E+18,-0.224262,0.852784,0.009507,-0.471568,-9.116035,-1.235842,-3.582529,-0.092803,-0.140494,0.113101,35.071153,-3.545937,30.608975,4.63583E+18,0.581065,-0.076269,0.809481,0.035879,0
-9.092831,2.871931,1.237823,-0.12793,0.6752,-0.096856,34.747898,-28.217135,-13.031125,4.63583E+18,-0.468373,0.425674,-0.440378,-0.636786,-5.043528,-7.266798,1.884046,2.099221,-2.298288,2.509297,43.653942,14.001448,-2.043614,4.63583E+18,-0.226542,0.846343,-0.001323,-0.482059,-9.118215,-1.107246,-3.474052,-0.099968,-0.13999,0.130381,35.152317,-3.851872,30.6959,4.63583E+18,0.581531,-0.07599,0.80914,0.036605,0
-8.896383,2.933721,1.421132,-0.189093,0.712142,-0.092338,35.047257,-28.15271,-12.789236,4.63583E+18,-0.466957,0.428085,-0.44112,-0.635695,-4.938386,-6.539522,1.528779,2.201171,-2.30005,2.561246,44.018645,13.320512,-3.356132,4.63583E+18,-0.229012,0.839564,-0.012538,-0.492471,-9.199368,-0.83437,-3.283044,-0.123532,-0.143949,0.145459,35.157322,-3.651415,30.873985,4.63583E+18,0.582001,-0.075716,0.808789,0.037447,0
-8.841347,2.9617,1.173636,-0.254281,0.70787,-0.084729,35.249361,-28.208878,-12.465648,4.63583E+18,-0.465487,0.430538,-0.441745,-0.634681,-4.743781,-6.211254,1.255761,2.190592,-2.287544,2.61757,44.428085,12.050325,-4.513521,4.63583E+18,-0.231261,0.832576,-0.023935,-0.502754,-9.215874,-0.86386,-3.110709,-0.138044,-0.142189,0.160413,35.145831,-3.637806,30.712365,4.63583E+18,0.582456,-0.075428,0.808445,0.038375,0
-8.914965,3.014848,0.679158,-0.297635,0.730848,-0.094075,34.741108,-27.675688,-12.325916,4.63583E+18,-0.463837,0.433204,-0.442224,-0.633741,-4.747955,-5.943457,1.388744,2.309343,-2.254236,2.733325,44.142598,11.293925,-5.508733,4.63583E+18,-0.233605,0.825284,-0.036007,-0.512873,-9.228079,-0.889705,-3.008763,-0.142881,-0.133016,0.178381,35.145115,-3.85611,30.517784,4.63583E+18,0.582876,-0.075091,0.808126,0.039359,0
-8.944085,3.043585,0.419758,-0.303565,0.816819,-0.119398,33.915607,-26.570191,-12.269205,4.63583E+18,-0.462078,0.43615,-0.442803,-0.6326,-5.16494,-5.883968,1.103763,2.389814,-2.26315,2.836922,43.678739,10.640657,-6.309524,4.63583E+18,-0.23593,0.817618,-0.048585,-0.522951,-9.309224,-0.89114,-3.03749,-0.136094,-0.13044,0.197545,35.294478,-3.869747,30.5063,4.63583E+18,0.583285,-0.074675,0.80782,0.040366,0
-8.892472,3.024266,0.37843,-0.334001,0.898185,-0.142862,33.826416,-26.3327,-12.117153,4.63583E+18,-0.46017,0.439406,-0.443408,-0.631312,-5.754614,-6.066754,1.128658,2.334922,-2.218013,2.899384,44.022965,9.007219,-7.191447,4.63583E+18,-0.237845,0.809827,-0.061285,-0.53278,-9.29127,-0.822203,-3.051133,-0.129623,-0.123277,0.211745,35.384238,-3.869747,30.598217,4.63583E+18,0.583669,-0.074196,0.807535,0.041384,0
-8.809418,2.997921,0.374489,-0.397431,0.932736,-0.170221,33.977455,-26.743254,-11.811592,4.63583E+18,-0.458145,0.442917,-0.443855,-0.630016,-6.162957,-5.557931,1.400211,2.262939,-2.123847,2.941848,44.507541,7.432542,-8.260927,4.63583E+18,-0.23932,0.802047,-0.07404,-0.542185,-9.232386,-0.553636,-2.971424,-0.142315,-0.11781,0.215577,35.400752,-4.156986,30.512043,4.63583E+18,0.584029,-0.073735,0.807262,0.042452,0
-8.873224,3.05618,0.27562,-0.455519,0.943762,-0.202573,33.65343,-26.634173,-11.589934,4.63583E+18,-0.456068,0.44662,-0.444103,-0.628733,-6.632416,-5.148132,1.859321,2.187843,-2.089488,2.987262,44.307621,6.59742,-9.400661,4.63583E+18,-0.240354,0.794155,-0.086788,-0.551376,-9.389631,-0.410756,-2.943423,-0.173288,-0.122522,0.221797,35.40147,-4.324279,30.51779,4.63583E+18,0.584393,-0.073328,0.806972,0.04364,0
-9.015768,3.039644,0.010615,-0.505513,0.960336,-0.237821,34.046168,-26.763014,-11.51985,4.63583E+18,-0.453951,0.450517,-0.444175,-0.627432,-7.306085,-4.597265,2.600332,2.010765,-2.049896,3.04352,43.938811,5.476445,-10.30765,4.63583E+18,-0.240582,0.786269,-0.099328,-0.560389,-9.388212,-0.345404,-2.976449,-0.19528,-0.133894,0.219159,35.33254,-4.333628,30.610413,4.63583E+18,0.584788,-0.072982,0.806648,0.0449,0
-9.087032,3.043582,-0.095292,-0.549546,1.000478,-0.274446,35.490108,-27.365465,-11.421002,4.63583E+18,-0.451763,0.454659,-0.44413,-0.626055,-7.9493,-3.33285,2.924987,1.624125,-1.933269,3.042504,43.841961,3.904356,-10.919022,4.63583E+18,-0.239428,0.778818,-0.111048,-0.569021,-9.238148,-0.20395,-2.886701,-0.221669,-0.130566,0.209923,35.328224,-4.414045,30.616167,4.63583E+18,0.585164,-0.072731,0.806323,0.046224,0
-9.037807,3.012458,0.067357,-0.612196,1.050232,-0.310524,36.34066,-27.482372,-11.144148,4.63583E+18,-0.449499,0.459067,-0.443974,-0.624576,-8.5911,-2.132884,2.79326,1.056192,-1.753011,2.980807,43.875262,2.436569,-11.689574,4.63583E+18,-0.236432,0.772198,-0.121374,-0.57713,-9.263257,-0.068964,-2.73162,-0.260431,-0.130314,0.205337,35.328224,-4.488,30.524274,4.63583E+18,0.585528,-0.072591,0.805988,0.047668,0
-9.044901,2.925839,0.183111,-0.70698,1.035412,-0.338328,36.39027,-27.231564,-10.962248,4.63583E+18,-0.447089,0.463689,-0.443439,-0.623271,-9.103383,-1.872912,2.381194,0.352602,-1.561604,2.833055,43.789439,1.289939,-12.461892,4.63583E+18,-0.231381,0.766648,-0.129694,-0.584717,-9.368799,-0.279283,-2.779684,-0.285881,-0.131319,0.207095,35.397146,-4.492324,30.334723,4.63583E+18,0.585885,-0.072506,0.805643,0.049201,0
-9.106325,2.945124,0.068958,-0.820495,0.971539,-0.367748,36.49655,-27.173679,-10.966184,4.63583E+18,-0.444713,0.468345,-0.442475,-0.622173,-9.281321,-2.415923,1.82115,-0.436899,-1.356946,2.618235,43.600046,0.225332,-12.978298,4.63583E+18,-0.22418,0.762344,-0.135578,-0.591772,-9.432719,-0.534197,-3.001534,-0.300398,-0.131382,0.213251,35.470388,-4.641651,30.231297,4.63583E+18,0.586235,-0.072436,0.805296,0.050798,0
-9.10358,3.042389,-0.312628,-0.930383,0.925329,-0.402379,36.771047,-27.039829,-10.887846,4.63583E+18,-0.442283,0.473135,-0.44106,-0.621285,-9.350122,-2.948204,0.869834,-1.1791,-1.129324,2.446275,43.517551,-0.78853,-13.285686,4.63583E+18,-0.214882,0.759275,-0.139276,-0.598272,-9.390382,-0.503392,-3.130081,-0.321317,-0.139422,0.231719,35.566595,-4.869241,30.317414,4.63583E+18,0.5866,-0.072353,0.804927,0.052512,0
-9.033874,3.109346,-0.445003,-1.009639,0.917158,-0.433287,36.906127,-26.652321,-10.65077,4.63583E+18,-0.439704,0.478142,-0.439293,-0.620534,-9.603476,-3.398024,-0.083817,-1.810959,-0.892267,2.285896,43.459106,-1.452955,-13.717713,4.63583E+18,-0.203812,0.757337,-0.141079,-0.604151,-9.169275,-0.787633,-3.033936,-0.3266,-0.129878,0.254965,35.572372,-5.10118,30.426556,4.63583E+18,0.586924,-0.072207,0.804585,0.054298,0
-9.001192,3.103816,0.13062,-1.064448,0.964112,-0.462677,37.015183,-26.350311,-10.570412,4.63583E+18,-0.436988,0.483408,-0.437395,-0.619713,-10.22592,-4.279727,-0.607672,-2.39153,-0.62633,2.103588,43.330771,-1.843968,-14.193756,4.63583E+18,-0.191177,0.756536,-0.141044,-0.609271,-9.212979,-0.759748,-2.935555,-0.323838,-0.114172,0.272435,35.491979,-5.114902,30.157413,4.63583E+18,0.587191,-0.071999,0.804285,0.056113,0
-9.039743,3.157782,0.61037,-1.142764,1.003307,-0.471159,37.173874,-26.106173,-10.648791,4.63583E+18,-0.434048,0.488912,-0.43533,-0.618915,-10.732027,-4.91536,-1.407291,-2.818731,-0.337748,1.961869,43.174673,-2.176152,-14.362171,4.63583E+18,-0.177348,0.756741,-0.139677,-0.613499,-9.411814,-0.481248,-2.906809,-0.337716,-0.097146,0.287513,35.406535,-5.195288,29.967822,4.63583E+18,0.587391,-0.071779,0.804024,0.058005,0
-9.179165,3.09048,0.330959,-1.22525,0.930391,-0.465677,37.33257,-25.913184,-10.629516,4.63583E+18,-0.431038,0.494346,-0.432912,-0.618398,-11.356761,-4.779474,-1.85876,-2.989422,-0.082091,1.868797,43.025589,-2.640355,-14.534152,4.63583E+18,-0.163032,0.757618,-0.137737,-0.616818,-9.447083,-0.0275,-2.767557,-0.38382,-0.071013,0.287395,35.34405,-5.487447,30.140708,4.63583E+18,0.587487,-0.071677,0.803814,0.060044,0
-9.177663,2.938865,-0.421558,-1.311519,0.785161,-0.474388,37.491239,-25.800212,-10.544078,4.63583E+18,-0.428115,0.499553,-0.429974,-0.618293,-11.326355,-4.769731,-2.889984,-3.070437,0.188768,1.841007,43.07137,-3.006193,-14.864003,4.63583E+18,-0.148339,0.759093,-0.135651,-0.61917,-9.368154,0.355953,-2.437368,-0.441928,-0.037279,0.274271,35.420809,-5.735186,30.163769,4.63583E+18,0.587453,-0.071771,0.803663,0.062235,0
-8.936366,2.794413,-0.639265,-1.387464,0.739751,-0.496748,37.701069,-25.527041,-10.55696,4.63583E+18,-0.425155,0.504797,-0.426692,-0.618351,-12.461999,-3.968225,-2.947644,-3.007656,0.400892,1.845852,43.351676,-3.20123,-14.86496,4.63583E+18,-0.13368,0.760903,-0.13384,-0.62068,-9.179384,0.470277,-2.244853,-0.494642,-0.010134,0.261391,35.575135,-5.887458,29.9808,4.63583E+18,0.587313,-0.072043,0.803558,0.064562,0
-8.552806,2.553398,-0.220722,-1.457576,0.823118,-0.518288,37.994844,-25.011256,-10.745217,4.63583E+18,-0.421932,0.510392,-0.423311,-0.618289,-12.233277,-2.99795,-5.478737,-3.171569,0.681908,1.888265,43.498629,-3.561764,-14.603907,4.63583E+18,-0.118204,0.763328,-0.131863,-0.621265,-9.098884,0.372774,-2.291352,-0.522868,-0.012563,0.24757,35.596059,-6.19464,29.877339,4.63583E+18,0.587173,-0.072429,0.80343,0.06695,0
-8.345517,2.374247,0.077591,-1.519157,0.906348,-0.529312,38.211439,-24.543723,-10.804384,4.63583E+18,-0.418437,0.516301,-0.419869,-0.618105,-19.851436,-6.515153,4.789795,-1.902834,-0.222206,1.980745,43.086874,-4.313208,-14.68319,4.63583E+18,-0.106997,0.762591,-0.13299,-0.623955,-9.220803,-0.368543,-2.329434,-0.499347,-0.029895,0.248751,35.527904,-6.362817,29.974842,4.63583E+18,0.587095,-0.07275,0.803262,0.069267,0
-8.495722,2.120787,0.127863,-1.538423,0.963594,-0.532463,38.37014,-24.350668,-10.723275,4.63583E+18,-0.414783,0.522364,-0.416445,-0.617789,-30.945292,-41.063954,24.398849,-1.450803,-0.723558,0.916195,42.777828,-4.492324,-15.183481,4.63583E+18,-0.100261,0.760865,-0.131672,-0.627451,-9.378011,-0.529832,-2.377526,-0.424441,-0.031981,0.266956,35.374331,-6.441133,30.073207,4.63583E+18,0.587038,-0.072825,0.803112,0.071378,0
-8.914707,1.724974,0.390423,-1.49387,1.052413,-0.525764,38.556353,-24.237698,-10.60203,4.63583E+18,-0.41103,0.528535,-0.413278,-0.617177,-34.240076,-62.359057,15.256181,-4.003439,-0.434229,-1.712748,43.033478,-3.761849,-15.47148,4.63583E+18,-0.092129,0.762251,-0.11544,-0.630205,-9.594119,-0.583043,-2.908489,-0.33541,-0.075235,0.291207,35.525557,-6.812845,29.987208,4.63583E+18,0.587143,-0.072588,0.802886,0.073264,0
-9.408689,1.34828,0.729501,-1.439753,1.123581,-0.534381,38.800462,-23.964669,-10.431154,4.63583E+18,-0.407269,0.534778,-0.410326,-0.616261,-33.253337,-15.609242,-8.991093,-3.830457,0.677091,-0.792229,43.222251,-3.112929,-15.217724,4.63583E+18,-0.081569,0.765812,-0.102974,-0.629504,-9.653144,-0.562997,-3.481512,-0.204503,-0.077975,0.331846,35.535751,-7.054253,29.901028,4.63583E+18,0.587282,-0.071894,0.802704,0.074811,0
-10.019922,0.773936,0.974078,-1.474122,1.07165,-0.536935,38.989607,-23.527438,-10.260244,4.63583E+18,-0.403501,0.540916,-0.407166,-0.615477,-19.479339,30.818883,-23.392186,-1.284723,1.056826,2.548337,43.250832,-3.12535,-14.829668,4.63583E+18,-0.070189,0.767901,-0.10795,-0.627493,-9.839703,-0.802577,-3.619034,-0.165405,-0.05588,0.32027,35.386539,-7.079565,29.895931,4.63583E+18,0.587362,-0.07115,0.802582,0.076192,0
-10.553977,-0.12134,1.178101,-1.546203,0.865642,-0.536898,39.090366,-23.221403,-10.148282,4.63583E+18,-0.399897,0.546615,-0.403449,-0.615243,-7.11072,26.027611,-17.306987,-1.686706,0.662326,2.13733,43.337309,-3.613336,-14.736934,4.63583E+18,-0.058764,0.769147,-0.110425,-0.626711,-9.621817,0.32989,-3.200918,-0.272897,-0.045437,0.289247,35.377056,-7.149161,29.723763,4.63583E+18,0.587382,-0.070776,0.802441,0.077854,0
-10.990737,-1.185815,1.396138,-1.523569,0.661182,-0.52322,39.276551,-22.945423,-10.254784,4.63583E+18,-0.39663,0.551697,-0.399458,-0.615425,-12.098367,20.252135,-8.741451,-2.276205,0.947269,1.791631,43.427948,-4.12937,-14.503758,4.63583E+18,-0.046213,0.771323,-0.110305,-0.625106,-9.572793,1.55063,-2.737766,-0.445566,-0.051892,0.241133,35.457399,-7.371618,29.71282,4.63583E+18,0.587387,-0.070983,0.80221,0.079977,0
-11.321178,-2.018861,1.650667,-1.330417,0.659013,-0.480347,39.493196,-22.651605,-10.469602,4.63583E+18,-0.393682,0.556357,-0.396038,-0.615333,-0.703016,7.401558,-10.012629,-0.683362,1.268874,1.954088,43.398108,-4.697166,-14.047419,4.63583E+18,-0.038203,0.773853,-0.114902,-0.621683,-9.61651,0.877613,-2.595279,-0.546476,-0.050331,0.200038,35.462505,-7.534673,29.804631,4.63583E+18,0.587368,-0.071575,0.801933,0.082335,0
-11.664775,-2.583737,1.662746,-1.05034,0.853216,-0.44445,39.628312,-22.403547,-10.395814,4.63583E+18,-0.390956,0.560975,-0.393723,-0.614364,-7.516104,-1.936981,-19.548917,0.1478,1.369513,1.417843,43.519616,-5.283081,-13.633417,4.63583E+18,-0.034211,0.776701,-0.119928,-0.6174,-9.688292,0.382524,-2.817497,-0.535161,-0.026103,0.186561,35.473981,-7.693368,29.810478,4.63583E+18,0.587271,-0.072192,0.801711,0.084615,0
-12.156491,-2.906713,1.725725,-0.755818,0.962766,-0.396003,39.737306,-22.178643,-10.177907,4.63583E+18,-0.388602,0.565296,-0.39244,-0.612715,-22.19486,0.163002,-25.245961,0.247425,1.706436,1.265458,43.690514,-5.734522,-13.089076,4.63583E+18,-0.030762,0.780421,-0.124756,-0.611909,-9.853348,-0.059136,-2.8895,-0.496919,-0.011513,0.177824,35.474712,-7.920923,29.730144,4.63583E+18,0.587138,-0.07275,0.801531,0.086741,0
-12.575413,-3.10725,2.710852,-0.581879,0.813869,-0.33283,39.947053,-21.992455,-10.159202,4.63583E+18,-0.386731,0.568839,-0.391499,-0.61122,-26.661988,1.162305,-23.400951,-0.009617,2.113887,1.11637,43.861403,-6.149534,-12.195785,4.63583E+18,-0.026643,0.785221,-0.128485,-0.605153,-10.093055,-0.578818,-2.858734,-0.413233,-0.037788,0.196387,35.474712,-8.152811,29.633237,4.63583E+18,0.587109,-0.073031,0.801319,0.088641,0
-12.794292,-3.178707,3.990616,-0.632483,0.549504,-0.272857,40.162357,-21.822911,-10.147773,4.63583E+18,-0.385366,0.571455,-0.390471,-0.610298,-28.155593,10.391848,-14.116486,-0.110145,1.769999,1.064697,43.840181,-6.631862,-11.372834,4.63583E+18,-0.022507,0.789123,-0.131743,-0.599518,-10.348701,-1.252961,-3.235202,-0.272486,-0.09876,0.241785,35.405865,-8.247077,29.638843,4.63583E+18,0.587307,-0.072794,0.801022,0.090199,0
-13.223749,-3.239354,3.900575,-0.614041,0.354389,-0.191684,40.189833,-21.79108,-9.949034,4.63583E+18,-0.383798,0.573635,-0.389035,-0.610159,-27.689581,14.658516,-3.697121,-0.328695,1.333254,1.053334,43.834183,-7.074696,-10.899005,4.63583E+18,-0.017919,0.791911,-0.134367,-0.5954,-10.341135,-2.039855,-3.810173,-0.064025,-0.110575,0.303845,35.40147,-8.321054,29.547776,4.63583E+18,0.587583,-0.071835,0.80079,0.091217,0
-13.992878,-3.466473,2.895238,-0.243133,0.350874,-0.101195,40.275292,-21.741385,-9.95296,4.63583E+18,-0.382911,0.575049,-0.388771,-0.609553,-24.539533,14.512812,3.896869,-0.595725,0.982613,1.028364,44.028898,-7.22338,-10.585223,4.63583E+18,-0.012708,0.793826,-0.136214,-0.592558,-10.328197,-1.536735,-4.132171,0.070205,-0.092013,0.343768,35.40147,-8.405764,29.369812,4.63583E+18,0.587821,-0.070421,0.800665,0.091879,0
-14.60488,-3.24796,2.735396,0.252736,0.428894,-0.024633,40.360736,-21.73746,-9.835637,4.63583E+18,-0.382888,0.575744,-0.390071,-0.608079,-16.683241,10.059575,6.165925,-0.898063,1.065781,0.821339,44.215414,-7.498343,-10.292246,4.63583E+18,-0.00696,0.796044,-0.136627,-0.589575,-10.442198,0.001513,-3.79484,0.059904,-0.100832,0.339052,35.321155,-8.479742,29.358805,4.63583E+18,0.588086,-0.069045,0.800512,0.092567,0
-14.614887,-2.487272,3.337843,0.559746,0.259644,0.071488,40.395171,-21.729177,-9.448973,4.63583E+18,-0.383639,0.575356,-0.392115,-0.606657,-11.323354,0.169749,3.522673,-0.854459,1.248839,0.743402,44.059771,-7.837484,-9.84567,4.63583E+18,-0.001444,0.798716,-0.136887,-0.585928,-9.933293,0.751568,-3.278788,-0.004492,-0.109505,0.305477,35.316017,-8.484145,29.450582,4.63583E+18,0.588372,-0.067935,0.800301,0.093389,0
-13.77073,-1.824107,3.535311,0.639439,-0.21256,0.159044,40.314071,-21.729177,-9.345234,4.63583E+18,-0.3851,0.573518,-0.393785,-0.606389,-10.532541,-4.290727,1.027778,-0.228041,1.235023,0.866419,43.815636,-8.044835,-9.357399,4.63583E+18,0.002279,0.801244,-0.139079,-0.581944,-8.948028,0.908201,-2.960369,-0.03364,-0.102993,0.262198,35.396322,-8.564449,29.536768,4.63583E+18,0.585793,-0.089298,0.797903,0.110556,0
-12.232277,-1.329743,2.665592,0.69788,-0.733164,0.215765,40.196802,-21.784109,-9.758507,4.63583E+18,-0.387406,0.57017,-0.394899,-0.607353,-10.667627,-1.786042,0.811181,0.528592,1.108314,1.119953,44.166808,-8.666997,-9.013172,4.63583E+18,0.004018,0.80329,-0.143946,-0.577917,-8.210142,1.271187,-2.769904,-0.05131,-0.105554,0.208366,35.412942,-8.707262,29.553388,4.63583E+18,0.586069,-0.088622,0.797673,0.111302,0
-10.365331,-0.707707,1.615359,0.902958,-1.0123,0.223364,40.03813,-22.005966,-9.94119,4.63583E+18,-0.390629,0.565758,-0.396089,-0.608638,-9.375782,0.154092,0.340228,1.002304,1.009581,1.214588,44.949635,-9.864884,-8.611336,4.63583E+18,0.00434,0.805006,-0.150266,-0.573905,-8.040561,1.741393,-2.517961,-0.0684,-0.118796,0.146864,35.413677,-8.716086,29.554123,4.63583E+18,0.58641,-0.088185,0.797378,0.11196,0
-8.311832,-0.052871,1.528902,1.117721,-0.89376,0.169431,39.906886,-22.308114,-9.857951,4.63583E+18,-0.394286,0.561366,-0.397876,-0.609181,-8.828777,0.576795,-0.873023,1.205051,0.855653,1.099458,45.005648,-10.413844,-8.145404,4.63583E+18,0.003611,0.806382,-0.156678,-0.570251,-8.19306,1.770074,-2.341929,-0.072441,-0.136695,0.091944,35.482502,-8.79638,29.462359,4.63583E+18,0.586834,-0.087933,0.797017,0.112504,0
-6.674192,0.532244,1.850273,1.173564,-0.530034,0.081276,39.85717,-22.473829,-9.685724,4.63583E+18,-0.397682,0.557934,-0.400183,-0.608615,-8.440258,1.717211,-1.977803,1.232704,0.679471,0.934634,44.384966,-10.293665,-7.601942,4.63583E+18,0.002283,0.807406,-0.162598,-0.567144,-8.146022,1.448898,-2.446319,-0.047542,-0.147828,0.049513,35.636039,-8.939184,29.181171,4.63583E+18,0.587324,-0.087755,0.796625,0.112865,0
-5.835253,0.758652,1.818569,1.106171,-0.219069,-0.018275,39.85717,-22.473829,-9.591996,4.63583E+18,-0.400644,0.555553,-0.402594,-0.607258,-7.887934,3.28453,-2.947969,1.109476,0.508911,0.763809,44.102316,-10.646201,-7.24255,4.63583E+18,0.000851,0.808107,-0.167647,-0.564674,-8.062044,1.026797,-2.70604,-0.003776,-0.139439,0.027929,35.71444,-9.01685,29.071721,4.63583E+18,0.587811,-0.087546,0.796266,0.113024,0
-5.62671,0.576906,1.529084,1.035285,-0.089922,-0.124053,39.85717,-22.497342,-9.561413,4.63583E+18,-0.403485,0.553784,-0.404788,-0.605532,-7.965996,3.298409,-3.890499,0.872079,0.346884,0.61205,44.20345,-10.947187,-7.100967,4.63583E+18,-0.000252,0.80851,-0.171622,-0.562901,-8.183047,0.645463,-2.87135,0.039074,-0.129827,0.021686,35.650048,-8.883641,29.15758,4.63583E+18,0.588286,-0.087257,0.795947,0.113023,0
-5.739142,0.316632,1.307997,0.961805,-0.080757,-0.219091,39.908115,-22.574505,-9.619433,4.63583E+18,-0.40642,0.552281,-0.406628,-0.603707,-7.885555,2.104008,-4.676427,0.631908,0.22709,0.480041,44.10492,-10.873783,-6.935963,4.63583E+18,-0.000941,0.808713,-0.174588,-0.561695,-8.386118,0.473498,-2.938286,0.06875,-0.123225,0.015342,35.634151,-8.725703,29.255229,4.63583E+18,0.588751,-0.08692,0.795657,0.112905,0
-5.965799,0.122527,1.122331,0.846093,-0.056956,-0.288452,40.043296,-22.605098,-9.497967,4.63583E+18,-0.409182,0.551166,-0.408021,-0.601918,-7.830119,1.152494,-5.007303,0.478599,0.15435,0.361138,43.885933,-11.167275,-6.733633,4.63583E+18,-0.001443,0.808827,-0.176792,-0.56084,-8.467508,0.532695,-2.930515,0.088561,-0.142908,0.018968,35.564596,-8.647272,29.352897,4.63583E+18,0.589287,-0.086513,0.795328,0.112737,0
-6.309695,0.164261,0.908628,0.787329,0.075799,-0.330545,40.156167,-22.57058,-9.146978,4.63583E+18,-0.411693,0.550541,-0.409399,-0.599838,-8.075103,0.889999,-4.7556,0.371622,0.090483,0.237967,43.779057,-11.582356,-6.689657,4.63583E+18,-0.00192,0.808878,-0.17833,-0.560277,-8.368741,0.2734,-3.078839,0.125843,-0.173296,0.027253,35.628965,-8.562577,29.255607,4.63583E+18,0.589933,-0.085972,0.794944,0.112477,0
-6.855398,0.414883,0.82664,0.803511,0.326825,-0.34836,40.299648,-22.620317,-8.88926,4.63583E+18,-0.413853,0.550538,-0.411203,-0.597114,-8.257799,0.645425,-4.271321,0.248482,0.032286,0.149192,43.763542,-11.410489,-6.766631,4.63583E+18,-0.002233,0.80886,-0.17928,-0.56,-8.281798,-0.007397,-3.386628,0.172328,-0.187217,0.04483,35.702214,-8.557389,29.157198,4.63583E+18,0.590633,-0.085252,0.794554,0.112111,0
-7.650833,0.756635,0.762155,0.802421,0.567249,-0.368189,40.279358,-22.542002,-8.674852,4.63583E+18,-0.415701,0.551117,-0.413424,-0.593753,-8.298447,0.085683,-3.999174,0.147028,0.001775,0.093727,43.821264,-11.205989,-6.643007,4.63583E+18,-0.002355,0.808811,-0.179806,-0.559901,-8.36835,0.11318,-3.612258,0.207282,-0.180971,0.05496,35.935978,-8.626187,29.059549,4.63583E+18,0.591319,-0.084416,0.794198,0.111651,0
-8.487613,1.039705,0.641001,0.763321,0.613175,-0.385944,40.113525,-22.293939,-8.394082,4.63583E+18,-0.417332,0.551957,-0.4155,-0.590371,-8.310655,-0.481743,-3.849375,0.140578,-0.01078,0.059746,43.769444,-11.304458,-6.45028,4.63583E+18,-0.002545,0.808759,-0.180203,-0.559848,-8.637969,0.30551,-3.751711,0.1913,-0.176504,0.052534,36.019592,-8.699423,28.961902,4.63583E+18,0.591984,-0.083629,0.793843,0.111237,0
-9.109034,1.163159,0.505339,0.695847,0.439085,-0.387355,40.246664,-22.064993,-8.117227,4.63583E+18,-0.419104,0.552478,-0.417098,-0.587493,-8.534509,-0.848291,-3.445725,0.236795,-0.025444,0.071085,43.683992,-11.205993,-6.485849,4.63583E+18,-0.003043,0.808662,-0.180862,-0.559773,-8.884342,0.21421,-3.507657,0.175083,-0.171229,0.045317,35.955258,-8.784131,28.875707,4.63583E+18,0.592629,-0.082908,0.793491,0.110857,0
-9.467189,1.200241,0.506955,0.650884,0.260708,-0.390862,40.52858,-21.976322,-7.872159,4.63583E+18,-0.421087,0.552641,-0.418261,-0.585091,-9.055731,-0.761649,-2.863871,0.399731,-0.084391,0.126339,44.069886,-11.496825,-6.496927,4.63583E+18,-0.004005,0.808382,-0.182086,-0.559773,-9.243137,0.04702,-3.101518,0.191162,-0.167894,0.046869,35.939338,-8.64029,28.778792,4.63583E+18,0.593267,-0.082144,0.793154,0.110425,0
-9.566228,1.188954,0.578584,0.578088,0.241886,-0.395557,40.477675,-22.006952,-7.64943,4.63583E+18,-0.422941,0.552888,-0.419198,-0.582845,-9.574339,-0.547098,-2.263135,0.585003,-0.15657,0.223251,44.909623,-12.363952,-6.465482,4.63583E+18,-0.00542,0.807854,-0.184067,-0.559876,-9.437369,0.151255,-2.77822,0.223361,-0.159675,0.055023,35.938595,-8.481611,28.853092,4.63583E+18,0.593884,-0.081277,0.792853,0.109905,0
-9.653279,1.112262,0.450999,0.479664,0.3259,-0.389432,40.448181,-21.8667,-7.400001,4.63583E+18,-0.424403,0.553498,-0.420055,-0.580582,-9.940148,-0.240826,-1.780441,0.797384,-0.18712,0.312998,45.241003,-12.958333,-6.448099,4.63583E+18,-0.013873,0.804947,-0.196215,-0.559793,-9.528773,0.250402,-2.518146,0.243434,-0.148121,0.058553,36.007376,-8.471938,28.766596,4.63583E+18,0.594467,-0.080354,0.792591,0.109323,0
-9.939495,0.920243,0.23726,0.4081,0.422646,-0.364306,40.664897,-21.669079,-7.216919,4.63583E+18,-0.425467,0.554419,-0.420964,-0.578262,-10.279357,0.377287,-1.646152,1.028971,-0.176893,0.368994,45.027207,-13.071539,-6.522448,4.63583E+18,-0.016369,0.804216,-0.199587,-0.559584,-9.683004,0.41684,-2.273254,0.237585,-0.143392,0.057745,36.023304,-8.62096,28.852348,4.63583E+18,0.595032,-0.07945,0.792336,0.108756,0
-10.441099,0.597063,0.249161,0.376015,0.510029,-0.321949,40.776641,-21.670178,-6.998592,4.63583E+18,-0.426197,0.555529,-0.422045,-0.575865,-10.399965,1.044257,-1.587705,1.154566,-0.132647,0.380876,44.959866,-13.199155,-6.466229,4.63583E+18,-0.019218,0.803553,-0.203288,-0.559112,-9.807297,0.633572,-2.120828,0.208044,-0.133103,0.05066,36.092817,-8.550401,28.949997,4.63583E+18,0.595556,-0.078648,0.79209,0.108265,0
-11.080712,0.318182,0.356366,0.356036,0.571665,-0.246648,40.784935,-21.828869,-6.705626,4.63583E+18,-0.426588,0.556686,-0.423359,-0.57349,-10.384063,1.79963,-1.642077,1.132887,-0.097365,0.36534,44.959866,-13.300147,-6.522448,4.63583E+18,-0.021995,0.802972,-0.206876,-0.558528,-9.837675,0.738686,-2.020187,0.166036,-0.122421,0.039171,36.246295,-8.46495,29.036193,4.63583E+18,0.596035,-0.077992,0.791847,0.107881,0
-11.569316,-0.017201,0.102849,0.369768,0.510119,-0.144754,40.839701,-21.909321,-6.447868,4.63583E+18,-0.426872,0.557486,-0.424828,-0.57141,-10.260898,2.484668,-1.756369,1.003756,-0.079013,0.331584,44.90217,-13.452904,-6.466238,4.63583E+18,-0.024401,0.802459,-0.210049,-0.557982,-9.850629,0.824884,-2.163224,0.118296,-0.114749,0.022407,36.187217,-8.471192,29.041412,4.63583E+18,0.59648,-0.077514,0.791595,0.107611,0
-11.677011,-0.179199,-0.202203,0.413783,0.363665,-0.061885,41.034085,-21.823865,-6.264749,4.63583E+18,-0.427441,0.557618,-0.426452,-0.569644,-10.037486,2.893837,-1.801513,0.803736,-0.05228,0.268958,44.896239,-13.950745,-6.128184,4.63583E+18,-0.026281,0.802064,-0.212579,-0.557506,-9.70239,0.864485,-2.356284,0.067226,-0.103261,0.001307,36.091059,-8.391715,28.777825,4.63583E+18,0.59688,-0.077237,0.791342,0.107452,0
-11.352182,-0.135705,-0.229453,0.456835,0.281265,-0.019217,41.149144,-21.738424,-6.077749,4.63583E+18,-0.428043,0.55748,-0.428023,-0.568147,-9.841434,3.072161,-1.81631,0.584238,-0.03247,0.191964,44.966132,-14.334734,-5.965747,4.63583E+18,-0.027603,0.801795,-0.214362,-0.557146,-9.486393,0.832345,-2.54014,0.028992,-0.084492,-0.023064,36.234069,-8.306264,28.577277,4.63583E+18,0.597216,-0.077145,0.791111,0.107353,0
-10.692462,-0.029757,-0.216868,0.482126,0.295334,-0.002437,41.01392,-21.652978,-5.913726,4.63583E+18,-0.428623,0.557308,-0.429701,-0.56661,-9.716015,2.831476,-1.741988,0.378279,-0.017904,0.126383,44.916981,-14.202832,-6.098836,4.63583E+18,-0.028366,0.801643,-0.215436,-0.556912,-9.369802,0.910325,-2.734712,-0.015413,-0.079304,-0.045626,36.381305,-8.15205,28.462182,4.63583E+18,0.597531,-0.077239,0.790865,0.107342,0
-9.994819,0.079632,-0.366222,0.505325,0.340755,-0.02142,41.006666,-21.567527,-5.819977,4.63583E+18,-0.429217,0.557233,-0.431468,-0.564889,-9.529252,2.268595,-1.711631,0.219318,-0.007384,0.078736,44.831536,-14.090701,-6.21723,4.63583E+18,-0.028692,0.801579,-0.215972,-0.55678,-9.305784,0.86972,-2.769583,-0.049241,-0.084056,-0.068054,36.321515,-8.142338,28.547128,4.63583E+18,0.597861,-0.07749,0.790585,0.107388,0
-9.655012,0.198273,-0.272383,0.502014,0.365766,-0.078466,41.141902,-21.536815,-5.730615,4.63583E+18,-0.42989,0.557321,-0.433137,-0.56301,-9.302506,1.597969,-1.834005,0.129115,0.007276,0.050925,44.880669,-14.132814,-6.161079,4.63583E+18,-0.02877,0.801583,-0.216211,-0.556678,-9.233288,0.660467,-2.725245,-0.060295,-0.097418,-0.079456,36.248273,-8.371514,28.564574,4.63583E+18,0.598236,-0.077799,0.790263,0.107446,0
-9.294067,0.264174,-0.065425,0.444161,0.309994,-0.143871,41.149163,-21.618353,-5.570408,4.63583E+18,-0.430671,0.557504,-0.434407,-0.561251,-9.147469,0.83745,-2.088831,0.101448,0.019093,0.041725,44.966119,-14.215671,-6.140324,4.63583E+18,-0.028769,0.801625,-0.21636,-0.556559,-9.091291,0.360522,-2.82538,-0.055871,-0.118323,-0.073093,36.392746,-8.455239,28.565323,4.63583E+18,0.598678,-0.078068,0.789893,0.107512,0
-8.74532,0.288587,-0.037104,0.389527,0.258201,-0.192787,41.017839,-21.66814,-5.246186,4.63583E+18,-0.43154,0.557743,-0.435349,-0.559613,-9.070865,0.306114,-2.39844,0.097428,0.039027,0.041431,44.926603,-14.301123,-6.140324,4.63583E+18,-0.028742,0.801713,-0.216507,-0.556377,-8.990648,-0.070661,-2.923777,-0.020455,-0.124645,-0.065616,36.402477,-8.310783,28.553866,4.63583E+18,0.599149,-0.078221,0.789525,0.107482,0
-8.566697,0.320817,-0.055196,0.369963,0.304598,-0.235127,41.022757,-21.640785,-4.922,4.63583E+18,-0.432376,0.5582,-0.436229,-0.557825,-8.836794,0.121009,-3.15803,0.065238,0.071552,0.047546,44.901425,-14.251993,-5.986516,4.63583E+18,-0.028564,0.801873,-0.216604,-0.556117,-9.167966,-0.39555,-2.987063,0.033972,-0.124973,-0.055132,36.322275,-8.301034,28.472915,4.63583E+18,0.599634,-0.078203,0.789184,0.107299,0
-8.860646,0.400899,-0.154303,0.377058,0.299375,-0.275157,41.189741,-21.527991,-4.801417,4.63583E+18,-0.433328,0.558702,-0.43702,-0.555961,-8.411874,0.472521,-4.152222,-0.052723,0.153895,-0.000486,45.148736,-14.041596,-5.791216,4.63583E+18,-0.028019,0.802286,-0.216262,-0.555682,-9.55806,-0.071331,-2.933527,0.073476,-0.132993,-0.04445,36.38577,-8.369779,28.284347,4.63583E+18,0.600152,-0.078048,0.788843,0.107015,0
-9.230265,0.559102,-0.07324,0.392138,0.185215,-0.30344,41.270299,-21.333654,-4.782371,4.63583E+18,-0.434587,0.558961,-0.437572,-0.554281,-7.928827,0.592969,-5.340897,-0.302565,0.287631,-0.149272,45.283494,-13.855139,-5.82657,4.63583E+18,-0.026856,0.803172,-0.214849,-0.555007,-9.617179,0.18029,-2.803761,0.095886,-0.130511,-0.038782,36.459004,-8.45447,28.180698,4.63583E+18,0.600667,-0.07782,0.78852,0.106671,0
-9.386512,0.738292,0.188959,0.363389,0.085325,-0.323733,41.239532,-21.112959,-4.634437,4.63583E+18,-0.436005,0.559076,-0.437828,-0.552847,-7.661555,0.405939,-6.285594,-0.656445,0.369608,-0.333029,45.176729,-13.886059,-6.001125,4.63583E+18,-0.024869,0.804441,-0.212023,-0.554348,-9.493419,0.241142,-2.658025,0.104218,-0.123297,-0.044468,36.394779,-8.37954,28.174686,4.63583E+18,0.601164,-0.077592,0.788217,0.106282,0
-9.471473,0.858424,0.215357,0.308995,0.081562,-0.341636,41.375757,-21.024072,-4.416156,4.63583E+18,-0.437343,0.559312,-0.437908,-0.551486,-7.444454,0.28675,-6.652499,-1.04537,0.407848,-0.510676,45.13337,-13.836968,-5.898527,4.63583E+18,-0.021969,0.805974,-0.20772,-0.553874,-9.393505,0.312883,-2.511536,0.1137,-0.114818,-0.04386,36.52774,-8.156617,28.174686,4.63583E+18,0.601634,-0.077343,0.787939,0.105861,0
-9.604766,0.843295,-0.041972,0.288615,0.093486,-0.351719,41.56913,-21.082186,-4.295562,4.63583E+18,-0.438636,0.559627,-0.437941,-0.550113,-7.119071,0.143666,-6.64422,-1.3972,0.42621,-0.662288,45.31331,-13.492128,-5.628975,4.63583E+18,-0.018223,0.80768,-0.202092,-0.553606,-9.307321,0.374658,-2.387986,0.132331,-0.114292,-0.045798,36.536758,-8.062166,28.25486,4.63583E+18,0.60211,-0.077053,0.787669,0.105374,0
-9.772245,0.773961,-0.140166,0.276694,0.066918,-0.355992,41.599918,-21.027528,-4.135396,4.63583E+18,-0.439977,0.559893,-0.437905,-0.548798,-7.072497,0.234774,-6.340372,-1.683315,0.43528,-0.771415,45.42036,-13.077047,-5.729917,4.63583E+18,-0.013758,0.809475,-0.195422,-0.553507,-9.221861,0.607516,-2.323172,0.146548,-0.105272,-0.050942,36.468031,-8.137066,28.271593,4.63583E+18,0.602562,-0.076749,0.787427,0.104824,0
-9.828445,0.744156,-0.091775,0.268707,0.013939,-0.355482,41.619876,-20.887857,-4.108506,4.63583E+18,-0.441371,0.560067,-0.437733,-0.547637,-7.214798,0.35503,-5.484196,-1.84364,0.417537,-0.855614,45.426348,-12.662024,-5.927821,4.63583E+18,-0.008961,0.811248,-0.188084,-0.553553,-9.090606,0.714202,-2.262141,0.154419,-0.102674,-0.052273,36.612405,-8.062166,28.260894,4.63583E+18,0.603008,-0.07643,0.787193,0.104244,0
-9.695154,0.730026,-0.323658,0.252598,-0.050188,-0.343434,41.86012,-20.810709,-4.241301,4.63583E+18,-0.442826,0.560093,-0.437442,-0.546667,-8.442338,0.897152,-3.390828,-1.772213,0.27614,-0.823086,45.481382,-12.247023,-5.902178,4.63583E+18,-0.004444,0.812604,-0.181003,-0.553979,-8.979232,0.662972,-2.281276,0.169913,-0.100538,-0.049333,36.690927,-7.988168,28.351762,4.63583E+18,0.603451,-0.076064,0.786972,0.103619,0
-9.566701,0.596245,-0.696746,0.222062,-0.143275,-0.329846,41.967135,-20.647188,-4.413687,4.63583E+18,-0.444341,0.559942,-0.436934,-0.545999,-10.474928,2.238481,-0.056545,-1.620945,0.150162,-0.685248,45.554632,-11.889583,-5.883968,4.63583E+18,-0.000218,0.81351,-0.174725,-0.554683,-8.903723,0.6592,-2.385861,0.185936,-0.090385,-0.04212,36.558019,-7.983642,28.449422,4.63583E+18,0.603861,-0.075638,0.786785,0.102957,0
-9.534984,0.316602,-0.675019,0.13655,-0.246548,-0.320532,41.83187,-20.39567,-4.452802,4.63583E+18,-0.445818,0.559698,-0.436057,-0.545746,-11.360446,1.718331,1.841398,-1.439353,0.147052,-0.590219,45.493397,-11.557436,-6.04725,4.63583E+18,0.003608,0.814297,-0.169179,-0.555235,-8.876291,0.567576,-2.587351,0.192939,-0.07369,-0.02863,36.537513,-7.766035,28.363833,4.63583E+18,0.604213,-0.075158,0.786646,0.1023,0
-9.55148,-0.19319,-0.000356,0.030666,-0.270779,-0.315148,41.828357,-20.392157,-4.390764,4.63583E+18,-0.447079,0.559585,-0.434906,-0.545749,-11.715092,0.778508,2.359821,-1.161421,0.150224,-0.485346,45.405341,-11.227822,-6.168337,4.63583E+18,0.00668,0.814974,-0.164706,-0.555558,-8.806072,0.240896,-2.817757,0.187323,-0.061612,-0.008734,36.754339,-7.591379,28.254733,4.63583E+18,0.604514,-0.074632,0.786542,0.101707,0
-9.751204,-0.715096,0.634283,-0.03242,-0.201184,-0.295215,41.940736,-20.481126,-4.444885,4.63583E+18,-0.448029,0.559702,-0.433795,-0.545734,-11.78975,1.325591,2.301798,-0.938975,0.173075,-0.380752,45.57924,-11.023087,-6.265999,4.63583E+18,0.009226,0.81561,-0.161138,-0.555634,-8.973289,-0.810777,-2.740517,0.209969,-0.045856,0.015566,36.7687,-7.729649,28.339532,4.63583E+18,0.60476,-0.073975,0.786494,0.101097,0
-9.949892,-1.210912,0.557796,-0.037191,-0.153888,-0.228075,41.93243,-20.344982,-4.612878,4.63583E+18,-0.448728,0.559814,-0.432918,-0.545741,-11.379358,2.140614,1.079618,-0.810456,0.197097,-0.327803,45.6889,-10.784968,-6.440485,4.63583E+18,0.011565,0.816284,-0.157909,-0.555528,-9.4312,-1.703335,-2.814608,0.274612,-0.031838,0.04915,36.699998,-7.888344,28.35704,4.63583E+18,0.604965,-0.073052,0.786517,0.100354,0
-10.216962,-1.254973,0.341807,0.006342,-0.161214,-0.140986,41.93243,-20.100814,-4.660335,4.63583E+18,-0.449335,0.559678,-0.43232,-0.545856,-10.844849,2.441658,-0.222769,-0.769577,0.22541,-0.325259,45.176288,-10.413369,-6.347672,4.63583E+18,0.013724,0.816993,-0.154873,-0.555292,-10.124759,-1.322817,-2.81991,0.319859,-0.01595,0.075313,36.764147,-7.829498,28.254759,4.63583E+18,0.60512,-0.071936,0.786607,0.099525,0
-10.613346,-1.043204,0.373009,0.058172,-0.123174,-0.065791,41.955832,-19.93469,-4.633393,4.63583E+18,-0.449824,0.559395,-0.432085,-0.545929,-10.336536,2.132352,-1.295048,-0.816897,0.267083,-0.360468,44.495275,-9.616753,-6.186373,4.63583E+18,0.015989,0.817806,-0.151603,-0.554937,-10.718298,-0.332306,-2.613836,0.29954,-0.005938,0.077908,36.7687,-7.676114,28.156343,4.63583E+18,0.605233,-0.070866,0.786712,0.098765,0
-11.048009,-0.620934,0.455059,0.085497,-0.08828,-0.00447,42.005676,-19.989265,-4.69985,4.63583E+18,-0.450173,0.559029,-0.432122,-0.545987,-10.095361,1.779354,-2.185931,-0.890678,0.258164,-0.400669,44.464731,-8.963169,-6.229355,4.63583E+18,0.018406,0.818604,-0.148023,-0.554651,-10.811965,0.544285,-2.268169,0.220879,-0.012353,0.059943,36.688559,-7.597558,28.333449,4.63583E+18,0.605351,-0.070051,0.786763,0.098219,0
-11.316572,-0.082986,0.616938,0.085703,-0.110261,0.005717,42.009574,-20.101695,-4.606293,4.63583E+18,-0.450543,0.558592,-0.432145,-0.546111,-9.905256,1.248106,-2.742743,-0.939627,0.227944,-0.414142,44.889695,-9.030214,-6.394231,4.63583E+18,0.020939,0.819321,-0.144282,-0.554489,-10.483791,0.987367,-1.879852,0.122614,-0.016824,0.033707,36.614562,-7.512875,28.437167,4.63583E+18,0.605465,-0.069568,0.786754,0.09793,0
-11.468188,0.523177,0.852158,0.093521,-0.061396,-0.034001,42.041272,-20.069996,-4.469244,4.63583E+18,-0.450949,0.55831,-0.4322,-0.54602,-9.796362,0.335657,-3.151612,-0.8939,0.190018,-0.390302,44.804435,-9.082308,-6.433301,4.63583E+18,0.023346,0.819924,-0.140728,-0.554414,-10.095438,1.059003,-1.763948,0.029287,-0.020095,0.001996,36.678685,-7.507553,28.260095,4.63583E+18,0.605575,-0.069423,0.78669,0.097868,0
-11.238009,1.160384,0.644338,0.092517,-0.006608,-0.045454,42.114513,-20.047426,-4.723021,4.63583E+18,-0.451267,0.558186,-0.432317,-0.545792,-9.768528,-0.45402,-3.311774,-0.740463,0.147139,-0.333897,44.157042,-8.506214,-6.231669,4.63583E+18,0.025334,0.820397,-0.137724,-0.554382,-9.727695,0.947573,-1.975361,-0.028585,-0.015287,-0.027044,36.751931,-7.507553,28.064777,4.63583E+18,0.605665,-0.069522,0.786605,0.097921,0
-10.624024,2.201026,0.26932,0.034672,0.059506,-0.046839,42.14099,-20.156251,-4.855924,4.63583E+18,-0.451329,0.558328,-0.432417,-0.545516,-9.612321,-0.907974,-3.23662,-0.518879,0.105031,-0.263324,44.321885,-8.474665,-6.167346,4.63583E+18,0.026703,0.820747,-0.135475,-0.554353,-9.498887,0.711083,-2.264471,-0.047065,-0.026971,-0.045863,36.756493,-7.507553,28.144168,4.63583E+18,0.605795,-0.069724,0.786479,0.09799,0
-9.91472,2.909018,0.184699,-0.069955,0.246786,-0.07796,42.118403,-20.237012,-4.500358,4.63583E+18,-0.450893,0.559137,-0.432572,-0.544924,-9.445807,-1.113597,-3.06655,-0.264801,0.070934,-0.183972,45.524109,-9.343743,-6.212738,4.63583E+18,0.027366,0.820999,-0.134087,-0.554286,-9.199048,0.844596,-2.500223,-0.066091,-0.052806,-0.06302,36.687826,-7.587662,28.241825,4.63583E+18,0.606011,-0.07002,0.786274,0.098086,0
-9.841004,3.280947,0.570637,-0.159205,0.519328,-0.198587,42.203853,-20.100912,-4.281939,4.63583E+18,-0.450033,0.560947,-0.432757,-0.543627,-9.469507,-0.9459,-2.797041,-0.011121,0.054009,-0.113712,46.152984,-9.7626,-6.139378,4.63583E+18,0.026663,0.821042,-0.134491,-0.554158,-8.836601,0.820182,-2.652072,-0.06529,-0.089528,-0.073102,36.683247,-7.730351,28.167812,4.63583E+18,0.606352,-0.070332,0.785974,0.098164,0
-10.049551,3.357182,0.901091,-0.391326,0.578038,-0.249221,42.262032,-19.93469,-4.223762,4.63583E+18,-0.448631,0.563416,-0.4324,-0.542516,-9.552351,-0.641546,-2.283268,0.203163,0.063871,-0.064898,45.91525,-9.622756,-5.971912,4.63583E+18,0.026044,0.821274,-0.134522,-0.553836,-9.054046,0.291523,-3.27913,-0.048136,-0.134915,-0.083715,36.683247,-7.670836,28.070936,4.63583E+18,0.60685,-0.070617,0.785562,0.098172,0
-9.162941,2.267987,1.159958,-0.556598,0.515672,-0.184511,42.216768,-19.910318,-4.171535,4.63583E+18,-0.446802,0.565931,-0.431698,-0.541966,-9.445807,-0.237755,-1.632722,0.35426,0.085773,-0.028664,45.768994,-9.637803,-5.856,4.63583E+18,0.024956,0.82154,-0.135093,-0.553353,-9.688081,-0.29296,-3.823953,-0.026971,-0.163826,-0.083382,36.751913,-7.517476,28.144929,4.63583E+18,0.607449,-0.070836,0.785086,0.09812,0
-8.663565,0.36406,0.003454,-0.335283,0.642575,-0.120756,42.124215,-19.75527,-4.016288,4.63583E+18,-0.445107,0.568209,-0.431868,-0.540841,-9.363915,0.295049,-1.182147,0.430498,0.120188,-0.006245,46.079702,-9.915219,-5.979119,4.63583E+18,0.023627,0.821865,-0.135989,-0.552708,-10.118402,-0.730146,-3.857539,0.019426,-0.181585,-0.078309,36.825156,-7.507553,27.967166,4.63583E+18,0.608117,-0.070913,0.784585,0.097933,0
-9.121895,-1.49552,-2.395159,-0.051726,0.45286,-0.030123,42.200937,-19.495281,-3.903004,4.63583E+18,-0.444218,0.569367,-0.432536,-0.539819,-9.466051,0.837378,-1.281035,0.439922,0.159252,-0.008015,46.293177,-9.918467,-6.01825,4.63583E+18,0.022374,0.822303,-0.136761,-0.551919,-9.686641,-0.276262,-3.308285,-0.001599,-0.175645,-0.066961,36.898393,-7.57621,27.783312,4.63583E+18,0.608754,-0.071009,0.784094,0.097843,0
-9.937982,-2.509032,-3.164097,0.129502,-0.195787,0.054282,42.28639,-19.479425,-3.71641,4.63583E+18,-0.444737,0.568577,-0.432611,-0.540164,-9.602942,1.268922,-1.666549,0.389457,0.192895,-0.025571,46.058341,-9.641049,-5.874275,4.63583E+18,0.021282,0.822822,-0.13734,-0.551043,-9.450088,0.705596,-2.218856,-0.063279,-0.184187,-0.057214,36.971635,-7.432042,27.668858,4.63583E+18,0.609397,-0.071227,0.783558,0.097981,0
-10.583818,-2.963056,-1.888514,0.171548,-0.747383,0.101468,42.347481,-19.617229,-3.684593,4.63583E+18,-0.44624,0.566379,-0.431868,-0.541825,-9.689224,1.527771,-2.007393,0.289493,0.214019,-0.052581,45.860524,-9.570604,-5.758361,4.63583E+18,0.020434,0.823383,-0.137669,-0.550155,-9.173141,0.894936,-1.690795,-0.119358,-0.172775,-0.049603,37.056323,-7.342002,27.753518,4.63583E+18,0.609981,-0.071566,0.783029,0.098317,0
-10.458565,-2.539861,0.082421,0.150129,-0.815052,0.081851,42.298772,-19.657458,-4.118723,4.63583E+18,-0.447855,0.564097,-0.4309,-0.543641,-9.628111,1.536368,-2.295986,0.166881,0.235536,-0.078902,45.960947,-9.70496,-5.73748,4.63583E+18,0.019913,0.823985,-0.137692,-0.549267,-8.675017,0.399929,-2.026329,-0.136853,-0.163963,-0.034118,37.061676,-7.336649,27.759636,4.63583E+18,0.610525,-0.071904,0.78252,0.098747,0
-10.064339,-1.389236,1.544713,0.178215,-0.454349,-0.00756,42.127875,-19.629441,-4.60896,4.63583E+18,-0.449087,0.562736,-0.430454,-0.544387,-9.415289,1.343585,-2.451998,0.066031,0.244532,-0.0953,46.189431,-9.731911,-5.58393,4.63583E+18,0.019792,0.824628,-0.137297,-0.548403,-8.745813,-0.20584,-2.439846,-0.110761,-0.172437,-0.029108,37.061676,-7.416738,27.759636,4.63583E+18,0.611102,-0.072155,0.782001,0.099107,0
-9.811415,-0.056629,1.619247,0.178418,0.005703,-0.084812,42.005676,-19.714887,-4.754072,4.63583E+18,-0.449669,0.562556,-0.430688,-0.543909,-9.247944,1.015742,-2.439725,0.008991,0.245674,-0.102467,46.299211,-9.604571,-5.388648,4.63583E+18,0.019854,0.825273,-0.136743,-0.547568,-9.164593,-0.175501,-2.443013,-0.060898,-0.159024,-0.042856,37.061676,-7.719573,27.679546,4.63583E+18,0.611655,-0.07233,0.781532,0.099265,0
-9.690904,0.742667,0.515399,0.124122,0.200718,-0.113975,42.054365,-19.772516,-4.534409,4.63583E+18,-0.449838,0.562971,-0.431096,-0.543015,-9.226184,0.661746,-2.390897,-0.02961,0.25239,-0.095216,46.314888,-9.436289,-5.279685,4.63583E+18,0.020073,0.825927,-0.136117,-0.546731,-9.523931,0.538368,-2.144044,-0.030653,-0.146074,-0.065816,36.993039,-7.876772,27.674183,4.63583E+18,0.612184,-0.072508,0.781102,0.099262,0
-9.724048,0.955655,-0.329527,0.054061,0.112724,-0.11356,42.176579,-19.763786,-4.333628,4.63583E+18,-0.450001,0.563317,-0.431181,-0.542455,-9.238391,0.336513,-2.457195,-0.055854,0.262614,-0.076139,46.180574,-9.409295,-5.107888,4.63583E+18,0.020429,0.826588,-0.135501,-0.54587,-9.729225,1.089305,-1.769455,-0.051863,-0.132255,-0.106332,36.988434,-7.817344,27.674183,4.63583E+18,0.612679,-0.072877,0.780685,0.099221,0
-9.644171,0.933098,-0.331539,0.004775,0.014515,-0.076029,42.200913,-19.739452,-4.305818,4.63583E+18,-0.450139,0.563465,-0.431058,-0.542283,-9.269782,0.028743,-2.621995,-0.057527,0.274973,-0.040509,46.086428,-9.536614,-4.912588,4.63583E+18,0.020869,0.827253,-0.135016,-0.544965,-9.844466,1.088762,-1.608381,-0.102455,-0.127378,-0.145987,37.12571,-7.595383,27.662743,4.63583E+18,0.613158,-0.073507,0.780247,0.09924,0
-9.326706,0.778048,-0.183111,-0.04131,0.023419,-0.03757,42.258556,-19.633147,-4.239445,4.63583E+18,-0.450066,0.563652,-0.430938,-0.542245,-9.335181,-0.170917,-2.728361,-0.028074,0.283594,0.005726,46.205033,-9.704899,-4.870754,4.63583E+18,0.02131,0.827912,-0.134767,-0.544009,-9.874252,0.480224,-1.724992,-0.113754,-0.1161,-0.159482,37.28362,-7.42066,27.570468,4.63583E+18,0.613601,-0.074214,0.779829,0.099259,0
-9.174619,0.523408,-0.276932,-0.079019,0.117821,-0.013886,42.228975,-19.568286,-4.2725,4.63583E+18,-0.449681,0.56408,-0.430966,-0.542098,-9.427611,-0.255488,-2.756258,0.018315,0.29275,0.055471,46.299198,-9.741508,-4.861162,4.63583E+18,0.021709,0.828566,-0.134793,-0.542989,-9.749968,-0.086696,-2.0766,-0.086268,-0.102349,-0.154217,37.293617,-7.409894,27.47281,4.63583E+18,0.614006,-0.07484,0.779458,0.099197,0
-9.340083,0.3002,-0.700353,-0.106923,0.201748,-0.01571,42.152254,-19.687067,-4.305829,4.63583E+18,-0.449084,0.564752,-0.431083,-0.541799,-9.419756,-0.258972,-2.739691,0.067445,0.306558,0.10483,46.247748,-9.607229,-4.714677,4.63583E+18,0.022063,0.829229,-0.135089,-0.541889,-9.695755,-0.270772,-2.317001,-0.067369,-0.088463,-0.133796,37.442314,-7.478524,27.466658,4.63583E+18,0.614363,-0.075357,0.779137,0.099121,0
-9.620944,0.078684,-1.133687,-0.136419,0.162758,-0.027896,42.11545,-19.608837,-4.187321,4.63583E+18,-0.448514,0.565414,-0.431031,-0.541622,-9.33518,-0.141263,-2.696094,0.094759,0.330743,0.14725,46.296573,-9.637742,-4.521979,4.63583E+18,0.022433,0.829922,-0.135591,-0.540685,-9.589746,-0.257896,-2.365925,-0.039205,-0.097595,-0.126446,37.520936,-7.483138,27.466658,4.63583E+18,0.614755,-0.075774,0.778806,0.098975,0
-9.805922,-0.057563,-0.846558,-0.142342,0.102378,-0.050342,42.15226,-19.409868,-4.092858,4.63583E+18,-0.448089,0.56599,-0.4308,-0.541556,-9.304659,0.062751,-2.59932,0.104372,0.362479,0.182801,46.382018,-9.790314,-4.403398,4.63583E+18,0.022864,0.830666,-0.136238,-0.539362,-9.525627,-0.176298,-2.311052,-0.042389,-0.082258,-0.104026,37.445499,-7.414517,27.375162,4.63583E+18,0.615087,-0.076134,0.778519,0.098892,0
-9.907037,-0.083549,-0.373166,-0.170698,0.129462,-0.069381,42.136261,-19.397341,-4.214803,4.63583E+18,-0.447592,0.566714,-0.43051,-0.541441,-9.3404,0.186583,-2.499046,0.098195,0.39643,0.209429,46.333213,-9.759833,-4.382458,4.63583E+18,0.0234,0.831468,-0.136953,-0.53792,-9.476033,-0.056549,-2.318635,-0.058736,-0.081179,-0.083531,37.291445,-7.341281,27.197465,4.63583E+18,0.615401,-0.076469,0.778235,0.098914,0
-10.030796,-0.24035,-0.519114,-0.203693,0.130679,-0.099779,42.298437,-19.519638,-4.318057,4.63583E+18,-0.447082,0.567556,-0.430076,-0.541325,-9.398819,0.303421,-2.506871,0.075995,0.432289,0.228123,46.24776,-9.741508,-4.229025,4.63583E+18,0.024077,0.832335,-0.137675,-0.536362,-9.358591,0.019783,-2.422325,-0.084831,-0.08218,-0.064237,37.498683,-7.256602,27.265935,4.63583E+18,0.615702,-0.076808,0.777944,0.09907,0
-10.057538,-0.463667,-0.762442,-0.224568,-0.016057,-0.11199,42.420727,-19.450187,-4.199561,4.63583E+18,-0.446754,0.568174,-0.429231,-0.541618,-9.402318,0.444674,-2.485956,0.051199,0.460215,0.243535,46.296563,-9.942889,-4.033707,4.63583E+18,0.024886,0.833249,-0.138399,-0.534718,-9.270823,-0.021327,-2.532192,-0.098527,-0.080246,-0.048012,37.673445,-7.31981,27.351386,4.63583E+18,0.615985,-0.077131,0.777657,0.099311,0
-9.69339,-0.624135,-0.499065,-0.26089,-0.110952,-0.116899,42.372135,-19.251194,-4.10504,4.63583E+18,-0.44658,0.568607,-0.428176,-0.542143,-9.380524,0.40897,-2.478103,0.032507,0.483331,0.259327,46.314888,-9.930745,-3.617873,4.63583E+18,0.02581,0.834199,-0.139128,-0.533,-9.208221,-0.161689,-2.53914,-0.081321,-0.082113,-0.026979,37.672815,-7.393079,27.265276,4.63583E+18,0.616271,-0.07734,0.777379,0.099551,0
-9.250074,-0.720237,-0.248065,-0.293996,-0.171099,-0.103032,42.249825,-19.238645,-4.251314,4.63583E+18,-0.446402,0.568939,-0.426966,-0.542893,-9.365698,0.409813,-2.564396,0.026323,0.49066,0.272832,46.314888,-9.912412,-3.362323,4.63583E+18,0.026794,0.835154,-0.139882,-0.531256,-9.215821,-0.19378,-2.516263,-0.052087,-0.079245,-0.00762,37.603415,-7.329056,27.27057,4.63583E+18,0.616549,-0.077414,0.777126,0.099744,0
-9.04748,-0.702881,0.10581,-0.327587,-0.130092,-0.081503,42.294948,-19.360941,-4.446966,4.63583E+18,-0.446022,0.569388,-0.425807,-0.543646,-9.382254,0.491756,-2.645498,0.033186,0.486314,0.282294,46.247771,-10.046644,-3.167004,4.63583E+18,0.02777,0.83609,-0.140687,-0.529519,-9.205151,-0.092374,-2.388904,-0.030186,-0.078042,0.0046,37.598801,-7.47314,27.179832,4.63583E+18,0.616825,-0.077392,0.77689,0.099897,0
-9.059434,-0.666139,0.402844,-0.350161,-0.090163,-0.063369,42.432805,-19.31237,-4.455702,4.63583E+18,-0.445475,0.569935,-0.424713,-0.544376,-9.39708,0.531885,-2.757083,0.061253,0.470679,0.289999,46.104806,-10.217532,-3.0484,4.63583E+18,0.028651,0.836984,-0.14159,-0.527816,-9.273011,0.017493,-2.071609,-0.013827,-0.076974,0.01635,37.747501,-7.551768,27.253749,4.63583E+18,0.617098,-0.07729,0.776667,0.100028,0
-9.224954,-0.694025,0.364674,-0.361224,-0.109661,-0.032403,42.469679,-19.214329,-4.511223,4.63583E+18,-0.44488,0.570391,-0.423645,-0.545216,-9.332594,0.613819,-2.97502,0.099398,0.44581,0.288249,46.137847,-10.311738,-3.027436,4.63583E+18,0.029381,0.837825,-0.14257,-0.526175,-9.357685,0.11591,-1.833542,-0.007814,-0.071903,0.029099,37.688877,-7.487761,27.270569,4.63583E+18,0.61735,-0.077135,0.776463,0.100169,0
-9.486415,-0.7133,0.254689,-0.336805,-0.146884,0.004214,42.363429,-19.32405,-4.727329,4.63583E+18,-0.444321,0.570654,-0.422646,-0.546172,-9.247143,0.884037,-3.219168,0.13137,0.403168,0.272233,46.290404,-10.528782,-3.017849,4.63583E+18,0.029936,0.838581,-0.143573,-0.524664,-9.488884,0.0992,-1.738845,-0.007477,-0.059557,0.042918,37.604195,-7.334459,27.351397,4.63583E+18,0.617557,-0.076939,0.776296,0.100341,0
-9.774236,-0.69929,0.302954,-0.312107,-0.158792,0.036741,42.225551,-19.397848,-4.895311,4.63583E+18,-0.443756,0.570794,-0.421746,-0.547179,-9.113771,1.297254,-3.348268,0.115145,0.351981,0.235395,46.327095,-10.650917,-2.718079,4.63583E+18,0.030435,0.839242,-0.144421,-0.523344,-9.577417,-0.096767,-1.744888,-0.004475,-0.048741,0.063809,37.598801,-7.324442,27.265297,4.63583E+18,0.617721,-0.076672,0.776165,0.100553,0
-9.938631,-0.746172,0.557789,-0.272623,-0.120834,0.058856,42.140098,-19.230412,-4.837599,4.63583E+18,-0.443167,0.570908,-0.421058,-0.548067,-8.976871,1.621688,-3.618457,0.040178,0.299643,0.175287,46.192904,-10.669271,-2.330074,4.63583E+18,0.031031,0.839813,-0.144903,-0.522259,-9.617118,-0.189915,-1.848578,0.005733,-0.049067,0.084168,37.518755,-7.473103,27.007551,4.63583E+18,0.61788,-0.076313,0.776043,0.100785,0
-9.947079,-0.873511,0.716474,-0.216476,-0.116809,0.080098,42.054651,-19.14106,-4.870606,4.63583E+18,-0.442655,0.570889,-0.420555,-0.548886,-8.852175,1.799643,-3.916679,-0.038185,0.239755,0.100904,46.031584,-10.803462,-2.322843,4.63583E+18,0.031697,0.840285,-0.144972,-0.52144,-9.665175,-0.298237,-2.084233,0.006409,-0.043131,0.112468,37.433303,-7.414526,26.990568,4.63583E+18,0.618009,-0.075864,0.775946,0.101085,0
-10.093391,-0.997223,0.830103,-0.156682,-0.069989,0.084845,42.062766,-19.202246,-4.931791,4.63583E+18,-0.442192,0.570858,-0.420287,-0.549496,-9.046385,1.773606,-4.171293,-0.114855,0.162714,0.02065,46.064583,-10.83059,-2.573837,4.63583E+18,0.032411,0.840627,-0.144603,-0.520947,-9.633957,-0.396668,-2.362687,0.002407,-0.047729,0.138306,37.507947,-7.409894,27.162099,4.63583E+18,0.61814,-0.075339,0.775843,0.101465,0
-10.248943,-1.142068,0.774646,-0.101831,-0.04523,0.083619,42.261876,-19.177983,-4.935257,4.63583E+18,-0.441819,0.570785,-0.420187,-0.549949,-9.135474,1.76745,-4.329182,-0.168279,0.090761,-0.047948,46.21712,-10.760881,-2.713469,4.63583E+18,0.033123,0.840847,-0.143881,-0.520746,-9.665947,-0.322797,-2.574845,-0.012873,-0.052069,0.16194,37.593397,-7.547118,27.173679,4.63583E+18,0.618269,-0.074776,0.77573,0.101958,0
-10.266426,-1.241532,0.63825,-0.073599,-0.105436,0.0859,42.29881,-19.165306,-4.968255,4.63583E+18,-0.441613,0.570517,-0.420046,-0.550499,-9.114594,1.549649,-4.252623,-0.168318,0.023847,-0.091303,46.119679,-10.752099,-2.58112,4.63583E+18,0.033697,0.840947,-0.143023,-0.520786,-9.736867,-0.191618,-2.656573,-0.038898,-0.057342,0.178434,37.747445,-7.705025,26.990736,4.63583E+18,0.6184,-0.074225,0.775596,0.102578,0
-10.245645,-1.300912,0.650456,-0.054779,-0.17542,0.088815,42.237614,-19.332723,-5.081403,4.63583E+18,-0.441568,0.570049,-0.419826,-0.551188,-9.298374,1.307235,-3.945868,-0.144601,-0.042372,-0.124492,46.025453,-10.888878,-2.309159,4.63583E+18,0.034065,0.840922,-0.142125,-0.521048,-9.730074,-0.080206,-2.64978,-0.075606,-0.053678,0.195456,37.677461,-7.646475,26.898324,4.63583E+18,0.6185,-0.073715,0.775461,0.103359,0
-10.130819,-1.280289,0.628018,-0.057059,-0.202761,0.09228,42.306906,-19.470646,-5.267995,4.63583E+18,-0.44153,0.569536,-0.41953,-0.551973,-9.408357,1.266944,-3.639801,-0.189998,-0.093499,-0.167431,46.134258,-10.791491,-2.246162,4.63583E+18,0.034471,0.840804,-0.140983,-0.521522,-9.68357,0.121109,-2.488951,-0.127992,-0.063411,0.196539,37.523425,-7.71043,26.984369,4.63583E+18,0.618615,-0.073332,0.775278,0.104315,0
-9.935343,-1.139084,0.573582,-0.056944,-0.190304,0.106815,42.433264,-19.486811,-5.463307,4.63583E+18,-0.441468,0.569002,-0.419325,-0.552729,-9.424115,1.509118,-3.52886,-0.224977,-0.127924,-0.212526,46.283382,-10.553502,-2.246162,4.63583E+18,0.034886,0.840632,-0.139601,-0.522142,-9.657604,0.202884,-2.26086,-0.177403,-0.068091,0.191537,37.444747,-7.863718,26.990568,4.63583E+18,0.61873,-0.073091,0.77506,0.105418,0
-9.821853,-0.976944,0.645173,-0.043363,-0.086653,0.1053,42.290083,-19.37315,-5.603198,4.63583E+18,-0.441253,0.568689,-0.419331,-0.553218,-9.318724,1.651404,-3.506151,-0.25084,-0.155545,-0.2599,46.190335,-10.373813,-2.332392,4.63583E+18,0.035274,0.840423,-0.137999,-0.522878,-9.576028,-0.032557,-2.086107,-0.185519,-0.06536,0.191198,37.588727,-8.022398,26.899109,4.63583E+18,0.618834,-0.072873,0.774843,0.106546,0
-9.757357,-0.767966,0.598703,-0.028425,0.041293,0.103595,42.261849,-19.418157,-5.516646,4.63583E+18,-0.440858,0.568643,-0.419605,-0.553372,-9.289834,1.452057,-3.350233,-0.322582,-0.193985,-0.302936,46.156193,-10.272605,-2.509321,4.63583E+18,0.035795,0.84014,-0.136098,-0.523795,-9.513449,-0.208865,-1.98381,-0.144849,-0.065157,0.1992,37.598801,-8.101058,26.812891,4.63583E+18,0.618945,-0.072525,0.774647,0.107563,0
-9.736046,-0.490474,0.259248,-0.011765,0.120495,0.110466,42.278057,-19.556081,-5.270315,4.63583E+18,-0.440358,0.56873,-0.420091,-0.553313,-9.299414,1.046737,-3.23156,-0.377625,-0.223068,-0.33118,46.213676,-10.187154,-2.704639,4.63583E+18,0.036429,0.839796,-0.133984,-0.524847,-9.520998,-0.002545,-2.000461,-0.082051,-0.061156,0.208746,37.598801,-8.185733,26.807457,4.63583E+18,0.619056,-0.071986,0.774491,0.1084,0
-9.832056,-0.307201,-0.251943,-0.004289,0.122508,0.114897,42.115922,-19.593072,-5.172669,4.63583E+18,-0.43985,0.568808,-0.420595,-0.553253,-9.292462,0.636051,-3.39256,-0.376003,-0.224393,-0.332275,46.229435,-10.10171,-2.746666,4.63583E+18,0.037049,0.839444,-0.131874,-0.525899,-9.498913,0.332275,-2.082031,-0.029965,-0.055883,0.199355,37.758837,-8.179736,26.887475,4.63583E+18,0.619169,-0.071345,0.77437,0.109043,0
-9.868866,-0.198963,-0.514716,0.003491,0.073001,0.114005,42.041929,-19.531845,-5.078463,4.63583E+18,-0.439449,0.56876,-0.421024,-0.553295,-9.241943,0.645115,-3.538269,-0.314117,-0.214024,-0.321907,46.296483,-9.949221,-2.899916,4.63583E+18,0.037483,0.839115,-0.129932,-0.526877,-9.531649,0.571177,-2.076036,-0.002702,-0.054544,0.180674,37.769707,-8.258967,26.812902,4.63583E+18,0.619294,-0.070695,0.774259,0.109549,0
-9.806378,-0.156873,-0.37534,0.014156,0.058094,0.104854,42.185138,-19.556074,-5.041472,4.63583E+18,-0.43912,0.568673,-0.421429,-0.553337,-9.209641,0.776763,-3.430472,-0.235159,-0.226578,-0.307643,46.372356,-9.778322,-3.238897,4.63583E+18,0.037666,0.838759,-0.128211,-0.52785,-9.545411,0.757398,-2.075258,0.003932,-0.053475,0.152447,37.689699,-8.412996,26.807457,4.63583E+18,0.619428,-0.07012,0.774145,0.10996,0
-9.66846,-0.176191,-0.223389,0.027149,0.088073,0.09266,42.192637,-19.617296,-5.185729,4.63583E+18,-0.438787,0.568661,-0.42188,-0.55327,-9.223535,0.748229,-3.144665,-0.202819,-0.252507,-0.306098,46.321096,-9.741508,-3.47364,4.63583E+18,0.037721,0.838347,-0.126577,-0.528895,-9.477613,0.894791,-2.075258,0.000272,-0.056408,0.122607,37.764261,-8.491686,26.716022,4.63583E+18,0.619585,-0.069649,0.774013,0.110307,0
-9.586474,-0.165614,-0.198574,0.031279,0.150715,0.078455,42.033955,-19.686471,-5.364544,4.63583E+18,-0.438397,0.568803,-0.42243,-0.553013,-9.24795,0.521764,-3.066689,-0.194486,-0.247599,-0.312424,46.235646,-9.617015,-3.448698,4.63583E+18,0.037734,0.837946,-0.12494,-0.529918,-9.427232,0.960489,-2.143828,-0.015999,-0.061612,0.090702,37.838274,-8.496353,26.618373,4.63583E+18,0.619767,-0.069321,0.773851,0.110625,0
-9.547815,-0.176194,-0.389604,0.025085,0.222529,0.068237,41.944432,-19.861444,-5.230472,4.63583E+18,-0.437889,0.569139,-0.423074,-0.552578,-9.291512,0.42558,-3.207686,-0.171551,-0.232038,-0.308171,46.27468,-9.448759,-3.277077,4.63583E+18,0.037684,0.837578,-0.123366,-0.530872,-9.275533,0.770085,-2.182791,-0.037092,-0.062953,0.061654,37.694367,-8.496353,26.623568,4.63583E+18,0.61996,-0.069141,0.773668,0.110936,0
-9.634677,-0.169069,-0.75806,0.00778,0.240444,0.058304,42.050626,-19.837241,-5.066283,4.63583E+18,-0.43733,0.569565,-0.423685,-0.552113,-9.388215,0.443776,-3.333343,-0.165563,-0.250367,-0.293154,46.233023,-9.411908,-3.464759,4.63583E+18,0.037632,0.837158,-0.121866,-0.531882,-9.333979,0.551177,-2.242259,-0.044452,-0.072019,0.03882,37.604265,-8.427792,26.532933,4.63583E+18,0.62019,-0.06905,0.773452,0.111214,0
-9.803969,-0.19186,-0.853298,0.012782,0.196486,0.052962,42.164371,-19.751782,-4.949695,4.63583E+18,-0.436859,0.569901,-0.424202,-0.551743,-9.22041,0.729346,-3.558109,-0.18567,-0.257193,-0.274388,46.351278,-9.411908,-3.748162,4.63583E+18,0.037685,0.836707,-0.120393,-0.532922,-9.372939,0.651378,-2.348989,-0.041863,-0.079632,0.014392,37.81588,-8.343131,26.42386,4.63583E+18,0.620456,-0.069027,0.77321,0.111423,0
-9.910578,-0.200401,-0.63358,0.026222,0.16058,0.046412,42.119419,-19.714747,-4.782053,4.63583E+18,-0.436512,0.57013,-0.424682,-0.551411,-8.918843,0.930147,-3.66126,-0.205439,-0.249047,-0.283645,46.570033,-9.21086,-3.80871,4.63583E+18,0.037795,0.836274,-0.118834,-0.533943,-9.420986,0.784876,-2.241778,-0.045657,-0.080111,-0.004177,37.842167,-8.486183,26.599622,4.63583E+18,0.620731,-0.069074,0.772961,0.111595,0
-9.919546,-0.244148,-0.489914,0.033113,0.135591,0.037102,42.005676,-19.820925,-4.708601,4.63583E+18,-0.436246,0.570306,-0.42511,-0.55111,-8.965249,0.78249,-3.559547,-0.235325,-0.266846,-0.299059,46.620071,-9.031098,-3.818283,4.63583E+18,0.037966,0.835802,-0.117155,-0.535041,-9.446966,0.839182,-2.028303,-0.060926,-0.08311,-0.028334,37.705848,-8.496353,26.886342,4.63583E+18,0.621021,-0.069237,0.77269,0.111755,0
-9.830856,-0.244148,-0.521462,0.034322,0.109575,0.023718,42.005676,-19.958885,-4.69985,4.63583E+18,-0.436061,0.570443,-0.425461,-0.550844,-9.140457,0.445241,-3.192869,-0.268437,-0.29667,-0.309825,46.361591,-9.06387,-4.05068,4.63583E+18,0.038205,0.835257,-0.115384,-0.536259,-9.482801,0.819463,-1.808594,-0.077946,-0.074319,-0.051899,37.616493,-8.42781,26.813726,4.63583E+18,0.621289,-0.069524,0.772427,0.111906,0
-9.699824,-0.216517,-0.433271,0.034967,0.111489,-0.002819,41.984952,-20.020142,-4.69985,4.63583E+18,-0.435933,0.570631,-0.425754,-0.550523,-9.199114,0.356649,-2.870918,-0.329193,-0.307542,-0.307711,46.290474,-9.015294,-4.190482,4.63583E+18,0.03865,0.834671,-0.113491,-0.537541,-9.542271,0.577999,-1.680252,-0.073046,-0.065706,-0.060404,37.759518,-8.491651,26.624679,4.63583E+18,0.621535,-0.06983,0.772186,0.112016,0
-9.65951,-0.111956,-0.231941,0.023703,0.128761,-0.030751,41.977323,-19.995969,-4.675677,4.63583E+18,-0.435813,0.570928,-0.425987,-0.550131,-9.137376,0.507171,-2.788558,-0.389173,-0.298644,-0.316609,46.414913,-8.862844,-4.288132,4.63583E+18,0.039288,0.834096,-0.11143,-0.538818,-9.511914,0.367315,-1.763815,-0.045642,-0.05516,-0.067882,37.769707,-8.644878,26.532164,4.63583E+18,0.621757,-0.070094,0.771983,0.112016,0
-9.671717,-0.045138,-0.304473,0.008264,0.132028,-0.056388,42.115303,-19.886335,-4.590221,4.63583E+18,-0.435709,0.571306,-0.426128,-0.549711,-9.128502,0.740772,-3.089591,-0.440988,-0.30509,-0.332777,46.516174,-8.691945,-4.529368,4.63583E+18,0.040068,0.833499,-0.109193,-0.54014,-9.498145,0.354015,-1.861452,-0.023805,-0.047479,-0.068361,37.689749,-8.586514,26.618066,4.63583E+18,0.621962,-0.070307,0.771809,0.111941,0
-9.683924,-0.114924,-0.529731,0.000626,0.117399,-0.076885,42.173126,-19.743069,-4.55657,4.63583E+18,-0.435659,0.5717,-0.426177,-0.549302,-8.997146,1.071035,-3.307916,-0.493699,-0.294227,-0.359078,46.592045,-8.521058,-4.66655,4.63583E+18,0.040976,0.832923,-0.106743,-0.541448,-9.49736,0.399703,-1.890577,-0.011437,-0.043001,-0.068361,37.832741,-8.50185,26.521547,4.63583E+18,0.622155,-0.070491,0.771653,0.111826,0
-9.696131,-0.158696,-0.607165,-0.00109,0.101496,-0.082247,42.164371,-19.735424,-4.650773,4.63583E+18,-0.435645,0.572071,-0.42618,-0.548925,-9.132503,0.793387,-3.105566,-0.526169,-0.249503,-0.388754,46.665289,-8.292735,-4.697213,4.63583E+18,0.041951,0.832449,-0.104105,-0.542615,-9.451671,0.402844,-1.926414,-0.005684,-0.037729,-0.068361,37.831527,-8.279331,26.514481,4.63583E+18,0.622333,-0.070662,0.771514,0.11169,0
-9.691078,-0.186311,-0.4888,0.004877,0.100966,-0.083153,42.14366,-19.873401,-4.684443,4.63583E+18,-0.435594,0.572474,-0.426137,-0.548579,-9.409659,0.504412,-2.723817,-0.50849,-0.215587,-0.399402,46.738535,-7.972023,-4.852978,4.63583E+18,0.04286,0.832052,-0.101454,-0.543653,-9.459951,0.368582,-2.020136,-0.00634,-0.033388,-0.07036,36.848553,-7.624846,26.445954,4.63583E+18,0.622498,-0.070843,0.771385,0.111549,0
-9.666414,-0.270165,-0.345507,0.008221,0.112922,-0.084546,42.091125,-19.862188,-4.507372,4.63583E+18,-0.435587,0.572858,-0.426176,-0.548153,-9.616503,0.212411,-1.995576,-0.467695,-0.20852,-0.377108,46.620368,-7.639787,-4.981303,4.63583E+18,0.043685,0.831664,-0.098964,-0.54464,-9.540683,0.377643,-2.152057,-0.018401,-0.038109,-0.071497,36.107083,-7.158231,26.36129,4.63583E+18,0.622675,-0.071057,0.771237,0.111445,0
-9.703033,-0.308636,-0.303332,0.011308,0.109438,-0.080737,42.135995,-19.633465,-4.239421,4.63583E+18,-0.435585,0.573222,-0.426225,-0.547736,-9.837874,-0.226716,-1.168187,-0.463259,-0.205777,-0.354738,46.449481,-7.377203,-5.005035,4.63583E+18,0.044547,0.831267,-0.096556,-0.545608,-9.534769,0.37843,-2.229235,-0.037214,-0.039453,-0.071566,36.426132,-7.117703,26.344363,4.63583E+18,0.62285,-0.07132,0.771078,0.111402,0
-9.701689,-0.351907,-0.336503,0.005967,0.09922,-0.074491,42.298144,-19.567958,-4.272336,4.63583E+18,-0.435574,0.57356,-0.426258,-0.547365,-9.801885,-0.14781,-1.266268,-0.467993,-0.200061,-0.341981,46.297734,-7.525368,-5.158121,4.63583E+18,0.045442,0.830869,-0.094202,-0.546551,-9.55682,0.332752,-2.222535,-0.059436,-0.042519,-0.070567,36.668274,-7.03698,26.332157,4.63583E+18,0.623028,-0.071635,0.7709,0.111433,0
-9.655798,-0.411859,-0.374721,0.010289,0.073581,-0.064134,42.372413,-19.690542,-4.333628,4.63583E+18,-0.435581,0.573825,-0.426264,-0.547077,-9.548508,0.380719,-2.136923,-0.427059,-0.184444,-0.325439,46.323464,-7.580798,-5.276894,4.63583E+18,0.046239,0.830501,-0.091994,-0.547418,-9.546977,0.295342,-2.164651,-0.081867,-0.042726,-0.066501,36.386348,-6.745983,26.514077,4.63583E+18,0.623198,-0.071997,0.770713,0.111547,0
-9.717093,-0.338357,-0.316861,0.034297,0.038964,-0.046162,42.204974,-19.666392,-4.309479,4.63583E+18,-0.43568,0.573925,-0.426319,-0.54685,-9.485152,0.474445,-2.595189,-0.35273,-0.160427,-0.319001,46.463665,-7.312938,-5.298013,4.63583E+18,0.046616,0.830166,-0.090253,-0.548184,-9.466254,0.155947,-2.194968,-0.095306,-0.047722,-0.057232,36.297339,-6.943245,26.538107,4.63583E+18,0.623375,-0.072361,0.770509,0.111729,0
-9.699844,-0.30545,-0.033172,0.040009,0.079159,-0.024149,42.135976,-19.605089,-4.275776,4.63583E+18,-0.435671,0.574067,-0.426514,-0.546557,-9.552123,0.253402,-2.642079,-0.300239,-0.156556,-0.3091,46.622374,-6.980675,-5.374551,4.63583E+18,0.047028,0.829874,-0.088373,-0.548897,-9.460737,-0.036197,-2.105989,-0.093136,-0.050065,-0.03763,36.737909,-7.17516,26.436133,4.63583E+18,0.623551,-0.072655,0.770306,0.111956,0
-9.669854,-0.237249,-0.114103,0.040357,0.123139,-0.010125,42.273971,-19.580943,-4.290643,4.63583E+18,-0.435552,0.574283,-0.426822,-0.546183,-9.494064,0.137913,-2.799448,-0.26877,-0.155343,-0.304047,46.589722,-6.976363,-5.548753,4.63583E+18,0.047336,0.829585,-0.086591,-0.54959,-9.540662,-0.185843,-2.06542,-0.069951,-0.049204,-0.018334,37.373842,-7.464188,26.326269,4.63583E+18,0.623723,-0.072828,0.770121,0.112159,0
-9.722126,-0.226629,-0.37284,0.056334,0.119078,0.006058,42.314586,-19.519638,-4.122932,4.63583E+18,-0.435442,0.574432,-0.427198,-0.54582,-9.377281,0.141207,-2.91129,-0.240164,-0.144837,-0.298332,46.389481,-7.061807,-5.667522,4.63583E+18,0.047551,0.829319,-0.084908,-0.550235,-9.614696,-0.103976,-2.097304,-0.044384,-0.047137,0.001892,37.792478,-7.985521,26.319162,4.63583E+18,0.623885,-0.07287,0.769961,0.112331,0
-9.759028,-0.254489,-0.493038,0.051409,0.099274,0.018737,42.258585,-19.519638,-4.10801,4.63583E+18,-0.435327,0.574523,-0.427557,-0.545536,-9.47523,0.079526,-2.82455,-0.180354,-0.135367,-0.279367,46.3967,-7.013331,-5.535592,4.63583E+18,0.047603,0.829078,-0.08343,-0.550821,-9.63085,0.027921,-1.996926,-0.024745,-0.037009,0.019187,37.978367,-8.454088,26.319162,4.63583E+18,0.624012,-0.07281,0.769841,0.112481,0
-9.751849,-0.311793,-0.546457,0.058397,0.075587,0.026842,42.249825,-19.519638,-4.2206,4.63583E+18,-0.435252,0.574532,-0.427908,-0.54531,-9.557398,-0.111153,-2.66157,-0.113667,-0.1218,-0.256099,46.594304,-6.793954,-5.426369,4.63583E+18,0.047487,0.828871,-0.082174,-0.551331,-9.654474,0.150786,-1.921309,-0.021501,-0.035318,0.033281,38.069353,-8.484145,26.227831,4.63583E+18,0.624128,-0.072698,0.769732,0.112658,0
-9.740217,-0.373404,-0.353013,0.071076,0.073136,0.029305,42.253271,-19.495512,-4.071245,4.63583E+18,-0.435205,0.574509,-0.42829,-0.545072,-9.52278,-0.225651,-2.586332,-0.052469,-0.106847,-0.221722,46.577534,-6.547187,-5.484399,4.63583E+18,0.047248,0.828698,-0.081167,-0.551759,-9.576142,0.215778,-1.962228,-0.021363,-0.035249,0.04417,37.915063,-8.267235,26.312834,4.63583E+18,0.624238,-0.072551,0.769627,0.112861,0
-9.647294,-0.3296,-0.20221,0.081593,0.113921,0.026867,42.28615,-19.478979,-3.866301,4.63583E+18,-0.435117,0.574563,-0.428763,-0.544713,-9.45218,-0.177196,-2.470551,0.006508,-0.086872,-0.18099,46.425132,-6.360434,-5.582056,4.63583E+18,0.046909,0.828569,-0.080428,-0.55209,-9.49069,0.185484,-1.988225,-0.026358,-0.032252,0.054851,37.766993,-8.332119,26.330578,4.63583E+18,0.624331,-0.072385,0.769531,0.113108,0
-9.676727,-0.333045,-0.281746,0.094109,0.162169,0.025472,42.323366,-19.641114,-3.885101,4.63583E+18,-0.43492,0.57475,-0.429291,-0.544257,-9.531969,-0.397812,-2.087589,0.048518,-0.066346,-0.146028,46.455084,-6.390388,-5.679715,4.63583E+18,0.046512,0.828483,-0.079903,-0.552329,-9.496568,0.194526,-2.012637,-0.032697,-0.035041,0.067529,37.7575,-8.634446,26.160145,4.63583E+18,0.624425,-0.072193,0.769428,0.113408,0
-9.760297,-0.317699,-0.518681,0.105556,0.157178,0.02958,42.237923,-19.763786,-3.927646,4.63583E+18,-0.434805,0.574854,-0.429903,-0.543756,-9.587084,-0.396945,-1.827247,0.072509,-0.048565,-0.118778,46.473583,-6.275014,-5.930354,4.63583E+18,0.045912,0.828406,-0.079805,-0.552509,-9.49736,0.275213,-2.002808,-0.039105,-0.033252,0.075352,37.825979,-8.575155,26.136845,4.63583E+18,0.624507,-0.071993,0.76933,0.113748,0
-9.828834,-0.263244,-0.70646,0.116237,0.11533,0.034783,42.180023,-19.763786,-3.829987,4.63583E+18,-0.434779,0.574834,-0.430476,-0.543345,-9.413237,-0.129676,-1.791848,0.097835,-0.023096,-0.095643,46.33964,-6.113606,-6.146914,4.63583E+18,0.045475,0.828412,-0.079558,-0.552573,-9.55442,0.246534,-2.047662,-0.043516,-0.033113,0.08183,37.910627,-8.501125,26.227346,4.63583E+18,0.624584,-0.071785,0.769232,0.114119,0
-9.785326,-0.270439,-0.623196,0.123604,0.094408,0.035714,42.233553,-19.784448,-3.75988,4.63583E+18,-0.434805,0.574752,-0.431029,-0.542972,-9.353509,-0.099313,-1.660522,0.118682,0.003005,-0.074884,46.436646,-6.136701,-5.959497,4.63583E+18,0.045021,0.828474,-0.079427,-0.552535,-9.63828,0.25556,-2.142139,-0.04679,-0.041101,0.086242,37.99608,-8.633296,26.325006,4.63583E+18,0.624683,-0.071568,0.769113,0.114514,0
-9.734622,-0.226935,-0.500504,0.119222,0.106623,0.031771,42.323383,-19.83703,-3.75988,4.63583E+18,-0.434787,0.574729,-0.431563,-0.542587,-9.408278,-0.090731,-1.623585,0.131209,0.031987,-0.058777,46.664941,-6.219507,-5.666547,4.63583E+18,0.044382,0.828573,-0.079658,-0.552405,-9.586789,0.267767,-2.216975,-0.050993,-0.036665,0.089516,38.001648,-8.722725,26.331369,4.63583E+18,0.624765,-0.071353,0.769005,0.11493,0
-9.717093,-0.186554,-0.517717,0.1052,0.109171,0.022322,42.241375,-19.792276,-3.732339,4.63583E+18,-0.434772,0.574737,-0.432069,-0.542187,-9.433683,-0.056749,-1.709693,0.151936,0.070265,-0.037963,46.784705,-6.304956,-5.603198,4.63583E+18,0.043917,0.828783,-0.079723,-0.552118,-9.525758,0.428311,-2.164695,-0.068244,-0.038314,0.088726,37.921773,-8.579956,26.411243,4.63583E+18,0.624846,-0.071185,0.768885,0.115399,0
-9.72742,-0.191876,-0.571867,0.090218,0.086796,0.012079,42.209439,-19.630143,-3.610588,4.63583E+18,-0.434785,0.57474,-0.432476,-0.541849,-9.426756,-0.115795,-1.733451,0.185478,0.115874,-0.018045,46.669256,-6.25647,-5.679729,4.63583E+18,0.043398,0.829097,-0.079926,-0.551658,-9.487543,0.576392,-1.955322,-0.092393,-0.038453,0.077674,37.847731,-8.649471,26.519515,4.63583E+18,0.624925,-0.071116,0.768749,0.115916,0
-9.753716,-0.162464,-0.56031,0.080003,0.058504,0.007477,42.241384,-19.483343,-3.482551,4.63583E+18,-0.434835,0.574706,-0.432798,-0.541588,-9.538895,-0.249061,-1.647367,0.236018,0.167051,0.0062,46.632282,-6.104074,-5.777377,4.63583E+18,0.042782,0.82953,-0.080311,-0.550999,-9.450921,0.540313,-1.826872,-0.100986,-0.037455,0.073911,37.774488,-8.871848,26.35553,4.63583E+18,0.625,-0.071082,0.76861,0.11645,0
-9.753716,-0.08922,-0.446676,0.071265,0.050612,0.00838,42.209433,-19.470154,-3.487876,4.63583E+18,-0.434876,0.574669,-0.433088,-0.541363,-9.656696,-0.46252,-1.594887,0.315608,0.20935,0.043556,46.632282,-6.13404,-5.798517,4.63583E+18,0.041991,0.83006,-0.081001,-0.55016,-9.402893,0.35458,-1.921585,-0.075518,-0.04038,0.076697,37.838159,-8.738671,26.240894,4.63583E+18,0.62509,-0.070971,0.768477,0.116911,0
-9.753716,-0.0263,-0.389081,0.072906,0.072461,0.012488,42.310202,-19.637612,-3.451584,4.63583E+18,-0.434872,0.57467,-0.43343,-0.541091,-9.670905,-0.503145,-1.826115,0.387063,0.248035,0.094191,46.632282,-6.286457,-5.645459,4.63583E+18,0.041076,0.830671,-0.08203,-0.549154,-9.376883,-0.057508,-2.15695,-0.0168,-0.041588,0.084893,37.991269,-8.728293,26.233709,4.63583E+18,0.625197,-0.070681,0.768372,0.117205,0
-9.774351,0.024075,-0.388408,0.083858,0.112503,0.019498,42.432934,-19.799729,-3.378011,4.63583E+18,-0.43477,0.574759,-0.433848,-0.540744,-9.496094,-0.28051,-2.322571,0.441796,0.265562,0.130855,46.574891,-6.524299,-5.373639,4.63583E+18,0.040055,0.831314,-0.083319,-0.54806,-9.51221,-0.074041,-2.25279,0.035106,-0.037664,0.100428,38.081518,-8.94509,26.233709,4.63583E+18,0.625299,-0.070208,0.768307,0.117372,0
-9.868223,0.102645,-0.531107,0.103054,0.129742,0.028043,42.388232,-19.943114,-3.393314,4.63583E+18,-0.434705,0.574802,-0.434405,-0.540302,-9.372013,-0.009311,-2.537127,0.463774,0.273963,0.151182,46.750329,-6.570226,-5.233703,4.63583E+18,0.039009,0.83197,-0.084725,-0.546925,-9.784152,0.348842,-2.087254,0.059415,-0.04038,0.10347,37.938798,-9.028681,26.153856,4.63583E+18,0.625414,-0.069661,0.768249,0.11747,0
-9.983765,0.14305,-0.654213,0.124011,0.118925,0.035384,42.318944,-19.951022,-3.37904,4.63583E+18,-0.434691,0.574771,-0.435005,-0.539863,-9.408259,-0.123334,-2.506167,0.459248,0.280604,0.166598,46.927524,-6.50063,-5.059527,4.63583E+18,0.038021,0.832631,-0.086163,-0.545762,-9.7341,0.526728,-1.926961,0.052899,-0.038593,0.097621,37.848548,-8.896588,26.148258,4.63583E+18,0.625524,-0.06915,0.768189,0.117572,0
-10.013508,0.127407,-0.579436,0.133353,0.110455,0.037852,42.436371,-19.809533,-3.07958,4.63583E+18,-0.434717,0.574694,-0.435624,-0.539425,-9.414552,-0.228285,-2.566818,0.45382,0.282828,0.188245,46.837555,-6.558639,-4.864227,4.63583E+18,0.037103,0.833284,-0.087663,-0.544588,-9.626632,0.480088,-1.962192,0.04635,-0.042446,0.095205,37.99125,-8.738692,26.22811,4.63583E+18,0.625645,-0.068663,0.768117,0.11769,0
-10.011963,0.078923,-0.503942,0.135354,0.114292,0.034512,42.376376,-19.718741,-2.807703,4.63583E+18,-0.434737,0.574636,-0.436235,-0.538977,-9.29715,-0.110264,-2.827049,0.429465,0.302305,0.21007,46.611921,-6.704112,-4.821924,4.63583E+18,0.036322,0.833965,-0.089187,-0.54335,-9.562402,0.53312,-1.988204,0.031958,-0.038734,0.090075,38.149927,-8.716888,26.404802,4.63583E+18,0.625752,-0.068233,0.768045,0.117838,0
-9.958157,-0.017187,-0.523023,0.134587,0.114292,0.029607,42.152869,-19.642065,-2.835202,4.63583E+18,-0.434766,0.574588,-0.436831,-0.538522,-9.198477,0.175398,-3.141797,0.387842,0.30679,0.218882,46.568599,-6.872371,-4.821924,4.63583E+18,0.035703,0.834641,-0.090651,-0.542108,-9.546989,0.60557,-1.955584,0.005024,-0.041448,0.081739,38.091897,-8.795938,26.336969,4.63583E+18,0.625865,-0.067901,0.76795,0.118049,0
-9.867382,-0.071344,-0.576819,0.137292,0.115194,0.027938,42.05414,-19.580675,-2.932848,4.63583E+18,-0.434803,0.574541,-0.437431,-0.538055,-9.256463,0.263272,-3.200985,0.352187,0.292335,0.225059,46.628617,-6.842456,-4.668932,4.63583E+18,0.035222,0.835275,-0.092051,-0.540927,-9.50056,0.644593,-1.976,-0.017757,-0.044652,0.07519,38.07569,-8.869983,26.057588,4.63583E+18,0.625984,-0.067649,0.767834,0.118316,0
-9.801007,-0.090787,-0.646992,0.149312,0.119601,0.022929,42.136158,-19.604729,-2.999585,4.63583E+18,-0.434871,0.57449,-0.438054,-0.537547,-9.306312,0.067767,-3.054914,0.331625,0.271667,0.228957,46.701858,-6.757007,-4.406687,4.63583E+18,0.03482,0.835855,-0.093411,-0.539823,-9.47455,0.567159,-2.034623,-0.035193,-0.047856,0.068783,37.995059,-8.954616,25.958558,4.63583E+18,0.626111,-0.067463,0.7677,0.118622,0
-9.779664,-0.052633,-0.667604,0.164763,0.120464,0.015722,42.212833,-19.690174,-2.990814,4.63583E+18,-0.434991,0.574426,-0.438696,-0.536995,-9.295125,0.002646,-2.804871,0.307005,0.254487,0.235508,46.727293,-6.872351,-4.345836,4.63583E+18,0.03451,0.836387,-0.094742,-0.538786,-9.541373,0.618564,-2.118469,-0.056275,-0.05106,0.061376,37.852583,-9.108494,26.044176,4.63583E+18,0.626246,-0.067354,0.767544,0.118976,0
-9.828492,0.024044,-0.730541,0.167598,0.095727,0.014353,42.274239,-19.772189,-2.963335,4.63583E+18,-0.435165,0.574304,-0.439295,-0.536494,-9.261152,0.152969,-2.498091,0.243496,0.247669,0.234619,46.672577,-7.234449,-4.183306,4.63583E+18,0.034407,0.83689,-0.095944,-0.537797,-9.568999,0.691005,-2.07847,-0.082628,-0.049275,0.047912,37.922782,-9.11893,26.050598,4.63583E+18,0.626374,-0.067359,0.767377,0.119379,0
-9.846412,0.11979,-0.746557,0.151342,0.045728,0.011315,42.253635,-19.872897,-2.834779,4.63583E+18,-0.435399,0.574105,-0.43976,-0.536137,-9.234094,0.223996,-2.505746,0.170639,0.238378,0.223051,46.589782,-7.458269,-3.985364,4.63583E+18,0.034522,0.837364,-0.096953,-0.536871,-9.582007,0.695822,-1.93842,-0.105337,-0.050133,0.039016,37.996823,-9.039108,25.959373,4.63583E+18,0.626502,-0.067451,0.767194,0.119831,0
-9.77164,0.231563,-0.682465,0.125974,0.002169,0.007177,42.200993,-19.97169,-2.661592,4.63583E+18,-0.43566,0.573862,-0.440079,-0.535922,-9.247917,0.212821,-2.775491,0.138152,0.225186,0.216692,46.571243,-7.361507,-3.942991,4.63583E+18,0.034736,0.837805,-0.09786,-0.536004,-9.548602,0.616,-1.848948,-0.120784,-0.050203,0.031469,37.990245,-8.885238,25.77049,4.63583E+18,0.626629,-0.067607,0.767001,0.120312,0
-9.675509,0.303279,-0.544749,0.105846,-0.000801,0.006709,42.200993,-19.862201,-2.603611,4.63583E+18,-0.43588,0.57365,-0.440347,-0.53575,-9.272327,0.255316,-3.016368,0.142718,0.218829,0.212421,46.695496,-7.324442,-3.866528,4.63583E+18,0.034928,0.838233,-0.098755,-0.535156,-9.466367,0.450726,-1.843318,-0.114784,-0.049205,0.036963,38.069261,-8.806363,25.928667,4.63583E+18,0.626752,-0.067731,0.766815,0.120788,0
-9.655678,0.339901,-0.456636,0.084016,0.003238,0.008378,42.176955,-19.808047,-2.632987,4.63583E+18,-0.436037,0.573484,-0.440577,-0.535612,-9.277626,0.354589,-3.130968,0.152795,0.208702,0.201457,46.739497,-7.52517,-3.692397,4.63583E+18,0.035051,0.838643,-0.099643,-0.534341,-9.460737,0.302645,-1.900327,-0.096334,-0.05113,0.042373,37.99508,-8.869949,25.952134,4.63583E+18,0.626883,-0.067789,0.766635,0.121219,0
-9.754861,0.338755,-0.50737,0.065224,-0.01896,0.014887,42.118974,-20.007553,-2.658161,4.63583E+18,-0.436175,0.57329,-0.44074,-0.535573,-9.315857,0.464448,-3.168625,0.141501,0.203644,0.18195,46.684801,-7.77195,-3.573553,4.63583E+18,0.035161,0.839045,-0.100449,-0.533551,-9.494943,0.304379,-1.995568,-0.07611,-0.051271,0.054698,37.989441,-9.023004,25.861726,4.63583E+18,0.627013,-0.067755,0.766468,0.121618,0
-9.868536,0.244536,-0.511189,0.050872,-0.079672,0.027438,42.148344,-20.000324,-2.591402,4.63583E+18,-0.436362,0.572964,-0.440791,-0.535728,-9.288226,0.641213,-3.279055,0.124411,0.200439,0.161423,46.535099,-7.834503,-3.475896,4.63583E+18,0.035282,0.839445,-0.101148,-0.532782,-9.542966,0.316587,-2.059023,-0.056813,-0.053266,0.066518,37.921029,-9.11329,25.775469,4.63583E+18,0.627148,-0.067632,0.76631,0.121986,0
-9.912412,0.13849,-0.4349,0.041658,-0.126775,0.035648,42.200993,-19.780202,-2.631068,4.63583E+18,-0.436595,0.572534,-0.440755,-0.536027,-9.22984,0.721844,-3.36555,0.111502,0.1872,0.141965,46.431098,-7.703351,-3.464252,4.63583E+18,0.035416,0.839823,-0.101725,-0.532066,-9.580386,0.317392,-2.142844,-0.04158,-0.0564,0.07627,37.995989,-9.267116,25.861019,4.63583E+18,0.627292,-0.067436,0.766154,0.122332,0
-9.898684,-0.013337,-0.302144,0.04376,-0.126577,0.047865,42.156377,-19.710742,-2.706612,4.63583E+18,-0.436805,0.572078,-0.440754,-0.536343,-9.21659,0.655995,-3.410119,0.103934,0.172851,0.121904,46.546333,-7.733142,-3.314004,4.63583E+18,0.035422,0.840156,-0.102383,-0.531414,-9.560014,0.362988,-2.171301,-0.03261,-0.064591,0.078901,38.081437,-9.346019,25.947279,4.63583E+18,0.627463,-0.067205,0.765982,0.122657,0
-9.85329,-0.137311,-0.235371,0.052437,-0.112191,0.056444,42.06288,-19.87285,-2.72185,4.63583E+18,-0.43699,0.571623,-0.440818,-0.536625,-9.226145,0.596562,-3.389405,0.103378,0.158966,0.103282,46.650342,-7.942818,-3.185581,4.63583E+18,0.035471,0.840483,-0.102836,-0.530806,-9.5356,0.434615,-2.115924,-0.03005,-0.071141,0.082035,38.087097,-9.350871,25.95294,4.63583E+18,0.627654,-0.066954,0.765795,0.122985,0
-9.82696,-0.217813,-0.254435,0.062985,-0.111015,0.060548,42.163547,-20.016302,-2.755856,4.63583E+18,-0.437189,0.571143,-0.440918,-0.536892,-9.257464,0.557288,-3.257225,0.104446,0.145916,0.086796,46.602011,-7.995849,-3.161717,4.63583E+18,0.035473,0.840787,-0.103238,-0.530246,-9.533982,0.439467,-2.043497,-0.026916,-0.076552,0.082247,38.007318,-9.350871,25.873157,4.63583E+18,0.627862,-0.066692,0.765597,0.123304,0
-9.820104,-0.237292,-0.291054,0.064762,-0.126568,0.063357,42.262449,-20.092967,-2.658205,4.63583E+18,-0.437271,0.570738,-0.440848,-0.537313,-9.294086,0.587557,-2.974302,0.070397,0.127245,0.070773,46.640787,-7.871623,-3.094826,4.63583E+18,0.035555,0.841052,-0.103503,-0.529769,-9.545379,0.462261,-2.038636,-0.017728,-0.080896,0.080253,38.001648,-9.350871,25.867487,4.63583E+18,0.628086,-0.06641,0.765391,0.12359,0
-9.805973,-0.192309,-0.334532,0.048945,-0.149057,0.060248,42.176996,-20.154423,-2.666813,4.63583E+18,-0.437525,0.570184,-0.440864,-0.537681,-9.311595,0.588609,-2.828934,0.010728,0.10361,0.052246,46.656696,-7.837153,-3.152694,4.63583E+18,0.035798,0.841264,-0.103572,-0.529402,-9.557586,0.532265,-2.027239,-0.013101,-0.083174,0.080111,38.07003,-9.27109,25.77631,4.63583E+18,0.62832,-0.066115,0.765181,0.123861,0
-9.835318,-0.094654,-0.412705,0.024247,-0.203668,0.061989,42.091547,-20.133857,-2.951001,4.63583E+18,-0.437798,0.569565,-0.440712,-0.53824,-9.333357,0.605063,-2.951014,-0.032464,0.087402,0.032183,46.599371,-7.894477,-3.240803,4.63583E+18,0.036137,0.841442,-0.103482,-0.529114,-9.615376,0.616897,-1.889678,-0.024783,-0.080324,0.075125,38.143267,-9.265419,25.678661,4.63583E+18,0.628543,-0.065868,0.764971,0.124155,0
-9.88457,-0.003856,-0.438826,-0.002024,-0.290742,0.053014,42.03009,-20.081179,-3.134305,4.63583E+18,-0.438188,0.568813,-0.440319,-0.539038,-9.271791,0.63903,-3.153219,-0.049785,0.076861,0.01189,46.58345,-7.910398,-3.335803,4.63583E+18,0.036488,0.841602,-0.103286,-0.528873,-9.676413,0.656765,-1.765982,-0.037601,-0.07712,0.068788,38.227904,-9.48194,25.489836,4.63583E+18,0.628755,-0.065677,0.764761,0.124472,0
-9.841525,0.072815,-0.22252,-0.026553,-0.310063,0.043794,42.009531,-20.057193,-3.067485,4.63583E+18,-0.438576,0.56808,-0.439814,-0.539908,-9.253212,0.656543,-3.341599,-0.055682,0.063907,-0.008401,46.707608,-7.843543,-3.280631,4.63583E+18,0.03681,0.841742,-0.103003,-0.528684,-9.634888,0.602221,-1.712283,-0.049422,-0.07591,0.06537,38.165213,-9.725276,25.488246,4.63583E+18,0.628962,-0.065529,0.764547,0.124818,0
-9.767421,0.134281,-0.148628,-0.040271,-0.26254,0.040796,41.953418,-19.995728,-3.127663,4.63583E+18,-0.43885,0.567482,-0.439357,-0.540685,-9.24366,0.640098,-3.381451,-0.057448,0.045006,-0.034547,46.809004,-7.958661,-3.106559,4.63583E+18,0.037069,0.84185,-0.102634,-0.528565,-9.586063,0.43864,-1.731825,-0.035248,-0.069856,0.067151,38.080581,-9.661747,25.580214,4.63583E+18,0.629153,-0.065341,0.764357,0.12512,0
-9.82995,0.158261,-0.362361,-0.013101,-0.251314,0.03581,42.013151,-20.019707,-3.286782,4.63583E+18,-0.439178,0.566869,-0.438969,-0.541376,-9.241004,0.491513,-3.305039,-0.062694,0.028889,-0.053962,46.770292,-8.062709,-2.911235,4.63583E+18,0.037291,0.841928,-0.102197,-0.528509,-9.503052,0.301921,-1.836,-0.007262,-0.065442,0.072278,38.086284,-9.58769,25.666477,4.63583E+18,0.629334,-0.065066,0.764195,0.125346,0
-9.889933,0.209463,-0.401357,-0.002448,-0.243995,0.041827,42.212751,-20.057214,-3.333071,4.63583E+18,-0.43946,0.566278,-0.438586,-0.542076,-9.241004,0.346621,-3.121436,-0.069938,0.009758,-0.064365,46.677953,-7.957147,-2.87829,4.63583E+18,0.037508,0.841968,-0.101709,-0.528525,-9.440388,0.384133,-2.025628,0.028557,-0.057181,0.06067,38.007339,-9.730938,25.683563,4.63583E+18,0.629504,-0.06474,0.764069,0.125424,0
-9.863582,0.128334,-0.427847,-0.025127,-0.232529,0.037425,42.205767,-19.995728,-3.26816,4.63583E+18,-0.439721,0.565725,-0.438209,-0.542746,-9.241004,0.221904,-2.999875,-0.071566,0.000328,-0.070403,46.589853,-7.722079,-3.033729,4.63583E+18,0.037719,0.84199,-0.101187,-0.528574,-9.42493,0.470388,-2.084208,0.071849,-0.038668,0.04586,38.013041,-9.957975,25.684376,4.63583E+18,0.629636,-0.064358,0.764011,0.125319,0
-9.877276,-0.029325,-0.59965,-0.040133,-0.275228,0.031745,41.98216,-20.043657,-3.338119,4.63583E+18,-0.440038,0.565113,-0.437705,-0.543533,-9.250553,0.290804,-3.064543,-0.06154,-0.002739,-0.076579,46.647632,-7.733089,-3.295882,4.63583E+18,0.037879,0.84201,-0.100668,-0.528631,-9.458294,0.669768,-2.053287,0.088727,-0.038382,0.044862,38.161962,-9.825341,25.672983,4.63583E+18,0.62977,-0.063936,0.763961,0.125157,0
-9.878176,-0.086939,-0.573161,-0.069871,-0.326045,0.029778,41.859184,-20.190595,-3.618889,4.63583E+18,-0.440381,0.564443,-0.437036,-0.544489,-9.205469,0.393781,-3.193507,-0.040367,0.000973,-0.079646,46.659355,-7.751701,-3.213808,4.63583E+18,0.037956,0.842041,-0.100187,-0.528667,-9.460737,0.934258,-1.925522,0.076765,-0.028485,0.01994,38.309264,-9.666645,25.672169,4.63583E+18,0.629884,-0.06363,0.763925,0.124965,0
-9.769796,-0.115227,-0.319191,-0.101317,-0.309727,0.024906,41.859184,-20.207576,-3.851729,4.63583E+18,-0.44063,0.563876,-0.436313,-0.545453,-9.21127,0.34822,-3.175018,-0.014364,0.006313,-0.077605,46.656696,-7.684869,-3.097546,4.63583E+18,0.03795,0.842087,-0.09977,-0.528673,-9.494913,0.929394,-1.882388,0.061884,-0.032756,-0.00078,38.319038,-9.724405,25.672169,4.63583E+18,0.630017,-0.063426,0.763864,0.124767,0
-9.72394,-0.060004,-0.049282,-0.130325,-0.22842,0.015802,41.859184,-20.045461,-3.958169,4.63583E+18,-0.440684,0.563562,-0.435652,-0.546262,-9.273879,0.243666,-3.028043,0.00148,0.014996,-0.072729,46.589858,-7.666249,-3.076266,4.63583E+18,0.0379,0.842153,-0.099405,-0.528641,-9.554317,0.882197,-1.948289,0.064871,-0.031119,-0.032039,38.170951,-9.809041,25.501297,4.63583E+18,0.630162,-0.063316,0.763801,0.124477,0
-9.789417,0.070843,-0.117833,-0.152834,-0.169795,-0.001117,41.83523,-19.901949,-4.028443,4.63583E+18,-0.440616,0.563454,-0.435007,-0.546943,-9.356666,0.114712,-2.838056,0.002602,0.019597,-0.05987,46.638076,-7.599418,-3.152645,4.63583E+18,0.037878,0.842223,-0.099085,-0.52859,-9.558396,0.810584,-2.010142,0.094063,-0.018019,-0.064083,38.000864,-9.529967,25.489058,4.63583E+18,0.630289,-0.063237,0.763779,0.124006,0
-9.960321,0.179229,-0.585136,-0.156499,-0.205719,-0.020943,41.74978,-19.873193,-4.083197,4.63583E+18,-0.44065,0.563305,-0.43424,-0.547677,-9.461199,0.11409,-2.633215,-0.021251,0.015283,-0.050765,46.656696,-7.580798,-3.097558,4.63583E+18,0.037957,0.842276,-0.098746,-0.528563,-9.524226,0.669008,-1.934491,0.098127,-0.001144,-0.060245,38.069169,-9.281766,25.659909,4.63583E+18,0.630362,-0.063145,0.763805,0.123527,0
-10.09358,0.228519,-0.907232,-0.13432,-0.307181,-0.042305,41.732764,-19.955221,-4.275087,4.63583E+18,-0.440968,0.562922,-0.433287,-0.548569,-9.475606,0.227088,-2.61661,-0.066197,0.017227,-0.045793,46.589868,-7.580798,-3.076266,4.63583E+18,0.038204,0.842324,-0.098327,-0.528547,-9.521774,0.5453,-1.71236,0.107239,-0.00598,-0.066793,38.222959,-9.333758,25.58105,4.63583E+18,0.630456,-0.063047,0.76382,0.123004,0
-10.082314,0.229994,-0.799794,-0.103564,-0.380141,-0.058578,41.891441,-20.031876,-4.461597,4.63583E+18,-0.441525,0.562344,-0.432232,-0.549546,-9.358394,0.294539,-2.86324,-0.095283,0.027346,-0.048203,46.638066,-7.513976,-2.999898,4.63583E+18,0.038552,0.842391,-0.097833,-0.528508,-9.521774,0.628245,-1.582929,0.118846,-0.007406,-0.070283,38.381657,-9.407003,25.48339,4.63583E+18,0.630558,-0.062929,0.763836,0.122434,0
-9.961721,0.23926,-0.553205,-0.092716,-0.401747,-0.065372,42.005676,-20.096805,-4.653479,4.63583E+18,-0.442161,0.561707,-0.431144,-0.550539,-9.221455,0.400641,-3.111143,-0.104582,0.038261,-0.053311,46.780788,-7.438072,-2.902242,4.63583E+18,0.038928,0.842482,-0.097295,-0.528434,-9.55594,0.691728,-1.506423,0.105682,-0.008474,-0.067508,38.608668,-9.343576,25.465462,4.63583E+18,0.630659,-0.062837,0.763844,0.121913,0
-9.889946,0.154288,-0.215806,-0.10998,-0.339449,-0.077804,41.981742,-20.057725,-4.843428,4.63583E+18,-0.442673,0.561265,-0.430101,-0.551394,-9.192175,0.427259,-3.199895,-0.102406,0.04393,-0.056981,46.691314,-7.546179,-2.957303,4.63583E+18,0.039285,0.842586,-0.096756,-0.528341,-9.615339,0.741376,-1.501511,0.072791,-0.012531,-0.073272,38.624226,-9.406995,25.55575,4.63583E+18,0.630767,-0.062847,0.763823,0.121483,0
-9.863582,0.000961,-0.069345,-0.13698,-0.260967,-0.077718,41.896289,-19.93469,-5.016762,4.63583E+18,-0.442979,0.561053,-0.42914,-0.552112,-9.239896,0.245921,-3.096018,-0.095628,0.034841,-0.051834,46.723503,-7.647606,-3.054959,4.63583E+18,0.039621,0.842668,-0.096258,-0.528276,-9.653596,0.721877,-1.512898,0.041603,-0.011821,-0.075695,38.259834,-9.491618,25.391496,4.63583E+18,0.630866,-0.062948,0.763787,0.121145,0
-9.846486,-0.166523,-0.156266,-0.141935,-0.246403,-0.066779,41.814256,-19.958625,-5.050926,4.63583E+18,-0.443223,0.560863,-0.42822,-0.552824,-9.300927,-0.02417,-2.882742,-0.090657,0.019519,-0.041853,46.933005,-7.666249,-3.076266,4.63583E+18,0.039955,0.842712,-0.09581,-0.528261,-9.678827,0.617766,-1.570646,0.019597,-0.010753,-0.081816,38.153888,-9.349346,25.379192,4.63583E+18,0.630958,-0.063127,0.763741,0.120861,0
-9.778616,-0.30128,-0.247566,-0.136765,-0.281607,-0.048194,41.782038,-19.996213,-4.984039,4.63583E+18,-0.443497,0.560548,-0.42729,-0.553643,-9.295164,-0.094994,-2.860746,-0.083045,0.014352,-0.033677,46.919497,-7.532652,-2.999924,4.63583E+18,0.040281,0.842744,-0.095402,-0.52826,-9.669085,0.530671,-1.711382,0.014174,-0.007693,-0.099183,38.353077,-8.974325,25.458891,4.63583E+18,0.631047,-0.063377,0.763696,0.120547,0
-9.686343,-0.388181,-0.229022,-0.128692,-0.311728,-0.03055,41.903104,-19.890274,-5.047495,4.63583E+18,-0.443803,0.560116,-0.426362,-0.554549,-9.242121,0.064566,-3.05005,-0.06615,0.020566,-0.023695,46.700449,-7.371291,-2.911808,4.63583E+18,0.040575,0.842788,-0.095061,-0.528228,-9.622721,0.456605,-1.857871,0.025841,-0.000503,-0.106383,38.36787,-8.948027,25.373558,4.63583E+18,0.631121,-0.063622,0.763673,0.120175,0
-9.620904,-0.476089,-0.107406,-0.128351,-0.300572,-0.026405,42.099435,-19.775993,-5.242856,4.63583E+18,-0.444079,0.559701,-0.425466,-0.555435,-9.266967,0.167123,-3.20565,-0.041078,0.026606,-0.012178,46.644489,-7.403448,-2.893155,4.63583E+18,0.040806,0.842845,-0.094818,-0.528163,-9.60805,0.394753,-1.856348,0.031684,0.002988,-0.107811,38.231257,-9.096021,25.378369,4.63583E+18,0.631185,-0.06386,0.763662,0.11978,0
-9.686865,-0.479512,0.034684,-0.152756,-0.253389,-0.026834,42.107662,-19.799955,-5.407427,4.63583E+18,-0.444024,0.559585,-0.424406,-0.556405,-9.287169,0.183111,-3.273133,-0.022724,0.038627,-0.007108,46.711286,-7.479357,-2.959953,4.63583E+18,0.040986,0.842929,-0.094635,-0.528048,-9.550306,0.447557,-1.832757,0.025072,0.000216,-0.106887,38.301068,-8.95873,25.641026,4.63583E+18,0.631256,-0.06411,0.763641,0.119408,0
-9.786453,-0.505405,0.043928,-0.174068,-0.217214,-0.031106,41.993465,-19.837493,-5.444965,4.63583E+18,-0.444056,0.559454,-0.423545,-0.557167,-9.270751,0.135403,-3.302875,-0.004199,0.048337,-0.0014,46.73948,-7.562136,-2.978606,4.63583E+18,0.041113,0.843034,-0.094516,-0.527892,-9.557573,0.474442,-1.842495,0.02656,0,-0.110799,38.295448,-8.879722,25.659962,4.63583E+18,0.631329,-0.064369,0.763619,0.119021,0
-9.839167,-0.53907,-0.010263,-0.176156,-0.208119,-0.035079,42.03794,-19.710993,-5.468991,4.63583E+18,-0.444075,0.559354,-0.422687,-0.557903,-9.284502,0.160239,-3.222336,0.00167,0.049368,0.006679,46.799394,-7.580798,-2.902277,4.63583E+18,0.041238,0.84314,-0.094439,-0.527727,-9.581162,0.441941,-1.93438,0.049611,0.00498,-0.115071,38.226326,-9.091054,25.489221,4.63583E+18,0.631394,-0.064583,0.763621,0.118548,0
-9.798106,-0.509289,-0.005827,-0.163807,-0.204737,-0.038882,42.128212,-19.568004,-5.818675,4.63583E+18,-0.444125,0.559246,-0.421854,-0.558602,-9.327998,0.075492,-2.912104,-0.012891,0.031603,0.014389,46.882181,-7.514009,-2.957277,4.63583E+18,0.041426,0.843201,-0.094356,-0.52763,-9.525898,0.371171,-2.032038,0.089118,0.007333,-0.111376,38.449031,-9.175018,25.556528,4.63583E+18,0.631461,-0.064683,0.763649,0.117958,0
-9.692678,-0.483402,0.086925,-0.154412,-0.188335,-0.044522,42.066711,-19.650027,-6.152531,4.63583E+18,-0.444131,0.559204,-0.42101,-0.559275,-9.386363,-0.122891,-2.498216,-0.032116,0.005835,0.016857,46.900845,-7.562126,-2.978606,4.63583E+18,0.041674,0.8432,-0.094246,-0.52763,-9.49901,0.172717,-2.095549,0.192455,0.019429,-0.106107,38.602118,-8.963697,25.641981,4.63583E+18,0.631514,-0.064501,0.76376,0.11705,0
-9.692678,-0.439467,0.122074,-0.155052,-0.186115,-0.050332,42.090646,-19.678815,-6.07389,4.63583E+18,-0.444192,0.559143,-0.420202,-0.559895,-9.313843,-0.008728,-2.595653,-0.060524,0.006678,0.014586,46.776826,-7.647576,-3.054924,4.63583E+18,0.042014,0.843197,-0.094072,-0.52764,-9.531504,0.067646,-2.020004,0.254516,0.032245,-0.098776,38.395774,-8.731783,25.738804,4.63583E+18,0.631538,-0.064138,0.763937,0.11596,0
-9.68584,-0.446305,0.118655,-0.148257,-0.193463,-0.053407,42.12823,-19.596781,-5.899114,4.63583E+18,-0.444292,0.559056,-0.419391,-0.560511,-9.165818,0.389592,-3.059215,-0.055607,0.014388,0.018894,46.60859,-7.599471,-3.076266,4.63583E+18,0.042349,0.84321,-0.093923,-0.52762,-9.454314,0.18623,-1.877647,0.240566,0.027137,-0.080344,38.152454,-8.716086,25.665745,4.63583E+18,0.631565,-0.063751,0.764097,0.114963,0
-9.661425,-0.457043,0.126963,-0.137022,-0.19265,-0.05251,41.994909,-19.520118,-6.051481,4.63583E+18,-0.444413,0.558947,-0.41861,-0.561107,-9.207446,0.555066,-3.288388,-0.031474,0.02103,0.013618,46.628476,-7.456796,-3.076266,4.63583E+18,0.042595,0.843244,-0.093799,-0.527567,-9.482674,0.320511,-1.788065,0.208394,0.020729,-0.062113,38.215595,-8.716086,25.659962,4.63583E+18,0.631595,-0.063388,0.76423,0.114118,0
-9.654105,-0.439467,0.170904,-0.138389,-0.17667,-0.048707,41.789843,-19.458601,-6.207697,4.63583E+18,-0.444494,0.558871,-0.417863,-0.561675,-9.286026,0.487904,-3.329952,-0.01562,0.022431,0.007577,46.711255,-7.422101,-2.99996,4.63583E+18,0.042772,0.843286,-0.093687,-0.527505,-9.553431,0.397879,-1.714002,0.168315,0.00735,-0.050927,38.289659,-8.49987,25.73962,4.63583E+18,0.63165,-0.063088,0.76431,0.113434,0
-9.707809,-0.449718,0.116227,-0.139329,-0.169663,-0.041573,41.781536,-19.482522,-6.091001,4.63583E+18,-0.444544,0.5588,-0.417144,-0.56224,-9.282964,0.35896,-3.399389,0.000536,0.029942,0.003905,46.672711,-7.479331,-2.978606,4.63583E+18,0.042886,0.843349,-0.0936,-0.52741,-9.603916,0.402844,-1.731796,0.124738,0.000435,-0.041241,38.294624,-8.552423,25.745413,4.63583E+18,0.631712,-0.062869,0.764355,0.112915,0
-9.795213,-0.496589,-0.017581,-0.130616,-0.192095,-0.03371,41.919725,-19.567969,-6.261864,4.63583E+18,-0.444634,0.558646,-0.416422,-0.562857,-9.249018,0.224704,-3.408537,0.026801,0.024535,0.00988,46.723446,-7.628849,-3.054894,4.63583E+18,0.042913,0.843402,-0.0936,-0.527324,-9.652746,0.425604,-1.733451,0.079948,-0.002987,-0.037602,38.214965,-8.773604,25.574717,4.63583E+18,0.63177,-0.062754,0.764369,0.11255,0
-9.890433,-0.53908,0,-0.101091,-0.179749,-0.03495,41.933411,-19.605581,-6.543168,4.63583E+18,-0.444773,0.558468,-0.415788,-0.563392,-9.288681,0.128571,-3.224694,0.033113,0.011585,0.015087,46.742146,-7.599502,-2.999983,4.63583E+18,0.042924,0.843425,-0.093634,-0.527281,-9.701569,0.438637,-1.74483,0.039074,-0.006191,-0.03639,38.277443,-8.573141,25.550924,4.63583E+18,0.631828,-0.062742,0.764357,0.112318,0
-9.991522,-0.485372,-0.095685,-0.065757,-0.174656,-0.032088,41.765931,-19.544052,-6.543168,4.63583E+18,-0.444979,0.558231,-0.415254,-0.563858,-9.302041,0.148008,-3.145319,0.032278,0.006876,0.018525,46.6754,-7.523586,-2.902324,4.63583E+18,0.042946,0.843436,-0.093675,-0.527253,-9.647994,0.371197,-1.80255,0.010432,-0.007404,-0.031339,38.362066,-8.341203,25.641121,4.63583E+18,0.631879,-0.062789,0.764329,0.112191,0
-9.895332,-0.401388,-0.270075,-0.04717,-0.261182,-0.027301,41.672155,-19.567963,-6.594406,4.63583E+18,-0.445366,0.557747,-0.414614,-0.564502,-9.273439,0.23497,-3.261247,0.042055,0.003906,0.021729,46.656696,-7.631498,-2.804674,4.63583E+18,0.042935,0.843441,-0.093755,-0.527232,-9.655227,0.309331,-1.795317,-0.009376,-0.010464,-0.028985,38.436138,-8.325449,25.727402,4.63583E+18,0.631934,-0.06288,0.764285,0.112133,0
-9.875281,-0.352561,-0.044469,-0.046954,-0.252865,-0.028242,41.772717,-19.653411,-6.726279,4.63583E+18,-0.44574,0.557283,-0.413988,-0.565124,-9.21775,0.332626,-3.334134,0.051536,0.00237,0.020763,46.780636,-7.666249,-2.859559,4.63583E+18,0.042887,0.843445,-0.093853,-0.527213,-9.621925,0.339316,-1.783111,-0.027605,-0.009686,-0.024858,38.372853,-8.39371,25.824222,4.63583E+18,0.631979,-0.063006,0.764236,0.112144,0
-9.906084,-0.320808,0.023463,-0.052339,-0.221699,-0.025807,41.940215,-19.691046,-6.675042,4.63583E+18,-0.445926,0.556983,-0.413298,-0.565778,-9.185314,0.354015,-3.306693,0.055076,0.000468,0.016124,46.815392,-7.532775,-2.880947,4.63583E+18,0.042819,0.843447,-0.093936,-0.5272,-9.551173,0.341807,-1.759527,-0.035808,-0.010609,-0.022576,38.288232,-8.330433,25.751227,4.63583E+18,0.632024,-0.063146,0.764181,0.112188,0
-9.820131,-0.319357,-0.052758,-0.051443,-0.244561,-0.024694,42.054504,-19.629505,-6.594384,4.63583E+18,-0.446283,0.556526,-0.412701,-0.566381,-9.218098,0.249155,-3.22927,0.057212,-0.000834,0.019125,46.748661,-7.37142,-3.109733,4.63583E+18,0.042754,0.843446,-0.094026,-0.52719,-9.546189,0.444198,-1.81475,-0.051249,-0.01765,-0.024422,38.13452,-8.177551,25.825051,4.63583E+18,0.632088,-0.063329,0.764099,0.112277,0
-9.795718,-0.296391,0.027307,-0.048537,-0.256816,-0.028369,42.006718,-19.632918,-6.780892,4.63583E+18,-0.446673,0.556044,-0.412076,-0.567002,-9.305047,0.181608,-3.048516,0.05768,-0.006072,0.017793,46.729939,-7.393837,-3.250175,4.63583E+18,0.042681,0.843435,-0.094114,-0.527199,-9.603066,0.508551,-1.853029,-0.067269,-0.020149,-0.037507,38.282977,-8.382885,25.751237,4.63583E+18,0.632162,-0.063595,0.764,0.112383,0
-9.77813,-0.291533,0.14544,-0.049388,-0.268541,-0.029908,41.839233,-19.641712,-6.948901,4.63583E+18,-0.44707,0.555548,-0.41141,-0.567659,-9.412245,0.161372,-2.840976,0.040999,-0.010813,0.014588,46.796664,-7.476618,-3.042814,4.63583E+18,0.042654,0.843411,-0.094159,-0.527232,-9.584462,0.398889,-1.855525,-0.081309,-0.021291,-0.042437,38.510886,-8.466987,25.563299,4.63583E+18,0.632238,-0.063914,0.763891,0.112521,0
-9.771306,-0.252944,0.29927,-0.053155,-0.242702,-0.02961,41.701021,-19.665595,-7.04314,4.63583E+18,-0.447413,0.555119,-0.410783,-0.568262,-9.350541,0.292134,-2.890808,0.026309,-0.006746,0.017222,46.748672,-7.504877,-2.759387,4.63583E+18,0.042684,0.843391,-0.094182,-0.527256,-9.582811,0.40202,-1.821377,-0.094199,-0.020367,-0.043722,38.446886,-8.323964,25.459034,4.63583E+18,0.632308,-0.064271,0.763777,0.112696,0
-9.74348,-0.254384,0.385253,-0.047894,-0.210094,-0.029139,41.663336,-19.70328,-7.132004,4.63583E+18,-0.447711,0.554755,-0.410231,-0.568781,-9.288332,0.291476,-2.984286,0.025167,-0.005341,0.014823,46.672755,-7.631455,-2.917048,4.63583E+18,0.042708,0.843375,-0.094201,-0.527276,-9.57143,0.459751,-1.796141,-0.107015,-0.022287,-0.04479,38.361442,-8.324623,25.543486,4.63583E+18,0.632381,-0.064665,0.763652,0.11291,0
-9.696622,-0.287594,0.392609,-0.050203,-0.201442,-0.029908,41.724903,-19.597358,-7.233075,4.63583E+18,-0.44799,0.554418,-0.409687,-0.569283,-9.296688,0.261708,-3.041145,0.030639,-0.002839,0.013886,46.723411,-7.732966,-3.131102,4.63583E+18,0.042709,0.843365,-0.094232,-0.527287,-9.581985,0.361451,-1.794488,-0.113858,-0.019444,-0.043866,38.367044,-8.541691,25.550095,4.63583E+18,0.632442,-0.065075,0.763532,0.113147,0
-9.664317,-0.308597,0.386691,-0.051695,-0.200715,-0.028117,41.745372,-19.435255,-7.366818,4.63583E+18,-0.448259,0.554081,-0.409145,-0.569788,-9.302041,0.332594,-3.07091,0.047888,0.000365,0.013886,46.742146,-7.751701,-3.097686,4.63583E+18,0.042648,0.843365,-0.094301,-0.527279,-9.594193,0.274346,-1.840013,-0.107321,-0.021218,-0.043794,38.436155,-8.625677,25.367996,4.63583E+18,0.63251,-0.065466,0.763409,0.113364,0
-9.727323,-0.313983,0.391727,-0.056439,-0.154977,-0.022306,41.818609,-19.312113,-7.534833,4.63583E+18,-0.448426,0.553851,-0.40869,-0.570207,-9.302041,0.287316,-3.019096,0.059843,0.000234,0.013886,46.60875,-7.685003,-2.923812,4.63583E+18,0.042546,0.843367,-0.094394,-0.527268,-9.606399,0.257183,-1.888837,-0.10084,-0.020367,-0.041803,38.361453,-8.414417,25.354776,4.63583E+18,0.632576,-0.065834,0.763293,0.113565,0
-9.753716,-0.305185,0.214027,-0.058748,-0.152551,-0.020121,41.871395,-19.312113,-7.605212,4.63583E+18,-0.448577,0.553627,-0.40824,-0.570627,-9.292512,0.29715,-2.993492,0.056116,0.003335,0.01472,46.580772,-7.732953,-2.880947,4.63583E+18,0.042458,0.843374,-0.094484,-0.527248,-9.595847,0.290495,-1.903527,-0.087461,-0.019299,-0.046636,38.287383,-8.330415,25.445815,4.63583E+18,0.632644,-0.066183,0.763185,0.113711,0
-9.784386,-0.284738,0.107323,-0.056363,-0.174108,-0.023922,41.827092,-19.312113,-7.577949,4.63583E+18,-0.448803,0.553334,-0.407771,-0.571069,-9.346997,0.276604,-3.028923,0.047807,-0.000729,0.014954,46.773994,-7.818391,-2.880947,4.63583E+18,0.042395,0.84337,-0.09456,-0.527246,-9.538121,0.327117,-1.904355,-0.057644,-0.014248,-0.052973,38.430353,-8.462006,25.543473,4.63583E+18,0.632707,-0.066475,0.763103,0.113744,0
-9.873808,-0.214896,0.232817,-0.046922,-0.168739,-0.029263,41.66838,-19.312113,-7.534825,4.63583E+18,-0.449068,0.553034,-0.407336,-0.571462,-9.353551,0.220924,-3.09681,0.037594,-0.002136,0.013287,46.827599,-7.837153,-2.804726,4.63583E+18,0.042363,0.843361,-0.094608,-0.527254,-9.442956,0.363735,-1.87022,-0.020698,-0.006917,-0.046438,38.520762,-8.619857,25.459069,4.63583E+18,0.632753,-0.066653,0.763059,0.113674,0
-9.876344,-0.191355,0.326191,-0.038752,-0.157566,-0.034306,41.550592,-19.315521,-7.683608,4.63583E+18,-0.449352,0.552747,-0.406939,-0.571799,-9.265119,0.340918,-3.217696,0.026912,-0.001303,0.008649,46.694207,-7.703761,-2.859512,4.63583E+18,0.042362,0.843355,-0.094611,-0.527264,-9.459079,0.354844,-1.788085,-0.008203,-0.006409,-0.042944,38.515188,-8.482717,25.36141,4.63583E+18,0.632799,-0.066786,0.763024,0.113575,0
-9.7909,-0.257778,0.324207,-0.04131,-0.167774,-0.035,41.633796,-19.348172,-7.913242,4.63583E+18,-0.449656,0.552436,-0.406521,-0.572158,-9.193375,0.387955,-3.275747,0.027901,0.001432,0.00581,46.790055,-7.732929,-2.880947,4.63583E+18,0.04235,0.843355,-0.094606,-0.527265,-9.483494,0.410906,-1.748146,-0.005486,-0.006409,-0.042726,38.514359,-8.324021,25.445803,4.63583E+18,0.632846,-0.066911,0.76299,0.113467,0
-9.702041,-0.292978,0.372475,-0.04593,-0.168791,-0.028542,41.915692,-19.409771,-7.959789,4.63583E+18,-0.449771,0.552236,-0.405947,-0.572668,-9.170441,0.304901,-3.226634,0.034675,0.003803,0.00284,46.818073,-7.685017,-2.957157,4.63583E+18,0.042309,0.843363,-0.094603,-0.527256,-9.507906,0.403675,-1.768412,-0.005341,-0.005413,-0.04173,38.593994,-8.392879,25.441058,4.63583E+18,0.632889,-0.067033,0.76296,0.113361,0
-9.62142,-0.299792,0.44486,-0.048912,-0.139703,-0.0233,41.985799,-19.409771,-7.949296,4.63583E+18,-0.44999,0.551978,-0.4056,-0.57299,-9.16776,0.252194,-3.172445,0.041318,0.005106,0.006304,46.691562,-7.599572,-2.978606,4.63583E+18,0.042255,0.843374,-0.094623,-0.527239,-9.520944,0.402844,-1.78145,-0.009323,-0.00335,-0.039667,38.520173,-8.546591,25.360591,4.63583E+18,0.632923,-0.06716,0.762934,0.113273,0
-9.584801,-0.31058,0.413635,-0.059294,-0.125319,-0.011154,41.803275,-19.433613,-8.159639,4.63583E+18,-0.450128,0.551756,-0.40528,-0.573322,-9.24396,0.158422,-3.028366,0.045226,-0.000493,0.009977,46.656696,-7.580798,-3.131008,4.63583E+18,0.042192,0.843371,-0.094666,-0.527241,-9.567282,0.380091,-1.839165,-0.020563,-0.002209,-0.039521,38.366458,-8.557389,25.354776,4.63583E+18,0.632949,-0.067316,0.762905,0.113221,0
-9.561803,-0.275948,0.436332,-0.072186,-0.154707,-0.008719,41.671525,-19.495224,-8.362071,4.63583E+18,-0.450289,0.551476,-0.404888,-0.573742,-9.370195,0.010455,-2.809837,0.034262,-0.012971,0.013182,46.790046,-7.647473,-3.097724,4.63583E+18,0.042167,0.843338,-0.0947,-0.527291,-9.616105,0.389805,-1.820567,-0.036293,-0.002136,-0.043503,38.287409,-8.341257,25.536783,4.63583E+18,0.632973,-0.067526,0.762869,0.113209,0
-9.577416,-0.197885,0.606389,-0.095932,-0.141224,-0.007005,41.809782,-19.471385,-8.310987,4.63583E+18,-0.450347,0.551285,-0.404449,-0.574189,-9.390177,0.137492,-2.844589,0.014309,-0.010189,0.018053,46.818075,-7.666249,-2.847691,4.63583E+18,0.042223,0.843304,-0.094708,-0.527338,-9.699061,0.356511,-1.830278,-0.05132,-0.004127,-0.047775,38.362046,-8.325449,25.641098,4.63583E+18,0.633001,-0.067788,0.762819,0.113234,0
-9.622252,-0.099654,0.614946,-0.126134,-0.095938,-0.007652,41.847566,-19.362113,-8.155131,4.63583E+18,-0.450284,0.551243,-0.404044,-0.574564,-9.311304,0.306918,-3.002071,0.010447,-0.009378,0.01756,46.748725,-7.599584,-2.859477,4.63583E+18,0.042293,0.843272,-0.094703,-0.527385,-9.682135,0.206136,-1.796985,-0.056321,-0.000291,-0.050057,38.288242,-8.393701,25.46575,4.63583E+18,0.633016,-0.068072,0.762776,0.113267,0
-9.716503,-0.056227,0.490293,-0.149664,-0.085873,-0.007425,41.762117,-19.218446,-8.144561,4.63583E+18,-0.450149,0.551268,-0.403602,-0.574956,-9.213654,0.370375,-3.077733,0.009848,-0.007947,0.009591,46.739461,-7.647455,-3.033307,4.63583E+18,0.042346,0.843246,-0.09467,-0.527428,-9.555357,0.092953,-1.714871,-0.04865,0.004976,-0.047217,38.12318,-8.33045,25.372818,4.63583E+18,0.633014,-0.068329,0.762752,0.113283,0
-9.795148,-0.0054,0.487707,-0.155426,-0.082874,-0.011626,41.720912,-19.165623,-8.303849,4.63583E+18,-0.450006,0.551319,-0.403141,-0.575343,-9.163605,0.37843,-3.145613,0.01128,-0.004144,0.001644,46.742146,-7.666249,-2.923893,4.63583E+18,0.042376,0.843231,-0.094614,-0.52746,-9.546189,0.278807,-1.754532,-0.048067,0.006336,-0.036051,38.259374,-8.245832,25.35561,4.63583E+18,0.633003,-0.06855,0.762735,0.113325,0
-9.77793,-0.018411,0.545931,-0.16474,-0.082125,-0.009736,41.777137,-19.165623,-8.350465,4.63583E+18,-0.449835,0.551385,-0.402664,-0.575746,-9.250766,0.292737,-3.285495,0.025913,-0.008203,-0.000833,46.675498,-7.5996,-2.738127,4.63583E+18,0.042349,0.843211,-0.09458,-0.527501,-9.580311,0.452212,-1.757866,-0.059014,0.006409,-0.032263,38.497687,-8.308241,25.525384,4.63583E+18,0.632987,-0.068787,0.762715,0.113413,0
-9.646658,-0.118078,0.581366,-0.169415,-0.117704,-0.01252,41.76212,-19.141801,-8.288827,4.63583E+18,-0.44972,0.55138,-0.402103,-0.576234,-9.391888,0.230476,-3.358501,0.049904,-0.014612,-0.000235,46.656696,-7.523667,-2.774011,4.63583E+18,0.042236,0.84318,-0.094599,-0.527555,-9.605557,0.338784,-1.757866,-0.065787,0.006409,-0.027069,38.446122,-8.392849,25.628868,4.63583E+18,0.632966,-0.069025,0.762692,0.113536,0
-9.75112,-0.194722,0.692419,-0.164372,-0.088095,-0.010261,41.724308,-19.127809,-8.312646,4.63583E+18,-0.449561,0.551432,-0.401614,-0.576649,-9.386027,0.2483,-3.283544,0.067208,-0.02602,0.004999,46.59004,-7.507553,-2.871673,4.63583E+18,0.04207,0.843125,-0.094677,-0.527642,-9.584481,0.147642,-1.780611,-0.060255,0.005414,-0.019738,38.441113,-8.466928,25.64692,4.63583E+18,0.632946,-0.069224,0.762672,0.113661,0
-9.859574,-0.276763,0.639399,-0.158314,-0.068484,-0.004921,41.806349,-19.271483,-8.374279,4.63583E+18,-0.449371,0.55151,-0.401188,-0.577019,-9.327692,0.237318,-3.116596,0.077994,-0.032172,0.004743,46.637875,-7.564666,-2.807486,4.63583E+18,0.04186,0.843058,-0.094781,-0.527747,-9.571439,0.134281,-1.782281,-0.049865,0.006336,-0.008281,38.588953,-8.540172,25.545403,4.63583E+18,0.63292,-0.069361,0.762663,0.113783,0
-9.898809,-0.343202,0.514717,-0.150311,-0.0796,0.001015,41.859184,-19.303917,-8.428688,4.63583E+18,-0.449108,0.551602,-0.400684,-0.577485,-9.26666,0.19387,-3.047712,0.082609,-0.036444,0.004273,46.656696,-7.647422,-2.707146,4.63583E+18,0.041629,0.842983,-0.094899,-0.527865,-9.604717,0.202508,-1.805023,-0.04615,0.007404,-0.003497,38.679406,-8.545182,25.446919,4.63583E+18,0.63289,-0.069472,0.762659,0.113906,0
-9.846578,-0.371628,0.495098,-0.160253,-0.098323,0.008492,41.859184,-19.22727,-8.62401,4.63583E+18,-0.448927,0.551592,-0.400226,-0.577954,-9.224659,0.202147,-3.153857,0.104136,-0.040716,0.005105,46.723319,-7.666249,-2.837913,4.63583E+18,0.041321,0.8429,-0.095069,-0.52799,-9.618597,0.207526,-1.874921,-0.04394,0.004492,-0.00022,38.53744,-8.476957,25.542566,4.63583E+18,0.632868,-0.069566,0.76265,0.11403,0
-9.775352,-0.354015,0.502514,-0.190968,-0.093821,0.013886,41.835391,-19.165623,-8.683338,4.63583E+18,-0.448653,0.551641,-0.399713,-0.578474,-9.254661,0.198008,-3.309863,0.134171,-0.050819,0.006174,46.618415,-7.732873,-2.957089,4.63583E+18,0.040902,0.8428,-0.095314,-0.528139,-9.585321,0.218897,-1.902682,-0.044789,0.005268,0.004975,38.446968,-8.471938,25.550095,4.63583E+18,0.632841,-0.069647,0.762645,0.114171,0
-9.708286,-0.337014,0.465888,-0.193915,-0.105059,0.012696,41.773735,-19.165623,-8.471938,4.63583E+18,-0.448398,0.551667,-0.399173,-0.579019,-9.284452,0.319034,-3.344829,0.150988,-0.052575,-0.002751,46.516833,-7.818317,-2.902473,4.63583E+18,0.040401,0.842701,-0.09557,-0.528289,-9.582811,0.333429,-1.915724,-0.051826,0.006336,0.006336,38.509331,-8.619742,25.368182,4.63583E+18,0.632807,-0.069742,0.762639,0.114337,0
-9.710294,-0.26238,0.493862,-0.17861,-0.1255,0.007531,41.749937,-19.145224,-8.580729,4.63583E+18,-0.448225,0.551624,-0.398619,-0.579576,-9.318386,0.534846,-3.420968,0.159643,-0.051506,-0.017832,46.621726,-7.837153,-2.880947,4.63583E+18,0.039835,0.842612,-0.095793,-0.528434,-9.560072,0.432763,-1.939301,-0.065272,-0.00155,0.00243,38.44614,-8.630634,25.354776,4.63583E+18,0.632797,-0.069881,0.762605,0.114537,0
-9.68928,-0.15932,0.675569,-0.172688,-0.09864,0.002731,41.66789,-19.092379,-8.862575,4.63583E+18,-0.448032,0.551642,-0.398119,-0.580051,-9.250332,0.57644,-3.328302,0.147969,-0.056267,-0.031354,46.856521,-7.770544,-3.033195,4.63583E+18,0.039281,0.842515,-0.09594,-0.528603,-9.558396,0.416728,-1.895499,-0.076173,-0.003131,0.000147,38.441113,-8.482831,25.445733,4.63583E+18,0.632789,-0.070054,0.762561,0.114763,0
-9.704256,-0.087466,0.754091,-0.175529,-0.038971,0.003381,41.638821,-19.136551,-8.781026,4.63583E+18,-0.447731,0.551808,-0.397725,-0.580395,-9.257341,0.469085,-3.134247,0.120889,-0.059345,-0.043339,46.913052,-7.80879,-3.066751,4.63583E+18,0.038793,0.842412,-0.095987,-0.528795,-9.558396,0.324107,-1.93762,-0.08188,-0.006189,-0.001989,38.441113,-8.403729,25.54338,4.63583E+18,0.632791,-0.070246,0.762506,0.115002,0
-9.77611,-0.064433,0.63947,-0.173875,-0.026181,0.004337,41.744633,-19.227305,-8.623929,4.63583E+18,-0.447411,0.552001,-0.397361,-0.580709,-9.284451,0.230115,-3.050409,0.112627,-0.062314,-0.050926,46.779826,-7.701238,-2.997446,4.63583E+18,0.038317,0.842303,-0.095988,-0.529002,-9.512925,0.306024,-1.884137,-0.081253,-0.005414,-0.00512,38.657105,-8.319118,25.447782,4.63583E+18,0.632791,-0.070447,0.762453,0.11523,0
-9.833106,-0.05287,0.433233,-0.193767,-0.062746,0.015789,41.879559,-19.145248,-8.87358,4.63583E+18,-0.446993,0.55218,-0.396826,-0.581225,-9.251773,-0.03843,-3.210916,0.151287,-0.068849,-0.048176,46.799238,-7.40934,-3.130849,4.63583E+18,0.037716,0.842187,-0.096073,-0.529216,-9.555039,0.339289,-1.834468,-0.0772,-0.006335,-0.005341,38.741263,-8.38145,25.349285,4.63583E+18,0.632796,-0.070638,0.762399,0.115445,0
-9.959946,-0.003395,0.15797,-0.226865,-0.121733,0.022311,41.884896,-19.092379,-9.206483,4.63583E+18,-0.446654,0.552217,-0.396186,-0.581887,-9.260034,0.064093,-3.430644,0.208149,-0.069665,-0.038673,46.815392,-7.393739,-3.326162,4.63583E+18,0.036935,0.842073,-0.096317,-0.529408,-9.592493,0.296346,-1.774284,-0.068951,-0.007403,-0.010313,38.609914,-8.466043,25.524413,4.63583E+18,0.632808,-0.070822,0.762345,0.11562,0
-10.025619,-0.056328,0.135702,-0.225968,-0.2047,0.017742,41.717407,-19.116136,-9.311512,4.63583E+18,-0.446464,0.552058,-0.395382,-0.58273,-9.284449,0.271619,-3.326873,0.258571,-0.073592,-0.035484,46.6917,-7.609705,-3.369243,4.63583E+18,0.035976,0.841954,-0.096696,-0.529593,-9.572289,0.213422,-1.770074,-0.05245,0.000479,-0.011676,38.463428,-8.551493,25.640174,4.63583E+18,0.632802,-0.070971,0.762319,0.115737,0
-9.814712,-0.191263,0.502654,-0.213036,-0.277527,0.012104,41.602829,-19.154077,-9.241004,4.63583E+18,-0.446448,0.551699,-0.394472,-0.583699,-9.375447,0.193729,-2.969877,0.279994,-0.071441,-0.037746,46.723282,-7.732837,-3.28363,4.63583E+18,0.034933,0.841843,-0.097121,-0.529762,-9.593335,0.196161,-1.735978,-0.039338,0.000074,-0.01175,38.521511,-8.62558,25.556833,4.63583E+18,0.6328,-0.071086,0.762298,0.115812,0
-9.639087,-0.257724,0.972541,-0.21179,-0.183924,0.005695,41.64695,-19.068622,-9.268155,4.63583E+18,-0.446297,0.551575,-0.393723,-0.584437,-9.380675,0.187235,-2.67166,0.266411,-0.063006,-0.035956,46.799225,-7.618519,-3.192785,4.63583E+18,0.033947,0.841747,-0.097516,-0.529907,-9.595019,0.240773,-1.710724,-0.022544,0.00696,-0.008767,38.526566,-8.562452,25.459186,4.63583E+18,0.632779,-0.071151,0.762305,0.115839,0
-9.628943,-0.316725,0.933827,-0.207515,-0.085573,-0.00101,41.785274,-19.030674,-9.365803,4.63583E+18,-0.445972,0.551718,-0.393116,-0.584958,-9.346745,0.128725,-2.774111,0.243383,-0.065047,-0.033584,46.815392,-7.580798,-3.097818,4.63583E+18,0.033047,0.841641,-0.097868,-0.530067,-9.595019,0.255512,-1.743127,-0.009431,0.015432,-0.008545,38.310657,-8.557389,25.634254,4.63583E+18,0.632736,-0.071185,0.762341,0.115822,0
-9.744224,-0.37843,0.658517,-0.191139,-0.117973,-0.007002,41.799499,-19.116118,-9.436323,4.63583E+18,-0.445789,0.551737,-0.392509,-0.585487,-9.28159,0.185964,-2.953081,0.211563,-0.054573,-0.031448,46.758317,-7.713968,-3.152363,4.63583E+18,0.032262,0.841551,-0.098164,-0.530202,-9.560928,0.290446,-1.722931,-0.007551,0.019999,-0.011528,38.215078,-8.557389,25.647755,4.63583E+18,0.63268,-0.071226,0.762388,0.11579,0
-9.797794,-0.385213,0.588675,-0.180873,-0.156305,-0.007358,41.652332,-19.109995,-9.490591,4.63583E+18,-0.445693,0.551643,-0.391856,-0.586086,-9.236883,0.302645,-3.009838,0.195693,-0.042948,-0.033473,46.618492,-7.685118,-3.173925,4.63583E+18,0.031532,0.841486,-0.098417,-0.530303,-9.581121,0.281615,-1.755331,-0.006483,0.020295,-0.010755,38.425054,-8.625563,25.375061,4.63583E+18,0.632623,-0.071262,0.762437,0.115756,0
-9.709619,-0.41302,0.67616,-0.178025,-0.15138,-0.000414,41.570271,-18.933683,-9.658777,4.63583E+18,-0.445579,0.551543,-0.391235,-0.586681,-9.304892,0.224969,-2.834503,0.19167,-0.038925,-0.039174,46.573939,-7.542595,-3.173925,4.63583E+18,0.030808,0.841431,-0.098636,-0.530392,-9.639622,0.360305,-1.837401,-0.010386,0.022283,-0.016647,38.509287,-8.630634,25.354776,4.63583E+18,0.632561,-0.071328,0.762488,0.115718,0
-9.60519,-0.429296,0.693114,-0.190959,-0.128953,0.011097,41.493647,-18.981147,-9.698788,4.63583E+18,-0.44537,0.551504,-0.390649,-0.587267,-9.345478,0.195318,-2.621605,0.167065,-0.036789,-0.036429,46.63782,-7.440978,-3.097839,4.63583E+18,0.03018,0.841376,-0.098806,-0.530483,-9.666573,0.377584,-1.888766,-0.014658,0.023425,-0.02405,38.514359,-8.698807,25.184344,4.63583E+18,0.632497,-0.071429,0.762538,0.115674,0
-9.682506,-0.382499,0.541195,-0.216122,-0.09103,0.017328,41.455664,-19.124931,-9.673689,4.63583E+18,-0.445026,0.551593,-0.390087,-0.587817,-9.33185,0.100214,-2.623314,0.129432,-0.042142,-0.032752,46.780331,-7.545737,-3.152349,4.63583E+18,0.029688,0.841303,-0.098913,-0.530607,-9.634181,0.367069,-1.92623,-0.025889,0.024493,-0.028544,38.514359,-8.703878,25.08078,4.63583E+18,0.632429,-0.071576,0.762584,0.115653,0
-9.848647,-0.292316,0.332989,-0.22271,-0.165255,0.023203,41.561443,-19.157493,-9.8961,4.63583E+18,-0.444697,0.551553,-0.389312,-0.588617,-9.297925,0.092265,-2.741414,0.095736,-0.039633,-0.032044,46.758328,-7.514224,-3.097841,4.63583E+18,0.029315,0.84123,-0.098947,-0.530737,-9.563477,0.411665,-1.883327,-0.040621,0.021585,-0.036792,38.378031,-8.56755,25.607958,4.63583E+18,0.63237,-0.071785,0.762613,0.115657,0
-9.916494,-0.202096,0.429917,-0.215766,-0.228883,0.020948,41.652353,-19.080864,-10.134841,4.63583E+18,-0.444557,0.551304,-0.388493,-0.589497,-9.280324,0.202261,-2.837646,0.061198,-0.037621,-0.035373,46.742146,-7.561911,-3.15234,4.63583E+18,0.029056,0.841158,-0.098898,-0.530874,-9.501594,0.39233,-1.811776,-0.048616,0.015399,-0.040367,38.379231,-8.409701,25.999935,4.63583E+18,0.63233,-0.072025,0.76262,0.11568,0
-9.829683,-0.240073,0.713438,-0.2128,-0.207164,0.016201,41.566893,-18.975066,-10.18166,4.63583E+18,-0.4444,0.551109,-0.387709,-0.590312,-9.268118,0.260464,-2.875548,0.039264,-0.034057,-0.045468,46.808701,-7.647352,-3.173925,4.63583E+18,0.028849,0.841095,-0.09877,-0.53101,-9.486,0.322481,-1.874852,-0.043171,0.007003,-0.04059,38.516388,-8.546364,25.662687,4.63583E+18,0.632318,-0.072247,0.762608,0.115687,0
-9.731339,-0.299757,0.854518,-0.198263,-0.184493,0.014183,41.505173,-18.792648,-10.123327,4.63583E+18,-0.444255,0.550939,-0.387008,-0.59104,-9.255911,0.230528,-2.871439,0.025265,-0.029785,-0.054723,46.761037,-7.533128,-3.173925,4.63583E+18,0.028675,0.841044,-0.098575,-0.531137,-9.462434,0.283315,-1.87994,-0.030799,0.008397,-0.039596,38.674234,-8.761855,25.374285,4.63583E+18,0.632304,-0.072434,0.762606,0.115656,0
-9.711662,-0.351277,0.881626,-0.173994,-0.177495,0.012582,41.572941,-18.663727,-10.210079,4.63583E+18,-0.444158,0.550743,-0.386376,-0.591708,-9.291243,0.181702,-2.859232,0.006624,-0.023016,-0.056612,46.799194,-7.561901,-3.097862,4.63583E+18,0.028562,0.841005,-0.098335,-0.531248,-9.449378,0.337566,-1.902659,-0.020963,0.005563,-0.040515,38.617104,-8.788482,25.536523,4.63583E+18,0.632303,-0.072596,0.762601,0.115593,0
-9.7293,-0.459797,0.975896,-0.152274,-0.15032,0.004333,41.769651,-18.831243,-10.463742,4.63583E+18,-0.444087,0.550587,-0.385829,-0.592264,-9.302041,0.142381,-2.885055,-0.012006,-0.014708,-0.057444,46.948496,-7.713902,-3.066758,4.63583E+18,0.028512,0.840982,-0.098057,-0.531338,-9.459888,0.387239,-1.892997,-0.022282,0.000372,-0.044565,38.453006,-8.573531,25.459233,4.63583E+18,0.63232,-0.072773,0.762581,0.115524,0
